SpectraSuite Data File
++++++++++++++++++++++++++++++++++++
Date: Fri Oct 18 13:57:58 GMT-05:00 2013
User: bianchi
Dark Spectrum Present: No
Reference Spectrum Present: No
Number of Sampled Component Spectra: 1
Spectrometers: USB2+H05261
Integration Time (usec): 50000 (USB2+H05261)
Spectra Averaged: 1 (USB2+H05261)
Boxcar Smoothing: 0 (USB2+H05261)
Correct for Electrical Dark: No (USB2+H05261)
Strobe/Lamp Enabled: No (USB2+H05261)
Correct for Detector Non-linearity: No (USB2+H05261)
Correct for Stray Light: No (USB2+H05261)
Number of Pixels in Processed Spectrum: 2048
>>>>>Begin Processed Spectral Data<<<<<
365.73	0.00
365.92	0.00
366.12	0.00
366.32	0.00
366.52	0.00
366.72	0.00
366.91	0.00
367.11	0.00
367.31	0.00
367.51	0.00
367.70	0.00
367.90	0.00
368.10	0.00
368.30	0.00
368.49	0.00
368.69	0.00
368.89	0.00
369.09	0.00
369.28	0.00
369.48	0.00
369.68	0.00
369.87	0.00
370.07	0.00
370.27	0.00
370.47	0.00
370.66	91.28
370.86	79.58
371.06	117.03
371.25	128.73
371.45	121.71
371.65	140.43
371.84	173.20
372.04	128.73
372.24	156.82
372.44	152.13
372.63	257.46
372.83	168.52
373.03	163.84
373.22	208.31
373.42	215.33
373.62	220.01
373.81	287.89
374.01	292.57
374.21	180.22
374.40	224.69
374.60	273.84
374.79	243.42
374.99	285.55
375.19	210.65
375.38	322.99
375.58	243.42
375.78	248.10
375.97	255.12
376.17	376.83
376.37	255.12
376.56	191.92
376.76	241.08
376.95	252.78
377.15	252.78
377.35	217.67
377.54	238.73
377.74	278.52
377.93	311.29
378.13	320.65
378.33	332.36
378.52	273.84
378.72	304.27
378.91	297.25
379.11	280.86
379.31	346.40
379.50	294.91
379.70	201.29
379.89	306.61
380.09	297.25
380.28	332.36
380.48	330.02
380.68	292.57
380.87	308.95
381.07	435.34
381.26	428.32
381.46	278.52
381.65	414.27
381.85	381.51
382.04	496.19
382.24	367.46
382.43	362.78
382.63	339.38
382.83	367.46
383.02	337.04
383.22	393.21
383.41	297.25
383.61	337.04
383.80	379.17
384.00	379.17
384.19	372.15
384.39	421.30
384.58	395.55
384.78	451.72
384.97	339.38
385.17	407.25
385.36	360.44
385.56	437.68
385.75	461.09
385.95	351.08
386.14	458.74
386.34	393.21
386.53	491.51
386.72	425.98
386.92	372.15
387.11	461.09
387.31	461.09
387.50	374.49
387.70	430.66
387.89	418.96
388.09	535.98
388.28	430.66
388.48	486.83
388.67	465.77
388.86	486.83
389.06	456.40
389.25	465.77
389.45	491.51
389.64	437.68
389.84	482.15
390.03	449.38
390.22	430.66
390.42	568.75
390.61	470.45
390.81	447.04
391.00	533.64
391.19	578.11
391.39	428.32
391.58	505.56
391.78	496.19
391.97	489.17
392.16	456.40
392.36	521.94
392.55	582.79
392.75	620.24
392.94	491.51
393.13	550.03
393.33	531.30
393.52	580.45
393.71	601.52
393.91	653.01
394.10	514.92
394.29	528.96
394.49	582.79
394.68	601.52
394.88	557.05
395.07	575.77
395.26	629.60
395.46	667.05
395.65	655.35
395.84	671.73
396.04	674.07
396.23	636.63
396.42	634.29
396.62	669.39
396.81	655.35
397.00	662.37
397.19	716.20
397.39	631.94
397.58	660.03
397.77	662.37
397.97	713.86
398.16	697.48
398.35	702.16
398.55	648.33
398.74	805.14
398.93	713.86
399.12	741.95
399.32	676.41
399.51	774.72
399.70	748.97
399.90	753.65
400.09	779.40
400.28	786.42
400.47	798.12
400.67	758.33
400.86	795.78
401.05	767.70
401.24	837.91
401.44	992.39
401.63	861.32
401.82	929.19
402.01	800.46
402.21	861.32
402.40	835.57
402.59	823.87
402.78	828.55
402.97	835.57
403.17	887.06
403.36	961.96
403.55	863.66
403.74	889.40
403.93	973.66
404.13	959.62
404.32	912.81
404.51	807.48
404.70	964.30
404.89	966.64
405.09	961.96
405.28	957.28
405.47	961.96
405.66	933.87
405.85	945.58
406.05	945.58
406.24	1039.20
406.43	971.32
406.62	1062.60
406.81	1043.88
407.00	1088.35
407.20	1053.24
407.39	1060.26
407.58	1039.20
407.77	1102.39
407.96	1029.84
408.15	1135.16
408.34	1170.27
408.54	1153.88
408.73	1111.75
408.92	1188.99
409.11	1242.82
409.30	1132.82
409.49	1060.26
409.68	1095.37
409.87	1177.29
410.07	1224.10
410.26	1219.42
410.45	1266.23
410.64	1186.65
410.83	1301.34
411.02	1338.79
411.21	1217.08
411.40	1238.14
411.59	1268.57
411.78	1371.55
411.98	1240.48
412.17	1266.23
412.36	1310.70
412.55	1390.28
412.74	1432.41
412.93	1469.86
413.12	1493.26
413.31	1376.24
413.50	1366.87
413.69	1516.67
413.88	1544.75
414.07	1544.75
414.26	1514.33
414.45	1533.05
414.64	1657.10
414.83	1652.42
415.02	1547.09
415.22	1652.42
415.41	1547.09
415.60	1598.59
415.79	1584.54
415.98	1657.10
416.17	1689.87
416.36	1626.67
416.55	1678.16
416.74	1645.40
416.93	1722.63
417.12	1769.44
417.31	1736.68
417.50	1781.15
417.69	1809.23
417.88	1741.36
418.07	1776.47
418.26	1858.39
418.45	1783.49
418.64	1837.32
418.83	1813.92
419.02	1776.47
419.21	1790.51
419.39	1937.96
419.58	1813.92
419.77	2024.56
419.96	1970.73
420.15	1909.88
420.34	1947.33
420.53	1907.54
420.72	1912.22
420.91	2076.06
421.10	1874.77
421.29	2059.67
421.48	1944.99
421.67	1968.39
421.86	2050.31
422.05	1963.71
422.24	2062.01
422.43	2001.16
422.61	2073.71
422.80	2052.65
422.99	2136.91
423.18	2043.29
423.37	2216.49
423.56	2092.44
423.75	2003.50
423.94	2050.31
424.13	1980.09
424.32	1926.26
424.50	2064.35
424.69	2064.35
424.88	2127.55
425.07	2026.90
425.26	2155.63
425.45	2092.44
425.64	2062.01
425.83	1980.09
426.01	2076.06
426.20	2047.97
426.39	2097.12
426.58	2090.10
426.77	2122.87
426.96	2146.27
427.15	2200.10
427.33	2162.66
427.52	2167.34
427.71	2172.02
427.90	2228.19
428.09	2111.16
428.28	2092.44
428.46	2263.30
428.65	2232.87
428.84	2167.34
429.03	2267.98
429.22	2218.83
429.40	2345.22
429.59	2303.09
429.78	2153.29
429.97	2183.72
430.16	2291.38
430.34	2356.92
430.53	2387.35
430.72	2296.07
430.91	2443.52
431.10	2382.67
431.28	2354.58
431.47	2413.09
431.66	2487.99
431.85	2340.54
432.03	2581.61
432.22	2574.59
432.41	2380.32
432.60	2478.63
432.79	2459.90
432.97	2448.20
433.16	2593.31
433.35	2478.63
433.54	2438.84
433.72	2665.87
433.91	2520.76
434.10	2574.59
434.28	2530.12
434.47	2642.46
434.66	2565.23
434.85	2663.53
435.03	2647.15
435.22	2572.25
435.41	2733.75
435.59	2663.53
435.78	2768.85
435.97	2633.10
436.16	2752.47
436.34	2708.00
436.53	2710.34
436.72	2876.52
436.90	2696.30
437.09	2682.25
437.28	2693.96
437.46	2752.47
437.65	2920.99
437.84	2803.96
438.02	2913.97
438.21	2995.89
438.40	2813.32
438.58	2960.78
438.77	2963.12
438.96	2895.24
439.14	3019.29
439.33	3070.78
439.52	2981.84
439.70	3042.70
439.89	3096.53
440.08	3243.98
440.26	3197.17
440.45	3176.11
440.63	3199.51
440.82	3159.72
441.01	3136.32
441.19	3162.06
441.38	3335.26
441.57	3304.84
441.75	3335.26
441.94	3335.26
442.12	3389.10
442.31	3372.71
442.50	3389.10
442.68	3358.67
442.87	3297.81
443.05	3456.97
443.24	3454.63
443.43	3435.91
443.61	3330.58
443.80	3632.51
443.98	3438.25
444.17	3302.50
444.35	3569.32
444.54	3515.48
444.73	3597.40
444.91	3524.85
445.10	3632.51
445.28	3574.00
445.47	3442.93
445.65	3513.14
445.84	3578.68
446.02	3585.70
446.21	3646.55
446.39	3606.77
446.58	3620.81
446.77	3623.15
446.95	3625.49
447.14	3693.37
447.32	3625.49
447.51	3655.92
447.69	3660.60
447.88	3723.79
448.06	3641.87
448.25	3562.30
448.43	3756.56
448.62	3618.47
448.80	3627.83
448.99	3777.62
449.17	3705.07
449.36	3637.19
449.54	3726.13
449.73	3836.14
449.91	3854.86
450.10	3721.45
450.28	3889.97
450.46	3819.75
450.65	3728.47
450.83	3918.06
451.02	3747.20
451.20	3904.01
451.39	3934.44
451.57	3782.31
451.76	3850.18
451.94	3871.25
452.13	4163.81
452.31	3990.61
452.49	4037.42
452.68	3847.84
452.86	4051.47
453.05	4107.64
453.23	4070.19
453.42	4035.08
453.60	3913.38
453.78	4044.45
453.97	3957.85
454.15	4039.76
454.34	4063.17
454.52	4121.68
454.70	4046.79
454.89	4100.62
455.07	4147.43
455.26	4257.43
455.44	4339.35
455.62	4133.39
455.81	4234.03
455.99	4128.70
456.17	4290.20
456.36	4168.49
456.54	4440.00
456.73	4250.41
456.91	4519.57
457.09	4273.82
457.28	4526.60
457.46	4337.01
457.64	4425.95
457.83	4489.15
458.01	4472.76
458.19	4449.36
458.38	4379.14
458.56	4608.51
458.74	4486.81
458.93	4437.66
459.11	4538.30
459.29	4589.79
459.48	4489.15
459.66	4685.75
459.84	4664.69
460.03	4538.30
460.21	4683.41
460.39	4582.77
460.57	4690.43
460.76	4830.87
460.94	4755.97
461.12	4746.61
461.31	4751.29
461.49	4664.69
461.67	4802.78
461.85	4812.14
462.04	4828.53
462.22	5107.05
462.40	4985.34
462.59	4807.46
462.77	4814.48
462.95	5013.43
463.13	4940.87
463.32	4978.32
463.50	4978.32
463.68	5036.83
463.86	4933.85
464.05	4938.53
464.23	5032.15
464.41	5104.71
464.59	5011.09
464.78	5146.84
464.96	4997.04
465.14	5074.28
465.32	5076.62
465.50	5310.68
465.69	5172.58
465.87	4971.30
466.05	5210.03
466.23	5085.98
466.41	5053.22
466.60	5385.57
466.78	5118.75
466.96	5247.48
467.14	5224.08
467.32	5444.09
467.51	5294.29
467.69	5268.55
467.87	5294.29
468.05	5294.29
468.23	5385.57
468.41	5231.10
468.60	5242.80
468.78	5437.06
468.96	5507.28
469.14	5425.36
469.32	5579.84
469.50	5322.38
469.69	5563.45
469.87	5462.81
470.05	5593.88
470.23	5596.22
470.41	5460.47
470.59	5687.50
470.77	5537.71
470.95	5657.07
471.14	5738.99
471.32	5542.39
471.50	5757.72
471.68	5610.26
471.86	5689.84
472.04	5846.66
472.22	5907.51
472.40	5743.67
472.58	5975.39
472.77	6038.58
472.95	5795.17
473.13	6167.31
473.31	5998.79
473.49	5832.62
473.67	5977.73
473.85	6160.29
474.03	6134.54
474.21	6389.66
474.39	6382.64
474.57	6073.69
474.75	6417.75
474.93	6312.42
475.12	6394.34
475.30	6392.00
475.48	6244.55
475.66	6373.28
475.84	6562.86
476.02	6490.31
476.20	6504.35
476.38	6565.20
476.56	6939.69
476.74	6834.36
476.92	6766.49
477.10	6668.19
477.28	6991.18
477.46	6883.52
477.64	7054.37
477.82	7126.93
478.00	6981.82
478.18	7194.81
478.36	7368.01
478.54	7316.51
478.72	7283.75
478.90	7330.56
479.08	7349.28
479.26	7410.14
479.44	7468.65
479.62	7463.97
479.80	7639.51
479.98	7599.72
480.16	7761.22
480.34	7674.62
480.52	7749.51
480.70	7726.11
480.88	7861.86
481.06	7997.61
481.24	8049.10
481.41	8049.10
481.59	8203.58
481.77	8360.39
481.95	8353.37
482.13	8421.25
482.31	8446.99
482.49	8402.52
482.67	8643.60
482.85	8524.23
483.03	8561.68
483.21	8922.12
483.39	8795.73
483.57	8858.93
483.74	9100.00
483.92	8997.02
484.10	8802.75
484.28	8994.68
484.46	9263.84
484.64	9432.36
484.82	9287.25
485.00	9357.46
485.18	9689.82
485.35	9535.34
485.53	9533.00
485.71	9701.52
485.89	10083.03
486.07	9860.68
486.25	9778.76
486.43	9774.08
486.61	9973.02
486.78	10246.87
486.96	10153.24
487.14	10455.17
487.32	10361.55
487.50	10518.37
487.68	10352.19
487.85	10485.60
488.03	10712.63
488.21	11044.99
488.39	11052.01
488.57	10953.71
488.75	11255.64
488.92	11101.16
489.10	11358.62
489.28	11375.00
489.46	11269.68
489.64	11330.53
489.81	11550.54
489.99	11522.46
490.17	11740.13
490.35	11889.92
490.53	11683.95
490.70	12044.40
490.88	12109.93
491.06	12088.87
491.24	12121.63
491.41	12215.26
491.59	12388.46
491.77	12369.73
491.95	12461.01
492.13	12559.31
492.30	12669.32
492.48	12535.91
492.66	12950.18
492.84	12727.83
493.01	12772.30
493.19	13029.76
493.37	13444.04
493.54	12947.84
493.72	13156.15
493.90	13294.24
494.08	13329.35
494.25	13399.57
494.43	13528.30
494.61	13631.28
494.79	13495.53
494.96	13355.10
495.14	13809.16
495.32	14061.94
495.49	14242.16
495.67	13916.83
495.85	14452.81
496.02	14200.03
496.20	14544.09
496.38	14136.84
496.55	14483.24
496.73	14628.35
496.91	14413.02
497.09	14595.58
497.26	14810.91
497.44	14860.06
497.62	15089.43
497.79	14951.34
497.97	15108.16
498.14	15016.88
498.32	15335.19
498.50	15257.95
498.67	15704.99
498.85	15459.24
499.03	15524.77
499.20	15442.85
499.38	15651.16
499.56	15712.02
499.73	15468.60
499.91	15866.49
500.08	16072.46
500.26	15683.93
500.44	15992.88
500.61	16180.12
500.79	16145.02
500.97	16283.11
501.14	16521.84
501.32	16381.41
501.49	16334.60
501.67	16418.86
501.84	16592.06
502.02	16620.14
502.20	16673.98
502.37	16521.84
502.55	16510.14
502.72	16386.09
502.90	17207.62
503.07	16915.05
503.25	16734.83
503.43	16730.15
503.60	17001.65
503.78	17451.03
503.95	17083.57
504.13	16847.18
504.30	17200.60
504.48	17078.89
504.65	17406.56
504.83	17294.22
505.01	17441.67
505.18	17453.37
505.36	17675.73
505.53	17184.21
505.71	17516.57
505.88	17839.56
506.06	17603.17
506.23	17909.78
506.41	17809.14
506.58	18010.42
506.76	18024.47
506.93	17928.50
507.11	17802.11
507.28	18106.38
507.46	17977.65
507.63	18061.91
507.81	18246.82
507.98	18279.58
508.16	18333.42
508.33	18113.41
508.50	18672.79
508.68	18469.17
508.85	18574.49
509.03	18520.66
509.20	18773.44
509.38	18946.64
509.55	19037.92
509.73	18831.95
509.90	18948.98
510.08	19194.73
510.25	19030.90
510.42	19033.24
510.60	18998.13
510.77	19405.38
510.95	19440.49
511.12	19222.82
511.30	19576.24
511.47	19445.17
511.64	19569.22
511.82	19817.32
511.99	19412.40
512.17	19831.36
512.34	19641.78
512.51	19569.22
512.69	19929.66
512.86	19758.80
513.04	20107.54
513.21	20109.88
513.38	19922.64
513.56	19985.83
513.73	19768.16
513.90	19964.77
514.08	20065.41
514.25	20489.05
514.43	20379.04
514.60	20496.07
514.77	20411.81
514.95	20662.25
515.12	20821.41
515.29	20372.02
515.47	20636.50
515.64	20823.75
515.81	20849.49
515.99	20730.12
516.16	20772.25
516.33	21057.80
516.51	21198.23
516.68	20709.06
516.85	20966.52
517.03	21245.04
517.20	21172.49
517.37	21135.04
517.54	21530.59
517.72	21191.21
517.89	21191.21
518.06	21097.59
518.24	21303.56
518.41	21238.02
518.58	21544.63
518.75	21628.89
518.93	21734.21
519.10	21586.76
519.27	21923.80
519.45	21385.47
519.62	21678.04
519.79	21965.93
519.96	21694.43
520.14	21816.13
520.31	21799.75
520.48	22001.04
520.65	21970.61
520.83	22012.74
521.00	21996.35
521.17	21975.29
521.34	21799.75
521.52	22314.67
521.69	22176.58
521.86	22726.60
522.03	22560.42
522.20	22464.46
522.38	22581.49
522.55	22658.73
522.72	22417.65
522.89	22670.43
523.07	22834.27
523.24	22778.09
523.41	22867.03
523.58	22586.17
523.75	23126.83
523.92	22771.07
524.10	23096.41
524.27	22932.57
524.44	23278.97
524.61	23372.59
524.78	23101.09
524.96	23103.43
525.13	23328.12
525.30	23091.73
525.47	23236.84
525.64	23159.60
525.81	23370.25
525.98	23627.71
526.16	23363.23
526.33	23440.47
526.50	23571.54
526.67	23400.68
526.84	23651.11
527.01	23683.88
527.18	23601.96
527.36	23948.36
527.53	23896.87
527.70	24236.25
527.87	23936.66
528.04	23889.85
528.21	24102.84
528.38	24032.62
528.55	23950.70
528.72	23892.19
528.89	24458.60
529.07	24170.71
529.24	24329.87
529.41	24224.54
529.58	23875.80
529.75	24439.87
529.92	24273.70
530.09	24386.04
530.26	24589.67
530.43	24582.65
530.60	24301.78
530.77	24332.21
530.94	24837.76
531.11	24381.36
531.28	24397.74
531.46	24662.22
531.63	24769.89
531.80	24617.75
531.97	24968.84
532.14	24929.05
532.31	24856.49
532.48	24980.54
532.65	24788.61
532.82	24896.28
532.99	24713.72
533.16	25238.00
533.33	24971.18
533.50	25378.43
533.67	25373.75
533.84	25062.46
534.01	25425.24
534.18	25219.27
534.35	25362.04
534.52	25207.57
534.69	25472.05
534.86	25439.28
535.03	25097.56
535.20	25537.59
535.37	25532.90
535.54	25631.21
535.71	25930.80
535.88	25521.20
536.05	25797.38
536.22	25731.85
536.38	25846.54
536.55	25982.29
536.72	25762.28
536.89	25675.68
537.06	26019.74
537.23	25846.54
537.40	25935.48
537.57	25748.23
537.74	25984.63
537.91	26410.60
538.08	25940.16
538.25	26202.30
538.42	25886.32
538.59	26040.80
538.75	26068.89
538.92	26260.81
539.09	26354.43
539.26	26199.96
539.43	26298.26
539.60	26366.13
539.77	25804.41
539.94	26438.69
540.11	26677.43
540.28	26661.04
540.44	26647.00
540.61	26382.52
540.78	26455.08
540.95	26511.25
541.12	26403.58
541.29	26677.43
541.46	26780.41
541.62	26759.34
541.79	26885.73
541.96	26492.52
542.13	26628.27
542.30	26735.94
542.47	26937.23
542.63	26831.90
542.80	27271.92
542.97	27278.94
543.14	27503.64
543.31	27044.89
543.48	27126.81
543.64	27407.67
543.81	27133.83
543.98	27821.95
544.15	27323.41
544.32	27625.34
544.48	27960.04
544.65	27206.39
544.82	27199.37
544.99	26801.47
545.16	27365.54
545.32	27744.71
545.49	27740.03
545.66	27997.49
545.83	27812.59
546.00	27754.07
546.16	27459.16
546.33	27557.47
546.50	27262.56
546.67	27796.20
546.83	27367.88
547.00	27737.69
547.17	27754.07
547.34	28044.30
547.50	28112.17
547.67	28182.39
547.84	27805.56
548.00	27962.38
548.17	28278.35
548.34	28173.03
548.51	28301.76
548.67	28453.89
548.84	28109.83
549.01	28184.73
549.18	28231.54
549.34	28287.71
549.51	28402.40
549.68	28276.01
549.84	28208.14
550.01	28018.55
550.18	28212.82
550.34	28617.73
550.51	28533.47
550.68	28386.02
550.84	28116.86
551.01	28732.42
551.18	28491.34
551.34	28126.22
551.51	28135.58
551.68	29006.26
551.84	28989.88
552.01	28968.81
552.18	28797.95
552.34	28680.92
552.51	28325.16
552.68	28393.04
552.84	28739.44
553.01	28926.68
553.18	28769.86
553.34	28610.71
553.51	28673.90
553.67	28631.77
553.84	29013.28
554.01	29350.32
554.17	29010.94
554.34	29596.07
554.51	28776.89
554.67	29179.46
554.84	28973.49
555.00	29043.71
555.17	29071.79
555.33	29453.30
555.50	29118.60
555.67	29053.07
555.83	29144.35
556.00	29397.13
556.16	29326.91
556.33	29111.58
556.50	29326.91
556.66	29790.34
556.83	29497.77
556.99	29598.41
557.16	29553.94
557.32	29523.52
557.49	29420.53
557.65	29081.16
557.82	29376.06
557.98	29832.47
558.15	29249.67
558.32	29603.10
558.48	29565.65
558.65	29748.21
558.81	29757.57
558.98	29572.67
559.14	29504.79
559.31	29319.89
559.47	29708.42
559.64	29638.20
559.80	29537.56
559.97	29841.83
560.13	29692.04
560.30	30045.46
560.46	29993.97
560.63	29839.49
560.79	29663.95
560.96	30029.07
561.12	29883.96
561.29	29839.49
561.45	29317.55
561.61	29703.74
561.78	29635.86
561.94	29785.66
562.11	29958.86
562.27	29968.22
562.44	29593.73
562.60	29872.26
562.77	29949.50
562.93	29804.38
563.10	30309.94
563.26	29879.28
563.42	30237.38
563.59	30394.20
563.75	30153.12
563.92	30513.56
564.08	30036.09
564.24	30089.93
564.41	30000.99
564.57	30054.82
564.74	30244.40
564.90	29947.15
565.07	30309.94
565.23	30132.06
565.39	30043.12
565.56	30101.63
565.72	30658.68
565.88	30300.58
566.05	30108.65
566.21	29839.49
566.38	30265.47
566.54	30307.60
566.70	30422.28
566.87	30625.91
567.03	30548.67
567.19	30764.00
567.36	30441.01
567.52	30256.11
567.68	30934.86
567.85	30352.07
568.01	30202.27
568.17	30548.67
568.34	30373.13
568.50	30581.44
568.66	30300.58
568.83	30087.59
568.99	30546.33
569.15	30677.40
569.32	30316.96
569.48	30536.97
569.64	30260.79
569.81	30792.09
569.97	30529.95
570.13	30476.12
570.30	30288.87
570.46	30368.45
570.62	30824.86
570.78	30703.15
570.95	30188.23
571.11	30569.74
571.27	30370.79
571.43	30160.14
571.60	30794.43
571.76	30679.74
571.92	30443.35
572.09	30639.95
572.25	30778.04
572.41	30590.80
572.57	30558.03
572.74	30642.29
572.90	30834.22
573.06	30684.42
573.22	30445.69
573.38	30665.70
573.55	30738.26
573.71	31103.38
573.87	31033.16
574.03	30712.51
574.20	30604.84
574.36	30859.96
574.52	30820.17
574.68	30309.94
574.84	31075.29
575.01	31199.34
575.17	31030.82
575.33	30712.51
575.49	31152.53
575.65	31007.42
575.82	30995.71
575.98	30684.42
576.14	30993.37
576.30	30843.58
576.46	30721.87
576.62	30724.21
576.79	30981.67
576.95	30642.29
577.11	30904.43
577.27	30850.60
577.43	30635.27
577.59	31000.40
577.75	30874.01
577.92	30654.00
578.08	30560.37
578.24	30855.28
578.40	30948.90
578.56	30904.43
578.72	30569.74
578.88	30756.98
579.04	30888.05
579.21	30869.33
579.37	30923.16
579.53	31372.54
579.69	30838.90
579.85	30981.67
580.01	30689.10
580.17	30689.10
580.33	31002.74
580.49	30897.41
580.65	30925.50
580.82	31213.38
580.98	31267.22
581.14	31101.04
581.30	30834.22
581.46	30646.97
581.62	30967.63
581.78	30597.82
581.94	30972.31
582.10	30789.75
582.26	31112.74
582.42	31037.84
582.58	31019.12
582.74	31239.13
582.90	31323.39
583.06	31021.46
583.22	30522.93
583.38	31225.09
583.54	30925.50
583.70	30614.21
583.86	31042.53
584.02	31037.84
584.18	30895.07
584.34	31218.07
584.50	31178.28
584.66	31051.89
584.82	31087.00
584.98	31049.55
585.14	30698.47
585.30	31087.00
585.46	31037.84
585.62	30937.20
585.78	31175.94
585.94	30799.11
586.10	31082.31
586.26	31103.38
586.42	31283.60
586.58	30955.93
586.74	31147.85
586.90	30724.21
587.06	30848.26
587.22	30724.21
587.38	30764.00
587.54	31431.05
587.70	31164.23
587.86	31421.69
588.02	31264.88
588.18	31454.46
588.34	31419.35
588.49	31456.80
588.65	31204.02
588.81	31189.98
588.97	31079.97
589.13	31051.89
589.29	31597.23
589.45	31302.32
589.61	31527.02
589.77	31536.38
589.93	31328.07
590.08	31580.85
590.24	31213.38
590.40	31421.69
590.56	31630.00
590.72	31124.44
590.88	31393.61
591.04	31178.28
591.20	31468.50
591.35	31477.86
591.51	32205.77
591.67	31857.03
591.83	32070.02
591.99	31550.42
592.15	31604.25
592.31	31431.05
592.46	31117.42
592.62	31402.97
592.78	31159.55
592.94	31307.01
593.10	31328.07
593.26	31721.28
593.41	31510.63
593.57	31639.36
593.73	31857.03
593.89	31281.26
594.05	31508.29
594.20	31346.79
594.36	30998.06
594.52	31241.47
594.68	31426.37
594.84	31496.59
594.99	31281.26
595.15	31557.44
595.31	32116.83
595.47	31517.65
595.62	31810.22
595.78	31826.60
595.94	31653.40
596.10	31580.85
596.25	31630.00
596.41	31611.28
596.57	31246.15
596.73	31625.32
596.88	31690.85
597.04	31810.22
597.20	31784.48
597.36	31754.05
597.51	31529.36
597.67	31290.62
597.83	31419.35
597.99	31707.24
598.14	31784.48
598.30	31754.05
598.46	31552.76
598.61	31735.32
598.77	31709.58
598.93	31622.98
599.09	31669.79
599.24	31892.14
599.40	31723.62
599.56	32353.23
599.71	31527.02
599.87	31651.06
600.03	31292.96
600.18	32006.83
600.34	31365.52
600.50	31393.61
600.65	31559.78
600.81	32006.83
600.97	32161.30
601.12	31859.37
601.28	31964.70
601.44	32189.39
601.59	31655.75
601.75	31627.66
601.91	31882.78
602.06	31466.16
602.22	31639.36
602.37	31138.49
602.53	32013.85
602.69	31833.63
602.84	31578.51
603.00	31981.08
603.16	31704.90
603.31	31608.93
603.47	31906.18
603.62	31646.38
603.78	31686.17
603.94	31381.90
604.09	31796.18
604.25	31779.79
604.40	31227.43
604.56	31632.34
604.71	32072.36
604.87	31599.57
605.03	31590.21
605.18	31793.84
605.34	31264.88
605.49	31655.75
605.65	31094.02
605.80	31571.49
605.96	31482.55
606.12	31304.67
606.27	31658.09
606.43	31248.49
606.58	31782.13
606.74	31566.81
606.89	32037.25
607.05	31749.37
607.20	31562.12
607.36	31779.79
607.51	31548.08
607.67	31381.90
607.82	31798.52
607.98	31414.67
608.13	31690.85
608.29	31496.59
608.44	31716.60
608.60	31618.30
608.75	31700.22
608.91	31819.58
609.06	31253.17
609.22	31494.25
609.37	31133.81
609.53	31548.08
609.68	31105.72
609.84	31311.69
609.99	31241.47
610.15	31096.36
610.30	31498.93
610.46	31379.56
610.61	31189.98
610.76	31587.87
610.92	31129.12
611.07	31653.40
611.23	31494.25
611.38	31370.20
611.54	31344.45
611.69	31012.10
611.84	31112.74
612.00	31133.81
612.15	31349.14
612.31	31489.57
612.46	31161.89
612.62	31433.39
612.77	31461.48
612.92	31784.48
613.08	30988.69
613.23	31061.25
613.39	31075.29
613.54	31199.34
613.69	31431.05
613.85	31143.17
614.00	31171.25
614.15	31442.76
614.31	31096.36
614.46	31077.63
614.62	30962.95
614.77	31229.77
614.92	31037.84
615.08	30834.22
615.23	31192.32
615.38	31213.38
615.54	30614.21
615.69	30504.20
615.84	30881.03
616.00	31040.18
616.15	30979.33
616.30	31199.34
616.46	31007.42
616.61	30897.41
616.76	30918.48
616.92	30597.82
617.07	31005.08
617.22	30756.98
617.37	30796.77
617.53	30817.83
617.68	30656.34
617.83	30892.73
617.99	30649.32
618.14	31182.96
618.29	30478.46
618.45	30794.43
618.60	30773.36
618.75	30457.39
618.90	30735.92
619.06	30483.14
619.21	30878.69
619.36	31058.91
619.51	30525.27
619.67	30323.98
619.82	30267.81
619.97	30457.39
620.12	30394.20
620.28	30323.98
620.43	31037.84
620.58	30466.75
620.73	30752.30
620.89	30754.64
621.04	30878.69
621.19	30789.75
621.34	30616.55
621.49	30419.94
621.65	30338.02
621.80	30483.14
621.95	30389.52
622.10	30817.83
622.25	29947.15
622.41	30424.62
622.56	30511.22
622.71	30567.40
622.86	30562.72
623.01	30604.84
623.16	30188.23
623.32	30223.34
623.47	30389.52
623.62	30286.53
623.77	30096.95
623.92	30361.43
624.07	29888.64
624.23	30024.39
624.38	30181.21
624.53	30188.23
624.68	30331.00
624.83	29937.79
624.98	29762.25
625.13	30045.46
625.29	30237.38
625.44	30043.12
625.59	29773.95
625.74	29589.05
625.89	29965.88
626.04	29956.52
626.19	30033.75
626.34	29731.83
626.49	29579.69
626.65	29947.15
626.80	30359.09
626.95	29858.21
627.10	29890.98
627.25	29792.68
627.40	29525.86
627.55	29598.41
627.70	29621.82
627.85	29509.47
628.00	29528.20
628.15	29570.33
628.30	29209.89
628.45	29467.34
628.60	29415.85
628.76	29165.42
628.91	29446.28
629.06	29621.82
629.21	29383.09
629.36	29727.14
629.51	29062.43
629.66	29504.79
629.81	29338.62
629.96	29345.64
630.11	29673.31
630.26	29233.29
630.41	29261.38
630.56	28917.32
630.71	29322.23
630.86	29336.27
631.01	29418.19
631.16	29542.24
631.31	29102.22
631.46	28987.53
631.61	29200.52
631.76	29118.60
631.91	29308.19
632.06	29390.11
632.21	29149.03
632.36	29305.85
632.51	29001.58
632.66	29378.40
632.81	28858.81
632.96	29500.11
633.10	29280.10
633.25	29268.40
633.40	28929.02
633.55	29385.43
633.70	28931.36
633.85	28552.20
634.00	28697.31
634.15	28931.36
634.30	28430.49
634.45	28863.49
634.60	28879.87
634.75	28919.66
634.90	28891.57
635.05	28952.43
635.19	28575.60
635.34	29029.66
635.49	29062.43
635.64	28938.38
635.79	29149.03
635.94	28570.92
636.09	28985.19
636.24	28706.67
636.39	28240.90
636.53	28512.41
636.68	28566.24
636.83	28512.41
636.98	28566.24
637.13	28875.19
637.28	28542.83
637.43	28786.25
637.57	28549.85
637.72	28547.51
637.87	28687.95
638.02	28217.50
638.17	27953.02
638.32	28507.72
638.46	28442.19
638.61	27990.47
638.76	28063.02
638.91	28290.06
639.06	28224.52
639.20	28271.33
639.35	28451.55
639.50	28395.38
639.65	28379.00
639.80	28430.49
639.94	28542.83
640.09	28526.45
640.24	28376.66
640.39	28133.24
640.54	28273.67
640.68	27718.96
640.83	28072.39
640.98	27782.16
641.13	27934.29
641.27	27929.61
641.42	27920.25
641.57	28063.02
641.72	28093.45
641.86	28020.89
642.01	27880.46
642.16	27843.01
642.31	27864.08
642.45	27931.95
642.60	27480.23
642.75	27763.43
642.90	27611.30
643.04	27601.94
643.19	27721.30
643.34	27637.05
643.48	27976.42
643.63	27733.01
643.78	27992.81
643.93	28130.90
644.07	27845.35
644.22	27714.28
644.37	27601.94
644.51	27566.83
644.66	27370.22
644.81	27653.43
644.95	27370.22
645.10	27695.56
645.25	27615.98
645.39	27445.12
645.54	27707.26
645.69	27496.61
645.83	27477.89
645.98	27550.45
646.13	27419.38
646.27	27578.53
646.42	27300.01
646.57	27508.32
646.71	26923.18
646.86	27386.61
647.00	27630.02
647.15	27440.44
647.30	27442.78
647.44	27101.06
647.59	27414.69
647.74	27667.47
647.88	27407.67
648.03	27517.68
648.17	27688.54
648.32	27489.59
648.47	27812.59
648.61	27182.98
648.76	27496.61
648.90	27552.79
649.05	27168.94
649.20	26925.52
649.34	26876.37
649.49	27047.23
649.63	27033.19
649.78	26902.12
649.92	26670.40
650.07	27321.07
650.21	26977.01
650.36	27168.94
650.51	27019.14
650.65	26916.16
650.80	26888.07
650.94	26986.38
651.09	26927.86
651.23	27285.97
651.38	26998.08
651.52	26855.31
651.67	26955.95
651.81	26618.91
651.96	26939.57
652.10	27094.04
652.25	27185.32
652.39	26836.58
652.54	27138.51
652.68	27014.46
652.83	26904.46
652.97	27304.69
653.12	26986.38
653.26	26642.32
653.41	26810.84
653.55	26766.37
653.70	26174.21
653.84	26661.04
653.99	26663.38
654.13	26820.20
654.27	26810.84
654.42	26232.72
654.56	26820.20
654.71	26813.18
654.85	26560.40
655.00	26710.19
655.14	26789.77
655.29	26354.43
655.43	26677.43
655.57	26223.36
655.72	26272.51
655.86	26370.82
656.01	26136.76
656.15	26061.87
656.30	26288.90
656.44	26567.42
656.58	26305.28
656.73	26373.16
656.87	26370.82
657.01	26401.24
657.16	26401.24
657.30	26078.25
657.45	26265.49
657.59	26054.84
657.73	26291.24
657.88	25996.33
658.02	25886.32
658.16	25855.90
658.31	26293.58
658.45	26125.06
658.60	26073.57
658.74	26012.71
658.88	25579.71
659.03	25820.79
659.17	25846.54
659.31	25989.31
659.46	25855.90
659.60	26160.17
659.74	25558.65
659.89	25568.01
660.03	25678.02
660.17	25656.95
660.32	25481.41
660.46	25350.34
660.60	25612.48
660.74	25458.01
660.89	25427.58
661.03	25156.08
661.17	25645.25
661.32	25230.98
661.46	25752.91
661.60	25502.48
661.74	25205.23
661.89	25617.16
662.03	25792.70
662.17	25221.61
662.31	25420.56
662.46	25153.74
662.60	25303.53
662.74	25109.27
662.88	25125.65
663.03	25067.14
663.17	24989.90
663.31	24802.66
663.45	24877.55
663.60	24533.50
663.74	24922.02
663.88	25139.69
664.02	25027.35
664.17	24989.90
664.31	24856.49
664.45	24978.20
664.59	24769.89
664.73	24863.51
664.88	24592.01
665.02	24638.82
665.16	24788.61
665.30	24592.01
665.44	24765.21
665.59	24093.47
665.73	24556.90
665.87	24519.45
666.01	24414.13
666.15	24608.39
666.29	24098.16
666.44	24465.62
666.58	24304.12
666.72	24458.60
666.86	24285.40
667.00	24584.99
667.14	24046.66
667.28	24201.14
667.43	24411.79
667.57	24299.44
667.71	24006.87
667.85	23819.63
667.99	23630.05
668.13	23913.25
668.27	23850.06
668.41	23922.62
668.56	23786.86
668.70	23768.14
668.84	23913.25
668.98	23559.83
669.12	23896.87
669.26	23655.79
669.40	23981.13
669.54	23534.09
669.68	23623.03
669.82	23391.31
669.96	23356.21
670.10	23154.92
670.25	23618.35
670.39	23349.18
670.53	23213.43
670.67	23204.07
670.81	23517.70
670.95	23278.97
671.09	23358.55
671.23	22862.35
671.37	22970.02
671.51	23080.02
671.65	23166.62
671.79	23332.80
671.93	23002.78
672.07	23056.62
672.21	22780.43
672.35	22464.46
672.49	22913.84
672.63	22864.69
672.77	22668.09
672.91	22384.88
673.05	22721.92
673.19	22284.24
673.33	22560.42
673.47	22684.47
673.61	22611.92
673.75	22518.29
673.89	22567.45
674.03	22588.51
674.17	22089.98
674.31	22295.94
674.45	22277.22
674.59	22036.14
674.73	22054.87
674.87	21940.18
675.01	21809.11
675.15	21942.52
675.29	21963.59
675.43	21888.69
675.56	21994.01
675.70	21715.49
675.84	21771.66
675.98	21333.98
676.12	22132.11
676.26	21570.38
676.40	22012.74
676.54	21570.38
676.68	21493.14
676.82	21200.57
676.96	21399.52
677.10	21425.26
677.23	21191.21
677.37	21235.68
677.51	20985.24
677.65	21252.06
677.79	21135.04
677.93	21128.02
678.07	20432.88
678.21	20505.43
678.34	20821.41
678.48	20236.27
678.62	20706.72
678.76	20542.88
678.90	20556.93
679.04	20383.73
679.18	20585.01
679.31	20393.09
679.45	20388.41
679.59	20137.97
679.73	20400.11
679.87	20159.03
680.00	20191.80
680.14	19917.96
680.28	19730.72
680.42	19871.15
680.56	19789.23
680.70	19784.55
680.83	19751.78
680.97	19784.55
681.11	19793.91
681.25	19531.77
681.39	19686.25
681.52	19573.90
681.66	19187.71
681.80	19206.44
681.94	19508.37
682.07	19246.23
682.21	19199.41
682.35	19147.92
682.49	19332.82
682.62	18902.17
682.76	18967.70
682.90	18853.02
683.04	18705.56
683.17	18792.16
683.31	18888.12
683.45	18794.50
683.59	18792.16
683.72	18539.38
683.86	18565.13
684.00	18394.27
684.13	18338.10
684.27	18354.48
684.41	18377.89
684.55	18108.72
684.68	17898.08
684.82	18293.63
684.96	17905.10
685.09	18075.96
685.23	17689.77
685.37	17928.50
685.50	18078.30
685.64	18012.76
685.78	18043.19
685.91	17792.75
686.05	17635.94
686.19	17647.64
686.32	17743.60
686.46	17497.84
686.60	17315.28
686.73	17193.58
686.87	17425.29
687.01	17153.79
687.14	17202.94
687.28	17036.76
687.42	16748.87
687.55	16877.60
687.69	16772.28
687.82	17011.01
687.96	16755.90
688.10	16702.06
688.23	16973.56
688.37	16840.15
688.50	16730.15
688.64	16491.41
688.78	16542.91
688.91	16566.31
689.05	16355.66
689.18	16123.95
689.32	15917.98
689.46	16044.37
689.59	16290.13
689.73	16088.84
689.86	15946.07
690.00	16079.48
690.13	16095.86
690.27	15913.30
690.41	15822.02
690.54	15932.03
690.68	15992.88
690.81	15590.31
690.95	15871.17
691.08	15573.92
691.22	15382.00
691.35	15435.83
691.49	15489.67
691.62	15403.07
691.76	15396.04
691.89	15171.35
692.03	14925.60
692.16	14965.39
692.30	15021.56
692.43	14600.26
692.57	14806.23
692.70	14808.57
692.84	14759.42
692.97	14841.34
693.11	14693.88
693.24	14745.38
693.38	14754.74
693.51	14518.34
693.65	14885.81
693.78	14544.09
693.92	14520.68
694.05	14258.54
694.19	14244.50
694.32	14413.02
694.45	14169.60
694.59	14022.15
694.72	14052.58
694.86	13748.31
694.99	13832.57
695.13	13912.14
695.26	13699.16
695.39	13980.02
695.53	13909.80
695.66	13914.48
695.80	13715.54
695.93	13490.85
696.07	13642.98
696.20	13661.71
696.33	13668.73
696.47	13444.04
696.60	13359.78
696.73	13371.48
696.87	13102.32
697.00	13355.10
697.14	13090.62
697.27	12886.99
697.40	12999.34
697.54	12966.57
697.67	12863.58
697.80	12823.80
697.94	12748.90
698.07	12498.46
698.21	12479.74
698.34	12730.17
698.47	12800.39
698.61	12599.10
698.74	12823.80
698.87	12489.10
699.01	12259.73
699.14	12292.49
699.27	12327.60
699.40	12418.88
699.54	12119.29
699.67	11955.46
699.80	12365.05
699.94	11960.14
700.07	12086.53
700.20	11981.20
700.34	11679.27
700.47	11705.02
700.60	11864.18
700.73	11868.86
700.87	11602.04
701.00	11665.23
701.13	11536.50
701.26	11487.35
701.40	11721.40
701.53	11641.82
701.66	11447.56
701.79	11419.47
701.93	11489.69
702.06	11243.93
702.19	11255.64
702.32	10930.30
702.46	10979.45
702.59	10984.13
702.72	10827.32
702.85	10822.64
702.99	10995.84
703.12	10525.39
703.25	10679.86
703.38	10888.17
703.51	10832.00
703.65	10949.03
703.78	10658.80
703.91	10537.09
704.04	10469.22
704.17	10869.45
704.31	10640.08
704.44	10663.48
704.57	10235.16
704.70	10186.01
704.83	10232.82
704.96	10258.57
705.10	10209.42
705.23	10045.58
>>>>>End Processed Spectral Data<<<<<
