SpectraSuite Data File
++++++++++++++++++++++++++++++++++++
Date: Fri Oct 18 13:58:06 GMT-05:00 2013
User: bianchi
Dark Spectrum Present: No
Reference Spectrum Present: No
Number of Sampled Component Spectra: 1
Spectrometers: USB2+H05261
Integration Time (usec): 50000 (USB2+H05261)
Spectra Averaged: 1 (USB2+H05261)
Boxcar Smoothing: 0 (USB2+H05261)
Correct for Electrical Dark: No (USB2+H05261)
Strobe/Lamp Enabled: No (USB2+H05261)
Correct for Detector Non-linearity: No (USB2+H05261)
Correct for Stray Light: No (USB2+H05261)
Number of Pixels in Processed Spectrum: 2048
>>>>>Begin Processed Spectral Data<<<<<
365.73	7.02
365.92	7.02
366.12	7.02
366.32	0.00
366.52	0.00
366.72	0.00
366.91	0.00
367.11	0.00
367.31	0.00
367.51	0.00
367.70	0.00
367.90	0.00
368.10	0.00
368.30	0.00
368.49	0.00
368.69	0.00
368.89	0.00
369.09	0.00
369.28	0.00
369.48	0.00
369.68	0.00
369.87	0.00
370.07	0.00
370.27	0.00
370.47	0.00
370.66	135.75
370.86	117.03
371.06	81.92
371.25	107.66
371.45	119.37
371.65	205.97
371.84	173.20
372.04	205.97
372.24	173.20
372.44	170.86
372.63	297.25
372.83	212.99
373.03	210.65
373.22	189.58
373.42	220.01
373.62	269.16
373.81	259.80
374.01	234.05
374.21	285.55
374.40	198.95
374.60	255.12
374.79	215.33
374.99	231.71
375.19	273.84
375.38	252.78
375.58	224.69
375.78	271.50
375.97	243.42
376.17	362.78
376.37	339.38
376.56	227.03
376.76	276.18
376.95	285.55
377.15	217.67
377.35	259.80
377.54	297.25
377.74	264.48
377.93	243.42
378.13	276.18
378.33	236.39
378.52	322.99
378.72	322.99
378.91	241.08
379.11	332.36
379.31	285.55
379.50	276.18
379.70	402.57
379.89	273.84
380.09	308.95
380.28	299.59
380.48	304.27
380.68	330.02
380.87	337.04
381.07	320.65
381.26	283.20
381.46	376.83
381.65	386.19
381.85	285.55
382.04	325.33
382.24	287.89
382.43	290.23
382.63	330.02
382.83	374.49
383.02	344.06
383.22	428.32
383.41	348.74
383.61	404.91
383.80	322.99
384.00	372.15
384.19	521.94
384.39	465.77
384.58	283.20
384.78	425.98
384.97	430.66
385.17	407.25
385.36	374.49
385.56	400.23
385.75	437.68
385.95	362.78
386.14	433.00
386.34	386.19
386.53	449.38
386.72	400.23
386.92	477.47
387.11	543.00
387.31	395.55
387.50	477.47
387.70	465.77
387.89	472.79
388.09	388.53
388.28	402.57
388.48	404.91
388.67	486.83
388.86	475.13
389.06	414.27
389.25	451.72
389.45	561.73
389.64	482.15
389.84	472.79
390.03	486.83
390.22	447.04
390.42	468.11
390.61	458.74
390.81	472.79
391.00	568.75
391.19	503.22
391.39	571.09
391.58	571.09
391.78	589.82
391.97	531.30
392.16	526.62
392.36	528.96
392.55	521.94
392.75	543.00
392.94	503.22
393.13	538.32
393.33	592.16
393.52	545.34
393.71	603.86
393.91	510.24
394.10	554.71
394.29	500.87
394.49	568.75
394.68	561.73
394.88	629.60
395.07	606.20
395.26	667.05
395.46	697.48
395.65	643.65
395.84	660.03
396.04	704.50
396.23	674.07
396.42	669.39
396.62	638.97
396.81	704.50
397.00	758.33
397.19	610.88
397.39	697.48
397.58	688.12
397.77	720.88
397.97	671.73
398.16	746.63
398.35	739.61
398.55	746.63
398.74	669.39
398.93	774.72
399.12	744.29
399.32	774.72
399.51	704.50
399.70	760.67
399.90	798.12
400.09	741.95
400.28	777.06
400.47	793.44
400.67	798.12
400.86	772.38
401.05	826.21
401.24	791.10
401.44	861.32
401.63	826.21
401.82	884.72
402.01	861.32
402.21	814.51
402.40	858.98
402.59	877.70
402.78	938.55
402.97	938.55
403.17	889.40
403.36	945.58
403.55	905.79
403.74	966.64
403.93	877.70
404.13	973.66
404.32	945.58
404.51	894.08
404.70	1025.15
404.89	1011.11
405.09	978.34
405.28	917.49
405.47	1022.81
405.66	1029.84
405.85	961.96
406.05	1025.15
406.24	1025.15
406.43	1004.09
406.62	1036.86
406.81	1081.33
407.00	1008.77
407.20	964.30
407.39	1071.97
407.58	1142.18
407.77	1149.20
407.96	1025.15
408.15	1121.12
408.34	1032.18
408.54	1132.82
408.73	1074.31
408.92	1104.73
409.11	1116.44
409.30	1100.05
409.49	1210.06
409.68	1226.44
409.87	1149.20
410.07	1104.73
410.26	1156.22
410.45	1296.66
410.64	1256.87
410.83	1167.93
411.02	1306.02
411.21	1263.89
411.40	1240.48
411.59	1273.25
411.78	1336.45
411.98	1380.92
412.17	1448.79
412.36	1252.19
412.55	1259.21
412.74	1446.45
412.93	1378.58
413.12	1397.30
413.31	1481.56
413.50	1329.42
413.69	1423.05
413.88	1390.28
414.07	1561.14
414.26	1533.05
414.45	1554.12
414.64	1451.13
414.83	1493.26
415.02	1526.03
415.22	1591.56
415.41	1572.84
415.60	1619.65
415.79	1563.48
415.98	1619.65
416.17	1640.72
416.36	1692.21
416.55	1577.52
416.74	1694.55
416.93	1586.88
417.12	1668.80
417.31	1715.61
417.50	1675.82
417.69	1827.96
417.88	1783.49
418.07	1708.59
418.26	1746.04
418.45	1685.19
418.64	1895.83
418.83	1799.87
419.02	1699.23
419.21	1816.26
419.39	1823.28
419.58	1863.07
419.77	1785.83
419.96	1888.81
420.15	1895.83
420.34	1937.96
420.53	1935.62
420.72	1942.64
420.91	1940.30
421.10	1963.71
421.29	2010.52
421.48	2047.97
421.67	1961.37
421.86	1989.46
422.05	2054.99
422.24	1949.67
422.43	2139.25
422.61	2127.55
422.80	2022.22
422.99	2010.52
423.18	2054.99
423.37	2200.10
423.56	2022.22
423.75	2066.69
423.94	2040.95
424.13	1966.05
424.32	1909.88
424.50	2059.67
424.69	2003.50
424.88	2190.74
425.07	2050.31
425.26	2064.35
425.45	2223.51
425.64	2001.16
425.83	2167.34
426.01	2232.87
426.20	2120.53
426.39	2188.40
426.58	2069.03
426.77	2221.17
426.96	2085.42
427.15	2153.29
427.33	2132.23
427.52	2214.15
427.71	2129.89
427.90	2115.84
428.09	2256.28
428.28	2195.42
428.46	2267.98
428.65	2286.70
428.84	2242.23
429.03	2417.77
429.22	2239.89
429.40	2289.04
429.59	2310.11
429.78	2303.09
429.97	2225.85
430.16	2235.21
430.34	2267.98
430.53	2363.94
430.72	2256.28
430.91	2291.38
431.10	2356.92
431.28	2457.56
431.47	2525.44
431.66	2537.14
431.85	2417.77
432.03	2399.05
432.22	2574.59
432.41	2410.75
432.60	2504.37
432.79	2420.11
432.97	2438.84
433.16	2546.50
433.35	2562.89
433.54	2523.10
433.72	2605.02
433.91	2614.38
434.10	2541.82
434.28	2558.21
434.47	2640.12
434.66	2633.10
434.85	2651.83
435.03	2656.51
435.22	2693.96
435.41	2771.19
435.59	2818.00
435.78	2686.94
435.97	2794.60
436.16	2740.77
436.34	2677.57
436.53	2747.79
436.72	2827.37
436.90	2759.49
437.09	2787.58
437.28	2715.02
437.46	2883.54
437.65	2799.28
437.84	2862.48
438.02	2902.26
438.21	2939.71
438.40	2789.92
438.58	2993.55
438.77	3035.67
438.96	2928.01
439.14	3019.29
439.33	3061.42
439.52	3026.31
439.70	3061.42
439.89	3115.25
440.08	3016.95
440.26	3066.10
440.45	3218.24
440.63	3096.53
440.82	3208.87
441.01	3173.77
441.19	3159.72
441.38	3351.65
441.57	3211.22
441.75	3295.47
441.94	3276.75
442.12	3405.48
442.31	3410.16
442.50	3396.12
442.68	3382.07
442.87	3403.14
443.05	3412.50
443.24	3522.51
443.43	3489.74
443.61	3534.21
443.80	3400.80
443.98	3323.56
444.17	3421.86
444.35	3454.63
444.54	3719.11
444.73	3524.85
444.91	3602.08
445.10	3592.72
445.28	3372.71
445.47	3506.12
445.65	3599.74
445.84	3412.50
446.02	3520.17
446.21	3538.89
446.39	3588.04
446.58	3557.61
446.77	3606.77
446.95	3471.01
447.14	3686.34
447.32	3517.83
447.51	3646.55
447.69	3578.68
447.88	3534.21
448.06	3536.55
448.25	3611.45
448.43	3576.34
448.62	3548.25
448.80	3634.85
448.99	3545.91
449.17	3765.92
449.36	3700.39
449.54	3726.13
449.73	3737.84
449.91	3756.56
450.10	3651.24
450.28	3758.90
450.46	3878.27
450.65	3885.29
450.83	3669.96
451.02	3822.09
451.20	3782.31
451.39	3950.82
451.57	3829.12
451.76	3829.12
451.94	3824.44
452.13	3880.61
452.31	3964.87
452.49	3911.04
452.68	3854.86
452.86	3779.97
453.05	4067.85
453.23	3974.23
453.42	3941.46
453.60	3957.85
453.78	4025.72
453.97	3936.78
454.15	4177.86
454.34	3943.80
454.52	4079.55
454.70	3934.44
454.89	4290.20
455.07	4072.53
455.26	4138.07
455.44	4074.87
455.62	4287.86
455.81	4250.41
455.99	4276.16
456.17	4243.39
456.36	4334.67
456.54	4301.90
456.73	4386.16
456.91	4383.82
457.09	4395.53
457.28	4486.81
457.46	4381.48
457.64	4411.91
457.83	4437.66
458.01	4320.63
458.19	4491.49
458.38	4521.92
458.56	4510.21
458.74	4493.83
458.93	4526.60
459.11	4512.55
459.29	4465.74
459.48	4622.56
459.66	4575.75
459.84	4727.88
460.03	4669.37
460.21	4610.86
460.39	4676.39
460.57	4814.48
460.76	4737.24
460.94	4664.69
461.12	4819.16
461.31	4720.86
461.49	4652.98
461.67	4498.51
461.85	4854.27
462.04	4877.68
462.22	5114.07
462.40	4823.84
462.59	4880.02
462.77	4861.29
462.95	4830.87
463.13	4842.57
463.32	4957.25
463.50	4849.59
463.68	4903.42
463.86	4873.00
464.05	4870.65
464.23	4861.29
464.41	5177.26
464.59	4905.76
464.78	5114.07
464.96	5125.77
465.14	4985.34
465.32	5081.30
465.50	5254.50
465.69	5081.30
465.87	5111.73
466.05	5093.01
466.23	5104.71
466.41	5043.85
466.60	5273.23
466.78	5167.90
466.96	5118.75
467.14	5181.95
467.32	5167.90
467.51	5235.78
467.69	5132.79
467.87	5263.86
468.05	5233.44
468.23	5109.39
468.41	5238.12
468.60	5305.99
468.78	5313.02
468.96	5123.43
469.14	5341.10
469.32	5542.39
469.50	5317.70
469.69	5502.60
469.87	5467.49
470.05	5521.32
470.23	5509.62
470.41	5605.58
470.59	5537.71
470.77	5568.13
470.95	5678.14
471.14	5579.84
471.32	5575.16
471.50	5769.42
471.68	5610.26
471.86	5589.20
472.04	5720.27
472.22	5792.83
472.40	5937.94
472.58	5792.83
472.77	5912.19
472.95	5888.79
473.13	6085.39
473.31	5961.34
473.49	6005.81
473.67	6047.94
473.85	6094.76
474.03	6169.65
474.21	6043.26
474.39	6366.26
474.57	6120.50
474.75	6246.89
474.93	6471.58
475.12	6186.04
475.30	6258.59
475.48	6321.79
475.66	6319.45
475.84	6452.86
476.02	6670.53
476.20	6415.41
476.38	6614.35
476.56	6602.65
476.74	6689.25
476.92	6665.85
477.10	6663.51
477.28	6759.47
477.46	6675.21
477.64	6834.36
477.82	6939.69
478.00	7026.29
478.18	6953.73
478.36	7206.51
478.54	7307.15
478.72	7148.00
478.90	7454.61
479.08	7384.39
479.26	7372.69
479.44	7662.91
479.62	7606.74
479.80	7658.23
479.98	7543.55
480.16	7840.79
480.34	7688.66
480.52	7997.61
480.70	7889.95
480.88	7775.26
481.06	7875.90
481.24	7950.80
481.41	7880.58
481.59	8107.62
481.77	8098.25
481.95	8285.50
482.13	8383.80
482.31	8205.92
482.49	8521.89
482.67	8435.29
482.85	8477.42
483.03	8695.09
483.21	8641.26
483.39	8746.58
483.57	8777.01
483.74	8842.54
483.92	8793.39
484.10	8910.42
484.28	9118.73
484.46	9214.69
484.64	9298.95
484.82	9343.42
485.00	9317.67
485.18	9593.86
485.35	9521.30
485.53	9544.70
485.71	9727.27
485.89	10073.67
486.07	9961.32
486.25	9811.53
486.43	9858.34
486.61	9884.08
486.78	10083.03
486.96	10267.93
487.14	10310.06
487.32	10406.02
487.50	10328.78
487.68	10480.92
487.85	10600.29
488.03	10707.95
488.21	10796.89
488.39	10768.80
488.57	10967.75
488.75	10944.34
488.92	11112.86
489.10	11187.76
489.28	11077.76
489.46	11604.38
489.64	11276.70
489.81	11613.74
489.99	11538.84
490.17	11351.60
490.35	11653.53
490.53	11805.66
490.70	11988.22
490.88	11655.87
491.06	12219.94
491.24	12018.65
491.41	11833.75
491.59	12266.75
491.77	12322.92
491.95	12421.22
492.13	12582.72
492.30	12863.58
492.48	12884.65
492.66	12844.86
492.84	12594.42
493.01	13029.76
493.19	12535.91
493.37	13121.04
493.54	13163.17
493.72	13188.92
493.90	13128.06
494.08	13422.97
494.25	13504.89
494.43	13348.08
494.61	13603.19
494.79	13792.78
494.96	13584.47
495.14	13790.44
495.32	13935.55
495.49	13769.37
495.67	14125.13
495.85	14075.98
496.02	14078.32
496.20	14279.61
496.38	14469.19
496.55	14434.08
496.73	14562.81
496.91	14384.93
497.09	14602.60
497.26	14675.16
497.44	14565.15
497.62	14918.57
497.79	15059.01
497.97	15080.07
498.14	15227.53
498.32	15272.00
498.50	15159.65
498.67	15374.98
498.85	15276.68
499.03	15412.43
499.20	15594.99
499.38	15658.18
499.56	15583.29
499.73	15489.67
499.91	15693.29
500.08	16107.57
500.26	15803.30
500.44	16074.80
500.61	15939.05
500.79	16004.58
500.97	16203.53
501.14	16084.16
501.32	16105.23
501.49	16285.45
501.67	16191.83
501.84	16355.66
502.02	16521.84
502.20	16430.56
502.37	16561.63
502.55	16828.45
502.72	16706.74
502.90	16669.30
503.07	16496.10
503.25	16629.51
503.43	16634.19
503.60	16908.03
503.78	17247.41
503.95	16936.12
504.13	16854.20
504.30	17385.50
504.48	17170.17
504.65	17209.96
504.83	17458.06
505.01	17493.16
505.18	17701.47
505.36	17582.10
505.53	17720.20
505.71	17579.76
505.88	17657.00
506.06	17432.31
506.23	17942.55
506.41	17710.83
506.58	18005.74
506.76	18003.40
506.93	18064.25
507.11	17783.39
507.28	18008.08
507.46	18129.79
507.63	18171.92
507.81	18396.61
507.98	18061.91
508.16	18073.62
508.33	18298.31
508.50	18476.19
508.68	18501.93
508.85	18743.01
509.03	18565.13
509.20	18785.14
509.38	18731.31
509.55	18663.43
509.73	19063.66
509.90	18939.62
510.08	18750.03
510.25	18799.18
510.42	19119.84
510.60	19374.95
510.77	19159.63
510.95	19225.16
511.12	19297.72
511.30	19220.48
511.47	19360.91
511.64	19524.75
511.82	19583.26
511.99	19473.26
512.17	19578.58
512.34	19426.45
512.51	19655.82
512.69	19735.40
512.86	20009.24
513.04	19770.51
513.21	19932.00
513.38	19917.96
513.56	20037.33
513.73	20128.61
513.90	20095.84
514.08	20133.29
514.25	20194.14
514.43	20233.93
514.60	20425.86
514.77	20376.70
514.95	20678.63
515.12	20472.67
515.29	20423.51
515.47	20411.81
515.64	20620.12
515.81	20947.79
515.99	20992.26
516.16	20936.09
516.33	20912.69
516.51	21022.69
516.68	20807.36
516.85	20669.27
517.03	20861.19
517.20	20975.88
517.37	20966.52
517.54	21399.52
517.72	21296.53
517.89	21050.78
518.06	21099.93
518.24	21511.86
518.41	21326.96
518.58	21474.42
518.75	21404.20
518.93	21701.45
519.10	21514.20
519.27	21642.93
519.45	21649.96
519.62	21816.13
519.79	21523.57
519.96	21818.47
520.14	21844.22
520.31	21591.44
520.48	21666.34
520.65	21846.56
520.83	22031.46
521.00	21954.22
521.17	22031.46
521.34	22214.02
521.52	22431.69
521.69	22272.54
521.86	22338.07
522.03	22312.33
522.20	22375.52
522.38	22410.63
522.55	22300.62
522.72	22665.75
522.89	22457.44
523.07	23009.81
523.24	23035.55
523.41	23026.19
523.58	22637.66
523.75	22841.29
523.92	22590.85
524.10	22967.68
524.27	22850.65
524.44	23232.16
524.61	23133.86
524.78	23070.66
524.96	23293.01
525.13	23082.36
525.30	23180.67
525.47	23126.83
525.64	23456.85
525.81	23239.18
525.98	23456.85
526.16	23480.25
526.33	23253.22
526.50	23557.49
526.67	23353.87
526.84	23578.56
527.01	23510.68
527.18	23456.85
527.36	23735.37
527.53	23922.62
527.70	24091.13
527.87	23943.68
528.04	24037.30
528.21	24107.52
528.38	23988.15
528.55	24006.87
528.72	23971.77
528.89	24257.31
529.07	24079.43
529.24	24329.87
529.41	24224.54
529.58	23908.57
529.75	24044.32
529.92	24088.79
530.09	24184.76
530.26	24355.61
530.43	24603.71
530.60	24325.19
530.77	24297.10
530.94	24528.81
531.11	24556.90
531.28	24430.51
531.46	24587.33
531.63	24393.06
531.80	24725.42
531.97	24826.06
532.14	24699.67
532.31	24954.79
532.48	24898.62
532.65	24620.10
532.82	24622.44
532.99	24802.66
533.16	24624.78
533.33	25062.46
533.50	25137.35
533.67	25118.63
533.84	25369.07
534.01	25097.56
534.18	24985.22
534.35	25521.20
534.52	25137.35
534.69	25493.12
534.86	25685.04
535.03	25549.29
535.20	25418.22
535.37	25696.74
535.54	25607.80
535.71	25315.23
535.88	25284.81
536.05	25825.47
536.22	25558.65
536.38	26061.87
536.55	25867.60
536.72	25963.56
536.89	25544.61
537.06	25668.66
537.23	25806.75
537.40	25696.74
537.57	25724.83
537.74	26078.25
537.91	25783.34
538.08	26036.12
538.25	25656.95
538.42	26256.13
538.59	25979.95
538.75	25862.92
538.92	25900.37
539.09	26190.59
539.26	26008.03
539.43	26244.43
539.60	25977.61
539.77	26464.44
539.94	26581.46
540.11	26347.41
540.28	26340.39
540.44	26178.89
540.61	26316.98
540.78	26099.31
540.95	26375.50
541.12	26403.58
541.29	26534.65
541.46	26331.03
541.62	26548.70
541.79	26487.84
541.96	26431.67
542.13	26096.97
542.30	26621.25
542.47	26984.04
542.63	26969.99
542.80	27047.23
542.97	27094.04
543.14	27089.36
543.31	26651.68
543.48	27033.19
543.64	27461.51
543.81	27400.65
543.98	27367.88
544.15	27606.62
544.32	27728.33
544.48	27431.08
544.65	27023.83
544.82	27517.68
544.99	27400.65
545.16	27527.04
545.32	26892.76
545.49	27931.95
545.66	27407.67
545.83	27627.68
546.00	27601.94
546.16	27651.09
546.33	27552.79
546.50	27288.31
546.67	27662.79
546.83	27370.22
547.00	27826.63
547.17	28102.81
547.34	27828.97
547.50	28095.79
547.67	28048.98
547.84	27854.72
548.00	27920.25
548.17	27873.44
548.34	27765.78
548.51	28250.27
548.67	27896.85
548.84	28053.66
549.01	28077.07
549.18	28016.21
549.34	27819.61
549.51	28135.58
549.68	28425.81
549.84	27805.56
550.01	28236.22
550.18	28194.09
550.34	28627.09
550.51	28362.61
550.68	28669.22
550.84	28161.33
551.01	28037.28
551.18	28109.83
551.34	28479.64
551.51	28362.61
551.68	28386.02
551.84	28540.49
552.01	28290.06
552.18	28458.57
552.34	28755.82
552.51	28666.88
552.68	28697.31
552.84	28563.90
553.01	28858.81
553.18	28280.69
553.34	28980.51
553.51	28561.56
553.67	28891.57
553.84	29462.66
554.01	28858.81
554.17	28423.47
554.34	28975.83
554.51	28774.55
554.67	29434.58
554.84	29048.39
555.00	29043.71
555.17	29048.39
555.33	29488.41
555.50	28636.45
555.67	29001.58
555.83	28982.85
556.00	29221.59
556.16	29579.69
556.33	29237.97
556.50	29308.19
556.66	29160.73
556.83	29282.44
556.99	29486.07
557.16	29315.21
557.32	29465.00
557.49	29298.83
557.65	29151.37
557.82	29638.20
557.98	29347.98
558.15	29324.57
558.32	29748.21
558.48	29476.71
558.65	29324.57
558.81	29338.62
558.98	29511.81
559.14	29450.96
559.31	29345.64
559.47	29462.66
559.64	29549.26
559.80	29830.13
559.97	29649.91
560.13	29975.24
560.30	29621.82
560.46	29549.26
560.63	29666.29
560.79	29825.45
560.96	30089.93
561.12	29680.33
561.29	29708.42
561.45	29832.47
561.61	30071.20
561.78	29921.41
561.94	29647.57
562.11	30314.62
562.27	29778.64
562.44	29708.42
562.60	29823.11
562.77	29935.45
562.93	29839.49
563.10	30574.42
563.26	29680.33
563.42	30377.81
563.59	30223.34
563.75	29898.00
563.92	30125.04
564.08	29825.45
564.24	30115.67
564.41	30125.04
564.57	30092.27
564.74	30298.23
564.90	30281.85
565.07	30632.93
565.23	30169.51
565.39	30129.72
565.56	30099.29
565.72	30239.72
565.88	29930.77
566.05	30000.99
566.21	29968.22
566.38	30359.09
566.54	30164.82
566.70	30000.99
566.87	30483.14
567.03	30185.89
567.19	30579.10
567.36	30478.46
567.52	30136.74
567.68	30672.72
567.85	30141.42
568.01	30567.40
568.17	30305.26
568.34	30670.38
568.50	30756.98
568.66	30326.32
568.83	30658.68
568.99	30190.57
569.15	30331.00
569.32	30588.46
569.48	30394.20
569.64	30174.19
569.81	30288.87
569.97	30391.86
570.13	30581.44
570.30	30403.56
570.46	30555.69
570.62	30366.11
570.78	30391.86
570.95	30522.93
571.11	30871.67
571.27	30342.70
571.43	30375.47
571.60	30373.13
571.76	30705.49
571.92	30724.21
572.09	30892.73
572.25	30471.43
572.41	30654.00
572.57	30370.79
572.74	30522.93
572.90	30494.84
573.06	30520.59
573.22	30642.29
573.38	30717.19
573.55	30632.93
573.71	30728.89
573.87	30799.11
574.03	30806.13
574.20	30595.48
574.36	30321.64
574.52	30525.27
574.68	30703.15
574.84	30785.07
575.01	30810.81
575.17	30684.42
575.33	30897.41
575.49	30789.75
575.65	30707.83
575.82	31122.10
575.98	30300.58
576.14	30859.96
576.30	30827.20
576.46	30682.08
576.62	30658.68
576.79	30813.15
576.95	30539.31
577.11	30309.94
577.27	31101.04
577.43	30698.47
577.59	30906.77
577.75	30815.49
577.92	30724.21
578.08	30717.19
578.24	30834.22
578.40	30705.49
578.56	30621.23
578.72	30817.83
578.88	31117.42
579.04	31370.20
579.21	30459.73
579.37	30775.70
579.53	31241.47
579.69	30426.96
579.85	30693.79
580.01	30878.69
580.17	30796.77
580.33	30628.25
580.49	30902.09
580.65	30991.03
580.82	30899.75
580.98	30885.71
581.14	31030.82
581.30	30717.19
581.46	30794.43
581.62	31126.78
581.78	31033.16
581.94	30855.28
582.10	30698.47
582.26	30993.37
582.42	30600.16
582.58	31129.12
582.74	30981.67
582.90	30967.63
583.06	31075.29
583.22	30904.43
583.38	30625.91
583.54	30738.26
583.70	31246.15
583.86	30881.03
584.02	30806.13
584.18	30878.69
584.34	31049.55
584.50	30927.84
584.66	30909.11
584.82	30939.54
584.98	30932.52
585.14	31049.55
585.30	30838.90
585.46	31089.34
585.62	30810.81
585.78	30841.24
585.94	30543.99
586.10	31297.64
586.26	30778.04
586.42	31042.53
586.58	31229.77
586.74	31220.41
586.90	30962.95
587.06	31021.46
587.22	31070.61
587.38	30852.94
587.54	31054.23
587.70	31323.39
587.86	31140.83
588.02	30995.71
588.18	31356.16
588.34	31061.25
588.49	31189.98
588.65	31274.24
588.81	30897.41
588.97	31129.12
589.13	30822.51
589.29	31496.59
589.45	30888.05
589.61	31367.86
589.77	31304.67
589.93	31257.85
590.08	31449.78
590.24	31512.97
590.40	31136.15
590.56	31335.09
590.72	31529.36
590.88	31112.74
591.04	31211.04
591.20	31999.80
591.35	31866.39
591.51	31709.58
591.67	31271.90
591.83	31709.58
591.99	31482.55
592.15	31454.46
592.31	30991.03
592.46	31431.05
592.62	31246.15
592.78	31388.92
592.94	31384.24
593.10	31737.66
593.26	31644.04
593.41	31255.51
593.57	31358.50
593.73	31335.09
593.89	31615.96
594.05	31491.91
594.20	31519.99
594.36	31527.02
594.52	31571.49
594.68	31255.51
594.84	31747.03
594.99	31494.25
595.15	31431.05
595.31	31964.70
595.47	31541.06
595.62	31798.52
595.78	31594.89
595.94	31470.84
596.10	31571.49
596.25	31519.99
596.41	31239.13
596.57	31007.42
596.73	31377.22
596.88	31522.34
597.04	31648.72
597.20	31920.23
597.36	31648.72
597.51	31468.50
597.67	31391.26
597.83	31318.71
597.99	31718.94
598.14	31424.03
598.30	31374.88
598.46	31405.31
598.61	31854.69
598.77	31503.61
598.93	31243.81
599.09	32048.96
599.24	32250.24
599.40	31505.95
599.56	31824.26
599.71	31999.80
599.87	31648.72
600.03	31709.58
600.18	31517.65
600.34	31508.29
600.50	31655.75
600.65	31419.35
600.81	31646.38
600.97	31709.58
601.12	31842.99
601.28	32105.13
601.44	32107.47
601.59	31704.90
601.75	31648.72
601.91	31840.65
602.06	31393.61
602.22	32051.30
602.37	31669.79
602.53	31527.02
602.69	31688.51
602.84	31510.63
603.00	31894.48
603.16	31859.37
603.31	31599.57
603.47	31817.24
603.62	31723.62
603.78	31630.00
603.94	31208.70
604.09	31543.40
604.25	31295.30
604.40	31267.22
604.56	32018.53
604.71	31789.16
604.87	31578.51
605.03	31969.38
605.18	31721.28
605.34	31831.29
605.49	31615.96
605.65	31534.04
605.80	31466.16
605.96	32011.51
606.12	31732.98
606.27	31892.14
606.43	31482.55
606.58	31828.95
606.74	31578.51
606.89	31761.07
607.05	32112.15
607.20	31810.22
607.36	31716.60
607.51	31580.85
607.67	31344.45
607.82	31171.25
607.98	31807.88
608.13	31456.80
608.29	31426.37
608.44	31332.75
608.60	31267.22
608.75	31562.12
608.91	31473.18
609.06	31398.29
609.22	31725.96
609.37	31456.80
609.53	31344.45
609.68	31159.55
609.84	31524.68
609.99	31276.58
610.15	30937.20
610.30	31407.65
610.46	31159.55
610.61	31234.45
610.76	31445.10
610.92	31356.16
611.07	31353.82
611.23	31138.49
611.38	31147.85
611.54	31159.55
611.69	31255.51
611.84	31412.33
612.00	31178.28
612.15	30946.56
612.31	31332.75
612.46	31438.08
612.62	30981.67
612.77	31267.22
612.92	31452.12
613.08	31094.02
613.23	30801.45
613.39	30806.13
613.54	31145.51
613.69	30955.93
613.85	31351.48
614.00	31147.85
614.15	31161.89
614.31	30960.61
614.46	31309.35
614.62	31234.45
614.77	31328.07
614.92	30906.77
615.08	30778.04
615.23	30913.80
615.38	31138.49
615.54	31098.70
615.69	30801.45
615.84	30277.17
616.00	30937.20
616.15	30974.65
616.30	31007.42
616.46	30995.71
616.61	30803.79
616.76	30960.61
616.92	30728.89
617.07	30810.81
617.22	31211.04
617.37	30340.36
617.53	31115.08
617.68	30944.22
617.83	30775.70
617.99	30249.08
618.14	31063.59
618.29	30747.62
618.45	30567.40
618.60	30820.17
618.75	30520.59
618.90	30377.81
619.06	30684.42
619.21	30859.96
619.36	30644.63
619.51	30679.74
619.67	30572.08
619.82	30513.56
619.97	30457.39
620.12	30272.49
620.28	30436.33
620.43	30616.55
620.58	30560.37
620.73	30445.69
620.89	30490.16
621.04	30789.75
621.19	30511.22
621.34	30785.07
621.49	30249.08
621.65	30497.18
621.80	30448.03
621.95	30195.25
622.10	30384.83
622.25	29898.00
622.41	30270.15
622.56	29965.88
622.71	30309.94
622.86	30323.98
623.01	30424.62
623.16	30024.39
623.32	30373.13
623.47	30546.33
623.62	30094.61
623.77	30061.84
623.92	30370.79
624.07	30188.23
624.23	30211.64
624.38	30127.38
624.53	30059.50
624.68	30223.34
624.83	30110.99
624.98	30064.18
625.13	30047.80
625.29	30363.77
625.44	30068.86
625.59	29860.55
625.74	30094.61
625.89	29635.86
626.04	29951.84
626.19	29570.33
626.34	29596.07
626.49	29507.13
626.65	29469.69
626.80	30000.99
626.95	30024.39
627.10	30134.40
627.25	29666.29
627.40	29666.29
627.55	29390.11
627.70	29542.24
627.85	29556.28
628.00	29776.30
628.15	29460.32
628.30	29666.29
628.45	29345.64
628.60	29537.56
628.76	29467.34
628.91	29699.06
629.06	29202.86
629.21	29638.20
629.36	29369.04
629.51	29326.91
629.66	29462.66
629.81	29624.16
629.96	29113.92
630.11	29256.70
630.26	28807.31
630.41	29252.02
630.56	29446.28
630.71	29006.26
630.86	29120.95
631.01	29228.61
631.16	29427.56
631.31	29106.90
631.46	28938.38
631.61	29434.58
631.76	28863.49
631.91	29083.50
632.06	29046.05
632.21	29010.94
632.36	28987.53
632.51	28854.12
632.66	28896.25
632.81	28680.92
632.96	29317.55
633.10	29495.43
633.25	29015.62
633.40	28933.70
633.55	29172.44
633.70	28613.05
633.85	28978.17
634.00	28683.27
634.15	28896.25
634.30	28477.30
634.45	28711.35
634.60	28690.29
634.75	28615.39
634.90	28610.71
635.05	29067.11
635.19	29146.69
635.34	29289.46
635.49	29104.56
635.64	28645.82
635.79	28837.74
635.94	28669.22
636.09	28458.57
636.24	28627.09
636.39	28477.30
636.53	28294.74
636.68	28577.94
636.83	28669.22
636.98	28559.22
637.13	28442.19
637.28	28851.78
637.43	28503.04
637.57	28603.69
637.72	28418.78
637.87	28280.69
638.02	28500.70
638.17	28510.07
638.32	28210.48
638.46	28460.91
638.61	28453.89
638.76	28334.53
638.91	28367.29
639.06	28460.91
639.20	27948.34
639.35	28662.20
639.50	28290.06
639.65	28526.45
639.80	28353.25
639.94	28245.58
640.09	28339.21
640.24	28376.66
640.39	28009.19
640.54	27828.97
640.68	28236.22
640.83	28023.23
640.98	27700.24
641.13	27903.87
641.27	28257.29
641.42	28107.49
641.57	28231.54
641.72	27983.44
641.86	27744.71
642.01	27695.56
642.16	27929.61
642.31	27946.00
642.45	27960.04
642.60	28032.60
642.75	28112.17
642.90	27821.95
643.04	27482.57
643.19	27763.43
643.34	27850.03
643.48	27613.64
643.63	27985.79
643.78	27651.09
643.93	27669.81
644.07	28044.30
644.22	27934.29
644.37	28168.35
644.51	27845.35
644.66	27999.83
644.81	27360.86
644.95	27534.06
645.10	27449.80
645.25	27683.86
645.39	27747.05
645.54	27927.27
645.69	27501.29
645.83	27505.98
645.98	27323.41
646.13	27824.29
646.27	27611.30
646.42	27594.92
646.57	27552.79
646.71	27765.78
646.86	27473.21
647.00	27370.22
647.15	27342.14
647.30	27264.90
647.44	27175.96
647.59	27274.26
647.74	27264.90
647.88	27133.83
648.03	27527.04
648.17	27419.38
648.32	27377.25
648.47	27571.51
648.61	27260.22
648.76	27391.29
648.90	27246.18
649.05	27620.66
649.20	27042.55
649.34	27084.68
649.49	27208.73
649.63	27150.21
649.78	27065.96
649.92	26962.97
650.07	27281.28
650.21	26995.74
650.36	27274.26
650.51	27314.05
650.65	26897.44
650.80	26883.39
650.94	27044.89
651.09	26984.04
651.23	26848.29
651.38	26806.16
651.52	26689.13
651.67	26958.29
651.81	26532.31
651.96	26829.56
652.10	26965.31
652.25	26876.37
652.39	26843.60
652.54	26857.65
652.68	26590.83
652.83	27117.45
652.97	27089.36
653.12	26881.05
653.26	26747.64
653.41	26913.82
653.55	26693.81
653.70	26452.73
653.84	26267.83
653.99	26356.77
654.13	26504.23
654.27	26647.00
654.42	26581.46
654.56	26480.82
654.71	26600.19
654.85	26558.06
655.00	26656.36
655.14	26827.22
655.29	26281.88
655.43	26644.66
655.57	26639.98
655.72	26441.03
655.86	26604.87
656.01	26455.08
656.15	26183.57
656.30	26373.16
656.44	26548.70
656.58	26237.41
656.73	26211.66
656.87	26462.10
657.01	26354.43
657.16	26419.97
657.30	26235.06
657.45	26267.83
657.59	25947.18
657.73	25968.24
657.88	26125.06
658.02	26001.01
658.16	26153.15
658.31	26068.89
658.45	26132.08
658.60	25860.58
658.74	25972.92
658.88	25930.80
659.03	25909.73
659.17	25659.29
659.31	26260.81
659.46	25652.27
659.60	26125.06
659.74	25699.08
659.89	25848.88
660.03	25661.63
660.17	25539.93
660.32	25558.65
660.46	25848.88
660.60	25642.91
660.74	25472.05
660.89	25596.10
661.03	25184.16
661.17	25479.07
661.32	25219.27
661.46	25308.21
661.60	25364.39
661.74	25537.59
661.89	25369.07
662.03	25610.14
662.17	25415.88
662.31	25228.63
662.46	25149.06
662.60	25411.20
662.74	25083.52
662.88	25071.82
663.03	24875.21
663.17	24891.60
663.31	24797.98
663.45	25106.93
663.60	24907.98
663.74	25017.99
663.88	25081.18
664.02	25039.05
664.17	24947.77
664.31	24828.40
664.45	25076.50
664.59	25013.31
664.73	24624.78
664.88	24903.30
665.02	24346.25
665.16	24666.91
665.30	24250.29
665.44	24465.62
665.59	24343.91
665.73	24318.17
665.87	24493.71
666.01	24257.31
666.15	24474.98
666.29	24159.01
666.44	24589.67
666.58	24474.98
666.72	24409.45
666.86	24301.78
667.00	24240.93
667.14	23934.32
667.28	23962.40
667.43	24013.90
667.57	24390.72
667.71	23971.77
667.85	24133.26
667.99	23601.96
668.13	23545.79
668.27	23702.61
668.41	23798.57
668.56	23754.10
668.70	23747.08
668.84	23960.06
668.98	23868.78
669.12	23744.73
669.26	23850.06
669.40	23690.90
669.54	23754.10
669.68	23646.43
669.82	23138.54
669.96	23433.44
670.10	23442.81
670.25	23187.69
670.39	23379.61
670.53	23126.83
670.67	23229.82
670.81	23211.09
670.95	23398.34
671.09	23243.86
671.23	23323.44
671.37	23314.08
671.51	22850.65
671.65	23316.42
671.79	23213.43
671.93	22918.53
672.07	22850.65
672.21	22967.68
672.35	22548.72
672.49	22469.14
672.63	22864.69
672.77	22691.49
672.91	22665.75
673.05	22766.39
673.19	22537.02
673.33	22506.59
673.47	22464.46
673.61	22480.85
673.75	22663.41
673.89	22396.59
674.03	22340.41
674.17	22382.54
674.31	22230.41
674.45	22237.43
674.59	21914.44
674.73	22284.24
674.87	22136.79
675.01	21874.65
675.15	21802.09
675.29	21839.54
675.43	22029.12
675.56	21802.09
675.70	22026.78
675.84	21715.49
675.98	21041.42
676.12	21678.04
676.26	21752.94
676.40	21898.05
676.54	21593.78
676.68	21362.07
676.82	20884.60
676.96	21184.19
677.10	20905.66
677.23	21106.95
677.37	21048.44
677.51	20823.75
677.65	20950.14
677.79	21097.59
677.93	20903.32
678.07	20685.65
678.21	20898.64
678.34	20730.12
678.48	20688.00
678.62	20432.88
678.76	20601.40
678.90	20313.51
679.04	20636.50
679.18	20425.86
679.31	20065.41
679.45	20334.57
679.59	19908.60
679.73	20018.60
679.87	19700.29
680.00	20034.99
680.14	19859.45
680.28	20205.84
680.42	19864.13
680.56	20081.80
680.70	19962.43
680.83	19777.53
680.97	19850.08
681.11	19819.66
681.25	19601.99
681.39	19529.43
681.52	19433.47
681.66	19297.72
681.80	19302.40
681.94	19070.68
682.07	19157.28
682.21	18803.86
682.35	18946.64
682.49	18658.75
682.62	18906.85
682.76	18848.33
682.90	18831.95
683.04	18890.46
683.17	19040.26
683.31	18892.80
683.45	18981.74
683.59	18897.49
683.72	18726.63
683.86	18253.84
684.00	18637.69
684.13	18403.63
684.27	18363.84
684.41	18087.66
684.55	18090.00
684.68	17825.52
684.82	17909.78
684.96	18139.15
685.09	17797.43
685.23	17710.83
685.37	17617.21
685.50	17825.52
685.64	17607.85
685.78	17699.13
685.91	17935.53
686.05	17680.41
686.19	17666.36
686.32	17706.15
686.46	17144.42
686.60	17193.58
686.73	17191.23
686.87	17083.57
687.01	17118.68
687.14	17156.13
687.28	16835.47
687.42	17184.21
687.55	16573.33
687.69	16765.26
687.82	16819.09
687.96	16903.35
688.10	16730.15
688.23	16844.84
688.37	16528.86
688.50	16624.83
688.64	16681.00
688.78	16421.20
688.91	16439.92
689.05	16343.96
689.18	16350.98
689.32	16006.92
689.46	15971.82
689.59	16065.44
689.73	15976.50
689.86	16093.52
690.00	15875.85
690.13	16156.72
690.27	15704.99
690.41	15946.07
690.54	15953.09
690.68	16123.95
690.81	15749.46
690.95	15793.94
691.08	15765.85
691.22	15583.29
691.35	15466.26
691.49	15295.40
691.62	15197.10
691.76	15426.47
691.89	14984.11
692.03	15014.54
692.16	15206.46
692.30	15187.74
692.43	15021.56
692.57	14803.89
692.70	15014.54
692.84	14841.34
692.97	14869.42
693.11	14609.62
693.24	14654.09
693.38	14792.19
693.51	14583.88
693.65	14733.67
693.78	14469.19
693.92	14457.49
694.05	14553.45
694.19	14340.46
694.32	14251.52
694.45	14108.75
694.59	14150.88
694.72	13757.67
694.86	13963.64
694.99	13984.70
695.13	14043.21
695.26	13720.22
695.39	13855.97
695.53	13809.16
695.66	13923.85
695.80	13837.25
695.93	13694.47
696.07	13558.72
696.20	13582.13
696.33	13680.43
696.47	13556.38
696.60	13102.32
696.73	13277.86
696.87	13186.58
697.00	13022.74
697.14	12975.93
697.27	12961.89
697.40	12821.45
697.54	12828.48
697.67	12650.60
697.80	12868.27
697.94	12524.21
698.07	12781.67
698.21	12744.22
698.34	12503.14
698.47	12713.79
698.61	12521.87
698.74	12453.99
698.87	12571.02
699.01	12636.55
699.14	12166.10
699.27	12596.76
699.40	12161.42
699.54	12060.78
699.67	12210.57
699.80	12287.81
699.94	12173.13
700.07	12091.21
700.20	11758.85
700.34	11730.76
700.47	11843.11
700.60	11901.62
700.73	11779.92
700.87	11655.87
701.00	11653.53
701.13	11796.30
701.26	11578.63
701.40	11889.92
701.53	11676.93
701.66	11676.93
701.79	11349.26
701.93	11372.66
702.06	11204.14
702.19	11229.89
702.32	11073.07
702.46	11269.68
702.59	10904.56
702.72	10824.98
702.85	10878.81
702.99	10993.50
703.12	10951.37
703.25	10766.46
703.38	10757.10
703.51	10686.89
703.65	10712.63
703.78	10675.18
703.91	10714.97
704.04	10693.91
704.17	10766.46
704.31	10399.00
704.44	10466.88
704.57	10317.08
704.70	10284.31
704.83	10193.03
704.96	10382.62
705.10	10026.86
705.23	10080.69
>>>>>End Processed Spectral Data<<<<<
