SpectraSuite Data File
++++++++++++++++++++++++++++++++++++
Date: Fri Oct 18 13:58:39 GMT-05:00 2013
User: bianchi
Dark Spectrum Present: No
Reference Spectrum Present: No
Number of Sampled Component Spectra: 1
Spectrometers: USB2+H05261
Integration Time (usec): 50000 (USB2+H05261)
Spectra Averaged: 1 (USB2+H05261)
Boxcar Smoothing: 0 (USB2+H05261)
Correct for Electrical Dark: No (USB2+H05261)
Strobe/Lamp Enabled: No (USB2+H05261)
Correct for Detector Non-linearity: No (USB2+H05261)
Correct for Stray Light: No (USB2+H05261)
Number of Pixels in Processed Spectrum: 2048
>>>>>Begin Processed Spectral Data<<<<<
365.73	0.00
365.92	0.00
366.12	0.00
366.32	0.00
366.52	0.00
366.72	0.00
366.91	0.00
367.11	0.00
367.31	0.00
367.51	0.00
367.70	0.00
367.90	0.00
368.10	0.00
368.30	0.00
368.49	0.00
368.69	0.00
368.89	0.00
369.09	0.00
369.28	0.00
369.48	0.00
369.68	0.00
369.87	0.00
370.07	0.00
370.27	0.00
370.47	0.00
370.66	98.30
370.86	98.30
371.06	177.88
371.25	173.20
371.45	114.69
371.65	191.92
371.84	145.11
372.04	65.54
372.24	142.77
372.44	149.79
372.63	210.65
372.83	184.90
373.03	117.03
373.22	189.58
373.42	217.67
373.62	194.26
373.81	191.92
374.01	203.63
374.21	252.78
374.40	262.14
374.60	159.16
374.79	259.80
374.99	215.33
375.19	212.99
375.38	241.08
375.58	203.63
375.78	287.89
375.97	217.67
376.17	264.48
376.37	266.82
376.56	283.20
376.76	320.65
376.95	306.61
377.15	163.84
377.35	229.37
377.54	252.78
377.74	262.14
377.93	276.18
378.13	290.23
378.33	297.25
378.52	248.10
378.72	292.57
378.91	358.10
379.11	271.50
379.31	311.29
379.50	299.59
379.70	322.99
379.89	346.40
380.09	327.68
380.28	390.87
380.48	241.08
380.68	332.36
380.87	278.52
381.07	358.10
381.26	327.68
381.46	344.06
381.65	351.08
381.85	369.80
382.04	306.61
382.24	344.06
382.43	346.40
382.63	404.91
382.83	400.23
383.02	411.93
383.22	318.31
383.41	362.78
383.61	393.21
383.80	407.25
384.00	386.19
384.19	360.44
384.39	386.19
384.58	397.89
384.78	334.70
384.97	414.27
385.17	367.46
385.36	311.29
385.56	451.72
385.75	360.44
385.95	414.27
386.14	472.79
386.34	447.04
386.53	407.25
386.72	390.87
386.92	416.62
387.11	374.49
387.31	454.06
387.50	402.57
387.70	428.32
387.89	400.23
388.09	423.64
388.28	482.15
388.48	465.77
388.67	463.43
388.86	461.09
389.06	512.58
389.25	458.74
389.45	484.49
389.64	468.11
389.84	418.96
390.03	421.30
390.22	442.36
390.42	414.27
390.61	498.53
390.81	505.56
391.00	472.79
391.19	512.58
391.39	503.22
391.58	545.34
391.78	472.79
391.97	561.73
392.16	557.05
392.36	547.69
392.55	540.66
392.75	482.15
392.94	540.66
393.13	507.90
393.33	533.64
393.52	587.47
393.71	512.58
393.91	585.13
394.10	580.45
394.29	575.77
394.49	610.88
394.68	533.64
394.88	582.79
395.07	653.01
395.26	631.94
395.46	620.24
395.65	599.18
395.84	514.92
396.04	643.65
396.23	608.54
396.42	660.03
396.62	634.29
396.81	681.10
397.00	641.31
397.19	645.99
397.39	674.07
397.58	676.41
397.77	643.65
397.97	622.58
398.16	674.07
398.35	697.48
398.55	660.03
398.74	725.57
398.93	627.26
399.12	681.10
399.32	657.69
399.51	622.58
399.70	716.20
399.90	809.83
400.09	830.89
400.28	779.40
400.47	833.23
400.67	788.76
400.86	734.93
401.05	702.16
401.24	692.80
401.44	898.77
401.63	842.59
401.82	847.27
402.01	791.10
402.21	760.67
402.40	835.57
402.59	812.17
402.78	854.30
402.97	830.89
403.17	887.06
403.36	884.72
403.55	770.04
403.74	842.59
403.93	931.53
404.13	889.40
404.32	786.42
404.51	847.27
404.70	917.49
404.89	777.06
405.09	884.72
405.28	858.98
405.47	868.34
405.66	903.45
405.85	968.98
406.05	873.02
406.24	985.37
406.43	936.21
406.62	1057.92
406.81	1001.75
407.00	990.05
407.20	990.05
407.39	947.92
407.58	1100.05
407.77	1069.62
407.96	1090.69
408.15	1046.22
408.34	1039.20
408.54	997.07
408.73	1149.20
408.92	1083.67
409.11	1060.26
409.30	1057.92
409.49	1139.84
409.68	1076.65
409.87	1142.18
410.07	1153.88
410.26	1132.82
410.45	1142.18
410.64	1121.12
410.83	1203.04
411.02	1233.46
411.21	1186.65
411.40	1275.59
411.59	1247.51
411.78	1212.40
411.98	1235.80
412.17	1172.61
412.36	1387.94
412.55	1355.17
412.74	1317.72
412.93	1423.05
413.12	1224.10
413.31	1446.45
413.50	1369.21
413.69	1289.64
413.88	1348.15
414.07	1467.52
414.26	1561.14
414.45	1409.00
414.64	1460.49
414.83	1535.39
415.02	1565.82
415.22	1446.45
415.41	1577.52
415.60	1500.28
415.79	1528.37
415.98	1610.29
416.17	1689.87
416.36	1533.05
416.55	1696.89
416.74	1699.23
416.93	1767.10
417.12	1678.16
417.31	1551.78
417.50	1739.02
417.69	1790.51
417.88	1661.78
418.07	1748.38
418.26	1823.28
418.45	1666.46
418.64	1806.89
418.83	1820.94
419.02	1729.66
419.21	1804.55
419.39	1802.21
419.58	1795.19
419.77	1753.06
419.96	1844.34
420.15	1881.79
420.34	1923.92
420.53	1942.64
420.72	1954.35
420.91	1902.86
421.10	1842.00
421.29	1963.71
421.48	1891.15
421.67	1877.11
421.86	1898.17
422.05	1959.03
422.24	2008.18
422.43	1977.75
422.61	1923.92
422.80	1921.58
422.99	2038.61
423.18	2045.63
423.37	2125.21
423.56	2026.90
423.75	1860.73
423.94	1996.48
424.13	1884.13
424.32	1863.07
424.50	2087.76
424.69	2094.78
424.88	2043.29
425.07	1907.54
425.26	2052.65
425.45	2076.06
425.64	1996.48
425.83	2092.44
426.01	1975.41
426.20	1973.07
426.39	2169.68
426.58	2050.31
426.77	2073.71
426.96	2064.35
427.15	1930.94
427.33	2097.12
427.52	2094.78
427.71	2162.66
427.90	2099.46
428.09	2183.72
428.28	2069.03
428.46	2258.62
428.65	2195.42
428.84	2317.13
429.03	2176.70
429.22	2134.57
429.40	2256.28
429.59	2282.02
429.78	2218.83
429.97	2090.10
430.16	2275.00
430.34	2293.72
430.53	2389.69
430.72	2223.51
430.91	2326.49
431.10	2359.26
431.28	2279.68
431.47	2396.71
431.66	2436.50
431.85	2312.45
432.03	2377.98
432.22	2478.63
432.41	2363.94
432.60	2389.69
432.79	2403.73
432.97	2443.52
433.16	2349.90
433.35	2427.14
433.54	2478.63
433.72	2434.16
433.91	2530.12
434.10	2530.12
434.28	2377.98
434.47	2389.69
434.66	2523.10
434.85	2551.18
435.03	2497.35
435.22	2569.91
435.41	2731.41
435.59	2518.42
435.78	2628.42
435.97	2729.06
436.16	2710.34
436.34	2612.04
436.53	2649.49
436.72	2715.02
436.90	2579.27
437.09	2656.51
437.28	2684.59
437.46	2745.45
437.65	2609.70
437.84	2883.54
438.02	2649.49
438.21	2780.56
438.40	2719.70
438.58	2848.43
438.77	2925.67
438.96	2855.45
439.14	2853.11
439.33	2834.39
439.52	2920.99
439.70	3012.27
439.89	3012.27
440.08	2991.20
440.26	3094.19
440.45	3124.62
440.63	3077.80
440.82	3049.72
441.01	3009.93
441.19	3267.39
441.38	3192.49
441.57	3225.26
441.75	3286.11
441.94	3454.63
442.12	3227.60
442.31	3293.13
442.50	3089.51
442.68	3253.34
442.87	3279.09
443.05	3258.03
443.24	3325.90
443.43	3351.65
443.61	3363.35
443.80	3541.23
443.98	3342.28
444.17	3229.94
444.35	3419.52
444.54	3578.68
444.73	3421.86
444.91	3447.61
445.10	3424.20
445.28	3524.85
445.47	3337.60
445.65	3440.59
445.84	3485.06
446.02	3489.74
446.21	3545.91
446.39	3506.12
446.58	3543.57
446.77	3630.17
446.95	3428.88
447.14	3414.84
447.32	3424.20
447.51	3447.61
447.69	3456.97
447.88	3599.74
448.06	3398.46
448.25	3466.33
448.43	3461.65
448.62	3571.66
448.80	3534.21
448.99	3595.06
449.17	3576.34
449.36	3559.95
449.54	3676.98
449.73	3641.87
449.91	3581.02
450.10	3742.52
450.28	3658.26
450.46	3662.94
450.65	3609.11
450.83	3829.12
451.02	3688.68
451.20	3885.29
451.39	3868.91
451.57	3536.55
451.76	3852.52
451.94	3805.71
452.13	3798.69
452.31	3796.35
452.49	3899.33
452.68	3840.82
452.86	3751.88
453.05	3906.35
453.23	3911.04
453.42	3922.74
453.60	3859.54
453.78	3798.69
453.97	3880.61
454.15	4021.04
454.34	3911.04
454.52	3971.89
454.70	3997.64
454.89	4060.83
455.07	3906.35
455.26	4037.42
455.44	4140.41
455.62	3934.44
455.81	4053.81
455.99	4074.87
456.17	4084.23
456.36	4121.68
456.54	4173.18
456.73	4252.75
456.91	4154.45
457.09	4180.20
457.28	4229.35
457.46	4161.47
457.64	4264.46
457.83	4250.41
458.01	4332.33
458.19	4362.76
458.38	4241.05
458.56	4449.36
458.74	4472.76
458.93	4484.47
459.11	4395.53
459.29	4372.12
459.48	4461.06
459.66	4486.81
459.84	4547.66
460.03	4496.17
460.21	4315.95
460.39	4550.00
460.57	4440.00
460.76	4519.57
460.94	4589.79
461.12	4652.98
461.31	4489.15
461.49	4692.77
461.67	4435.32
461.85	4620.22
462.04	4865.97
462.22	4793.42
462.40	4835.55
462.59	4762.99
462.77	4706.82
462.95	4662.35
463.13	4858.95
463.32	4786.40
463.50	4959.60
463.68	4961.94
463.86	4802.78
464.05	4793.42
464.23	4699.80
464.41	4957.25
464.59	4723.20
464.78	4770.01
464.96	4781.71
465.14	4844.91
465.32	4903.42
465.50	5015.77
465.69	4870.65
465.87	4999.38
466.05	5029.81
466.23	5060.24
466.41	4999.38
466.60	5203.01
466.78	4933.85
466.96	5043.85
467.14	5011.09
467.32	4959.60
467.51	5116.41
467.69	5004.07
467.87	4966.62
468.05	5118.75
468.23	5081.30
468.41	5179.61
468.60	5078.96
468.78	5219.39
468.96	5118.75
469.14	5200.67
469.32	5254.50
469.50	5301.31
469.69	5338.76
469.87	5242.80
470.05	5460.47
470.23	5423.02
470.41	5387.91
470.59	5350.46
470.77	5448.77
470.95	5540.05
471.14	5533.03
471.32	5509.62
471.50	5458.13
471.68	5474.51
471.86	5472.17
472.04	5689.84
472.22	5701.54
472.40	5371.53
472.58	5678.14
472.77	5643.03
472.95	5762.40
473.13	5966.03
473.31	5797.51
473.49	5694.52
473.67	5923.90
473.85	5799.85
474.03	6104.12
474.21	5956.66
474.39	6010.50
474.57	6061.99
474.75	6183.70
474.93	6122.84
475.12	6092.41
475.30	6373.28
475.48	5989.43
475.66	6087.73
475.84	6239.87
476.02	6403.71
476.20	6239.87
476.38	6389.66
476.56	6478.60
476.74	6438.81
476.92	6436.47
477.10	6537.12
477.28	6705.63
477.46	6705.63
477.64	6665.85
477.82	6602.65
478.00	6836.70
478.18	6988.84
478.36	6895.22
478.54	6920.96
478.72	7030.97
478.90	7131.61
479.08	7096.50
479.26	7148.00
479.44	7363.33
479.62	7363.33
479.80	7229.91
479.98	7342.26
480.16	7363.33
480.34	7370.35
480.52	7548.23
480.70	7819.73
480.88	7648.87
481.06	7669.94
481.24	7686.32
481.41	7789.30
481.59	8077.19
481.77	8032.72
481.95	7911.01
482.13	7985.91
482.31	7815.05
482.49	8266.77
482.67	8315.92
482.85	8383.80
483.03	8299.54
483.21	8393.16
483.39	8725.52
483.57	8767.65
483.74	8837.86
483.92	8533.59
484.10	8524.23
484.28	9006.38
484.46	9050.85
484.64	9329.38
484.82	9177.24
485.00	9324.69
485.18	9430.02
485.35	9390.23
485.53	9261.50
485.71	9584.49
485.89	9575.13
486.07	9568.11
486.25	9490.87
486.43	9689.82
486.61	9837.27
486.78	9942.60
486.96	10022.17
487.14	9930.89
487.32	10080.69
487.50	10068.98
487.68	9977.70
487.85	10232.82
488.03	10497.30
488.21	10520.71
488.39	10560.50
488.57	10565.18
488.75	10441.13
488.92	10731.36
489.10	10871.79
489.28	10923.28
489.46	11000.52
489.64	10960.73
489.81	11206.48
489.99	11276.70
490.17	11428.84
490.35	11384.37
490.53	11342.24
490.70	11611.40
490.88	11604.38
491.06	11817.36
491.24	11765.87
491.41	11808.00
491.59	12025.67
491.77	12023.33
491.95	12091.21
492.13	12072.48
492.30	12203.55
492.48	12196.53
492.66	12248.02
492.84	12285.47
493.01	12421.22
493.19	12479.74
493.37	12816.77
493.54	12772.30
493.72	12772.30
493.90	12812.09
494.08	12840.18
494.25	13046.15
494.43	13142.11
494.61	13151.47
494.79	13252.11
494.96	13338.71
495.14	13228.71
495.32	13366.80
495.49	13495.53
495.67	13738.94
495.85	13617.24
496.02	13877.04
496.20	13755.33
496.38	14033.85
496.55	13947.25
496.73	14075.98
496.91	14480.89
497.09	14246.84
497.26	14604.94
497.44	14277.27
497.62	14410.68
497.79	14494.94
497.97	14586.22
498.14	14626.01
498.32	14700.90
498.50	14932.62
498.67	15255.61
498.85	14817.93
499.03	14977.09
499.20	14853.04
499.38	14981.77
499.56	14941.98
499.73	15122.20
499.91	15178.37
500.08	15580.95
500.26	15192.42
500.44	15365.62
500.61	15288.38
500.79	15349.23
500.97	15641.80
501.14	15728.40
501.32	15845.43
501.49	15667.55
501.67	15768.19
501.84	15761.17
502.02	15908.62
502.20	15882.88
502.37	16035.01
502.55	15896.92
502.72	16114.59
502.90	15784.57
503.07	15964.79
503.25	16430.56
503.43	16074.80
503.60	16238.64
503.78	16339.28
503.95	16428.22
504.13	16507.80
504.30	16678.66
504.48	16390.77
504.65	16552.27
504.83	16772.28
505.01	16896.33
505.18	16800.37
505.36	17069.53
505.53	16833.13
505.71	16851.86
505.88	16940.80
506.06	16889.31
506.23	17355.07
506.41	17074.21
506.58	17329.33
506.76	17104.64
506.93	17235.70
507.11	17181.87
507.28	17701.47
507.46	17415.93
507.63	17600.83
507.81	17687.43
507.98	17511.89
508.16	17647.64
508.33	17673.39
508.50	17699.13
508.68	17795.09
508.85	17855.95
509.03	18153.20
509.20	18108.72
509.38	18120.43
509.55	18279.58
509.73	18164.90
509.90	18298.31
510.08	18420.02
510.25	18310.01
510.42	18342.78
510.60	18672.79
510.77	18712.58
510.95	18621.30
511.12	18448.10
511.30	18597.90
511.47	18579.17
511.64	18609.60
511.82	18867.06
511.99	19044.94
512.17	18881.10
512.34	19061.32
512.51	19091.75
512.69	19051.96
512.86	18998.13
513.04	19531.77
513.21	18960.68
513.38	19152.60
513.56	19470.92
513.73	19147.92
513.90	19503.68
514.08	19213.46
514.25	19508.37
514.43	19719.01
514.60	19494.32
514.77	19704.97
514.95	19939.02
515.12	19669.86
515.29	19513.05
515.47	19777.53
515.64	19995.20
515.81	19950.73
515.99	19810.29
516.16	20388.41
516.33	20231.59
516.51	20217.55
516.68	20154.35
516.85	19908.60
517.03	20442.24
517.20	20299.47
517.37	20372.02
517.54	20093.50
517.72	20418.83
517.89	20648.21
518.06	20587.35
518.24	20601.40
518.41	20978.22
518.58	20610.76
518.75	20683.31
518.93	20908.01
519.10	20826.09
519.27	20802.68
519.45	20893.96
519.62	20917.37
519.79	20716.08
519.96	20982.90
520.14	20947.79
520.31	21383.13
520.48	21427.60
520.65	21036.74
520.83	21458.03
521.00	21474.42
521.17	21177.17
521.34	21516.54
521.52	21535.27
521.69	21401.86
521.86	21504.84
522.03	21792.73
522.20	21886.35
522.38	21949.54
522.55	22029.12
522.72	21743.58
522.89	21919.12
523.07	22087.64
523.24	22246.79
523.41	22256.15
523.58	21858.26
523.75	22328.71
523.92	22129.77
524.10	22024.44
524.27	22209.34
524.44	22244.45
524.61	22593.19
524.78	22485.53
524.96	22347.44
525.13	22628.30
525.30	22466.80
525.47	22497.23
525.64	22169.55
525.81	22527.66
525.98	22583.83
526.16	22705.54
526.33	22445.74
526.50	22937.25
526.67	22471.48
526.84	22527.66
527.01	22845.97
527.18	22792.14
527.36	22948.95
527.53	23307.05
527.70	23372.59
527.87	23136.20
528.04	23119.81
528.21	23084.70
528.38	22939.59
528.55	22927.89
528.72	22902.14
528.89	23316.42
529.07	23185.35
529.24	23414.72
529.41	23283.65
529.58	23222.80
529.75	23309.40
529.92	23335.14
530.09	23524.72
530.26	23674.52
530.43	23391.31
530.60	23550.47
530.77	23194.71
530.94	23445.15
531.11	23143.22
531.28	23300.03
531.46	23679.20
531.63	23424.08
531.80	23934.32
531.97	23915.59
532.14	24039.64
532.31	23843.04
532.48	23845.38
532.65	24159.01
532.82	24168.37
532.99	23906.23
533.16	23709.63
533.33	24121.56
533.50	24400.08
533.67	24318.17
533.84	24009.22
534.01	24128.58
534.18	24065.39
534.35	24449.24
534.52	24269.01
534.69	24809.68
534.86	24737.12
535.03	24212.84
535.20	24119.22
535.37	24575.62
535.54	24489.03
535.71	24142.63
535.88	24624.78
536.05	24458.60
536.22	24945.43
536.38	24573.28
536.55	24680.95
536.72	24844.79
536.89	24957.13
537.06	24966.49
537.23	25017.99
537.40	24783.93
537.57	24950.11
537.74	24931.39
537.91	25245.02
538.08	25022.67
538.25	25022.67
538.42	25443.96
538.59	25333.96
538.75	25324.60
538.92	25184.16
539.09	24938.41
539.26	25123.31
539.43	25635.89
539.60	25350.34
539.77	24971.18
539.94	25535.24
540.11	25350.34
540.28	25338.64
540.44	25640.57
540.61	25336.30
540.78	25191.19
540.95	25598.44
541.12	25542.27
541.29	25448.64
541.46	25284.81
541.62	25647.59
541.79	25582.06
541.96	25371.41
542.13	25436.94
542.30	25947.18
542.47	26082.93
542.63	26171.87
542.80	26181.23
542.97	26319.32
543.14	26057.18
543.31	26160.17
543.48	25961.22
543.64	26274.85
543.81	26345.07
543.98	26553.38
544.15	26373.16
544.32	26707.85
544.48	26553.38
544.65	26637.64
544.82	26251.45
544.99	25926.11
545.16	26625.93
545.32	26485.50
545.49	26492.52
545.66	26991.06
545.83	26237.41
546.00	26965.31
546.16	26441.03
546.33	26796.79
546.50	26324.01
546.67	26731.26
546.83	26637.64
547.00	26731.26
547.17	26909.14
547.34	26675.09
547.50	26862.33
547.67	27192.34
547.84	26757.00
548.00	27044.89
548.17	26841.26
548.34	26857.65
548.51	27049.57
548.67	27098.72
548.84	27302.35
549.01	27023.83
549.18	26972.33
549.34	26904.46
549.51	27304.69
549.68	27030.85
549.84	27318.73
550.01	27182.98
550.18	26941.91
550.34	27452.14
550.51	27300.01
550.68	27709.60
550.84	27220.43
551.01	27578.53
551.18	27295.33
551.34	27110.43
551.51	27110.43
551.68	27573.85
551.84	27260.22
552.01	27393.63
552.18	27828.97
552.34	27330.44
552.51	27651.09
552.68	27241.50
552.84	27957.70
553.01	27606.62
553.18	27473.21
553.34	27798.54
553.51	27630.02
553.67	27896.85
553.84	28112.17
554.01	27690.88
554.17	28060.68
554.34	27737.69
554.51	28163.67
554.67	27875.78
554.84	27936.63
555.00	27875.78
555.17	27608.96
555.33	27931.95
555.50	28079.41
555.67	27906.21
555.83	28252.61
556.00	27983.44
556.16	28189.41
556.33	27931.95
556.50	28250.27
556.66	28601.35
556.83	28070.04
556.99	28591.98
557.16	28507.72
557.32	28215.16
557.49	28603.69
557.65	28163.67
557.82	28182.39
557.98	28203.46
558.15	28491.34
558.32	28819.02
558.48	28058.34
558.65	28783.91
558.81	28547.51
558.98	28664.54
559.14	28257.29
559.31	28568.58
559.47	28327.50
559.64	28201.11
559.80	28201.11
559.97	28741.78
560.13	28521.77
560.30	28985.19
560.46	28367.29
560.63	28568.58
560.79	28327.50
560.96	29125.63
561.12	28306.44
561.29	28599.01
561.45	28964.13
561.61	28884.55
561.78	28807.31
561.94	29055.41
562.11	28615.39
562.27	28624.75
562.44	28903.28
562.60	28924.34
562.77	28863.49
562.93	28556.88
563.10	28758.16
563.26	28795.61
563.42	28905.62
563.59	28886.89
563.75	28830.72
563.92	28748.80
564.08	28797.95
564.24	28804.97
564.41	28833.06
564.57	28968.81
564.74	29081.16
564.90	29397.13
565.07	29139.67
565.23	28884.55
565.39	28903.28
565.56	28973.49
565.72	28999.24
565.88	28570.92
566.05	28943.06
566.21	29202.86
566.38	28884.55
566.54	29062.43
566.70	29146.69
566.87	29404.15
567.03	29317.55
567.19	29134.99
567.36	29467.34
567.52	29263.72
567.68	29181.80
567.85	28914.98
568.01	29284.78
568.17	29010.94
568.34	29312.87
568.50	29404.15
568.66	28914.98
568.83	29598.41
568.99	29308.19
569.15	29071.79
569.32	29170.10
569.48	28545.17
569.64	28877.53
569.81	29373.72
569.97	29310.53
570.13	29488.41
570.30	29130.31
570.46	29455.64
570.62	29338.62
570.78	28996.90
570.95	29050.73
571.11	29207.55
571.27	29446.28
571.43	29205.20
571.60	29221.59
571.76	29436.92
571.92	29443.94
572.09	29509.47
572.25	29497.77
572.41	29685.01
572.57	29443.94
572.74	29565.65
572.90	29296.49
573.06	28940.72
573.22	29331.59
573.38	29032.00
573.55	29462.66
573.71	29668.63
573.87	29682.67
574.03	29310.53
574.20	29247.33
574.36	29703.74
574.52	29472.03
574.68	29575.01
574.84	29193.50
575.01	29481.39
575.17	29408.83
575.33	29584.37
575.49	29516.50
575.65	29593.73
575.82	29207.55
575.98	29598.41
576.14	29429.90
576.30	29310.53
576.46	29465.00
576.62	29326.91
576.79	29635.86
576.95	29495.43
577.11	29647.57
577.27	29706.08
577.43	29596.07
577.59	29369.04
577.75	29420.53
577.92	29593.73
578.08	29085.84
578.24	29120.95
578.40	29406.49
578.56	29818.42
578.72	29542.24
578.88	30061.84
579.04	30026.73
579.21	29401.81
579.37	29666.29
579.53	29844.17
579.69	29724.80
579.85	29263.72
580.01	29879.28
580.17	29301.17
580.33	29818.42
580.49	29607.78
580.65	29436.92
580.82	29832.47
580.98	29600.76
581.14	29825.45
581.30	29724.80
581.46	29565.65
581.62	29546.92
581.78	29783.32
581.94	30026.73
582.10	29617.14
582.26	29544.58
582.42	29935.45
582.58	29881.62
582.74	29638.20
582.90	29530.54
583.06	29818.42
583.22	29701.40
583.38	29963.54
583.54	29869.92
583.70	29844.17
583.86	29610.12
584.02	29586.71
584.18	29788.00
584.34	29689.70
584.50	30008.01
584.66	29717.78
584.82	29617.14
584.98	29886.30
585.14	30089.93
585.30	29198.18
585.46	29752.89
585.62	29797.36
585.78	29556.28
585.94	29479.05
586.10	29872.26
586.26	29832.47
586.42	29982.26
586.58	29680.33
586.74	29907.37
586.90	29813.74
587.06	29439.26
587.22	29537.56
587.38	29914.39
587.54	30043.12
587.70	30045.46
587.86	29841.83
588.02	29703.74
588.18	30178.87
588.34	30078.22
588.49	29722.46
588.65	29649.91
588.81	29511.81
588.97	29991.62
589.13	29727.14
589.29	29902.68
589.45	30031.41
589.61	29802.04
589.77	30073.54
589.93	30118.01
590.08	30228.02
590.24	30431.65
590.40	30176.53
590.56	29914.39
590.72	29951.84
590.88	29614.80
591.04	29816.08
591.20	30281.85
591.35	30237.38
591.51	30338.02
591.67	29839.49
591.83	30639.95
591.99	30132.06
592.15	30129.72
592.31	30103.97
592.46	30136.74
592.62	29839.49
592.78	29975.24
592.94	30235.04
593.10	30134.40
593.26	30480.80
593.41	29858.21
593.57	29951.84
593.73	30134.40
593.89	30284.19
594.05	30522.93
594.20	29912.05
594.36	29935.45
594.52	29584.37
594.68	29858.21
594.84	30242.06
594.99	30256.11
595.15	30433.99
595.31	30511.22
595.47	30426.96
595.62	30450.37
595.78	30518.25
595.94	30485.48
596.10	29996.31
596.25	30082.91
596.41	30335.68
596.57	29961.20
596.73	30206.95
596.88	29968.22
597.04	30487.82
597.20	30689.10
597.36	30525.27
597.51	30422.28
597.67	30345.05
597.83	30583.78
597.99	30277.17
598.14	30143.76
598.30	30267.81
598.46	30417.60
598.61	30345.05
598.77	30202.27
598.93	30171.85
599.09	30604.84
599.24	30651.66
599.40	30373.13
599.56	30686.76
599.71	30632.93
599.87	30078.22
600.03	30649.32
600.18	29816.08
600.34	30412.92
600.50	30298.23
600.65	30075.88
600.81	30164.82
600.97	30869.33
601.12	30548.67
601.28	30492.50
601.44	30281.85
601.59	30686.76
601.75	29965.88
601.91	30377.81
602.06	30443.35
602.22	30396.54
602.37	30087.59
602.53	30462.07
602.69	30441.01
602.84	30955.93
603.00	30380.15
603.16	30429.30
603.31	30419.94
603.47	30307.60
603.62	30391.86
603.78	30471.43
603.94	30209.29
604.09	30410.58
604.25	30286.53
604.40	30366.11
604.56	30515.90
604.71	30583.78
604.87	30436.33
605.03	30092.27
605.18	30415.26
605.34	30628.25
605.49	30071.20
605.65	29989.28
605.80	30045.46
605.96	30057.16
606.12	30047.80
606.27	30178.87
606.43	30171.85
606.58	30061.84
606.74	30473.78
606.89	30370.79
607.05	30213.98
607.20	30689.10
607.36	30115.67
607.51	30352.07
607.67	30099.29
607.82	29905.02
607.98	30309.94
608.13	30300.58
608.29	30150.78
608.44	30192.91
608.60	30235.04
608.75	30429.30
608.91	30026.73
609.06	30181.21
609.22	30326.32
609.37	29736.51
609.53	30118.01
609.68	30043.12
609.84	29832.47
609.99	30307.60
610.15	30396.54
610.30	29804.38
610.46	30099.29
610.61	30244.40
610.76	30099.29
610.92	29961.20
611.07	29961.20
611.23	30160.14
611.38	29869.92
611.54	29827.79
611.69	29692.04
611.84	29713.10
612.00	29661.61
612.15	29802.04
612.31	29963.54
612.46	30153.12
612.62	30127.38
612.77	30061.84
612.92	30122.69
613.08	29886.30
613.23	29940.13
613.39	29467.34
613.54	29759.91
613.69	29991.62
613.85	29668.63
614.00	29652.25
614.15	29993.97
614.31	29692.04
614.46	30082.91
614.62	29923.75
614.77	30141.42
614.92	29846.51
615.08	29558.63
615.23	29577.35
615.38	30015.03
615.54	29352.66
615.69	29572.67
615.84	29467.34
616.00	29858.21
616.15	29418.19
616.30	29741.19
616.46	29816.08
616.61	29537.56
616.76	29813.74
616.92	29273.08
617.07	29654.59
617.22	29493.09
617.37	29383.09
617.53	29654.59
617.68	29539.90
617.83	28877.53
617.99	29221.59
618.14	29436.92
618.29	29514.16
618.45	29280.10
618.60	29242.65
618.75	29120.95
618.90	29237.97
619.06	29144.35
619.21	28994.56
619.36	29125.63
619.51	29378.40
619.67	28748.80
619.82	28922.00
619.97	29099.88
620.12	29317.55
620.28	29291.80
620.43	29017.96
620.58	29282.44
620.73	29486.07
620.89	29373.72
621.04	29235.63
621.19	29490.75
621.34	28914.98
621.49	29369.04
621.65	28966.47
621.80	28709.01
621.95	28863.49
622.10	28844.76
622.25	28641.14
622.41	28982.85
622.56	29013.28
622.71	29104.56
622.86	29195.84
623.01	28678.58
623.16	28989.88
623.32	28826.04
623.47	28718.37
623.62	28917.32
623.77	28870.51
623.92	28545.17
624.07	28472.62
624.23	28980.51
624.38	28701.99
624.53	29050.73
624.68	28821.36
624.83	29502.45
624.98	28924.34
625.13	28456.23
625.29	28706.67
625.44	28678.58
625.59	28652.84
625.74	28608.37
625.89	28524.11
626.04	28388.36
626.19	28720.71
626.34	28575.60
626.49	28219.84
626.65	28271.33
626.80	28907.96
626.95	28886.89
627.10	28514.75
627.25	28437.51
627.40	28575.60
627.55	28322.82
627.70	28343.89
627.85	28414.10
628.00	28229.20
628.15	28470.28
628.30	28123.88
628.45	28329.84
628.60	27894.50
628.76	28397.72
628.91	28341.55
629.06	28313.46
629.21	28287.71
629.36	28360.27
629.51	28177.71
629.66	28105.15
629.81	27990.47
629.96	28166.01
630.11	28030.26
630.26	28006.85
630.41	27824.29
630.56	27613.64
630.71	27962.38
630.86	27768.12
631.01	28224.52
631.16	28079.41
631.31	28013.87
631.46	27681.52
631.61	27875.78
631.76	28105.15
631.91	27625.34
632.06	27854.72
632.21	27845.35
632.36	27644.07
632.51	27545.76
632.66	27854.72
632.81	27548.11
632.96	27871.10
633.10	27695.56
633.25	27953.02
633.40	27828.97
633.55	27805.56
633.70	27690.88
633.85	27585.55
634.00	27513.00
634.15	27775.14
634.30	27681.52
634.45	27192.34
634.60	27541.08
634.75	27201.71
634.90	27168.94
635.05	27246.18
635.19	27676.83
635.34	27681.52
635.49	27508.32
635.64	27718.96
635.79	27487.25
635.94	27505.98
636.09	27395.97
636.24	27154.90
636.39	27253.20
636.53	27302.35
636.68	27014.46
636.83	27513.00
636.98	27494.27
637.13	27136.17
637.28	27388.95
637.43	27665.13
637.57	27676.83
637.72	27246.18
637.87	26965.31
638.02	27126.81
638.17	27072.98
638.32	27269.58
638.46	26679.77
638.61	27103.40
638.76	26717.22
638.91	26747.64
639.06	27091.70
639.20	27070.64
639.35	27054.25
639.50	27068.30
639.65	26874.03
639.80	27318.73
639.94	27311.71
640.09	27089.36
640.24	27028.51
640.39	26979.36
640.54	26494.86
640.68	26724.24
640.83	26787.43
640.98	26506.57
641.13	26242.09
641.27	26881.05
641.42	26710.19
641.57	26747.64
641.72	27007.44
641.86	26668.06
642.01	26436.35
642.16	26515.93
642.31	26780.41
642.45	27171.28
642.60	26223.36
642.75	26366.13
642.90	26167.19
643.04	26661.04
643.19	26204.64
643.34	26529.97
643.48	26415.29
643.63	26628.27
643.78	26520.61
643.93	26621.25
644.07	26349.75
644.22	26689.13
644.37	26298.26
644.51	26635.30
644.66	26623.59
644.81	26183.57
644.95	26335.71
645.10	26466.78
645.25	26195.28
645.39	26188.25
645.54	26424.65
645.69	26054.84
645.83	26354.43
645.98	25982.29
646.13	26235.06
646.27	26483.16
646.42	26272.51
646.57	26164.85
646.71	26319.32
646.86	26064.21
647.00	26031.44
647.15	26214.00
647.30	25944.84
647.44	26045.48
647.59	26136.76
647.74	25921.43
647.88	25949.52
648.03	26382.52
648.17	26073.57
648.32	26279.54
648.47	26178.89
648.61	26352.09
648.76	26438.69
648.90	26206.98
649.05	25558.65
649.20	25851.22
649.34	25998.67
649.49	25537.59
649.63	25715.47
649.78	25706.10
649.92	25778.66
650.07	25891.01
650.21	25488.43
650.36	25858.24
650.51	25736.53
650.65	25635.89
650.80	25701.42
650.94	25518.86
651.09	25575.03
651.23	25633.55
651.38	25713.13
651.52	25841.85
651.67	25834.83
651.81	25675.68
651.96	25713.13
652.10	25483.75
652.25	25324.60
652.39	25706.10
652.54	25666.31
652.68	25355.02
652.83	25355.02
652.97	26096.97
653.12	25649.93
653.26	25511.84
653.41	25422.90
653.55	25493.12
653.70	25242.68
653.84	25240.34
653.99	25352.68
654.13	25460.35
654.27	25476.73
654.42	25326.94
654.56	25319.92
654.71	25298.85
654.85	25027.35
655.00	25626.53
655.14	25324.60
655.29	25078.84
655.43	25289.49
655.57	25266.08
655.72	25017.99
655.86	25111.61
656.01	25275.45
656.15	25020.33
656.30	25188.85
656.44	24877.55
656.58	24968.84
656.73	24849.47
656.87	25020.33
657.01	25043.73
657.16	25001.60
657.30	25039.05
657.45	25165.44
657.59	24982.88
657.73	24613.07
657.88	24889.26
658.02	25177.14
658.16	24826.06
658.31	24692.65
658.45	24889.26
658.60	24584.99
658.74	24170.71
658.88	24627.12
659.03	24332.21
659.17	24524.13
659.31	24477.32
659.46	24606.05
659.60	24758.19
659.74	24496.05
659.89	24500.73
660.03	24407.11
660.17	24638.82
660.32	24517.11
660.46	24224.54
660.60	24154.33
660.74	24229.23
660.89	24280.72
661.03	23903.89
661.17	24215.18
661.32	24147.31
661.46	24725.42
661.60	24168.37
661.74	24257.31
661.89	24540.52
662.03	24460.94
662.17	24044.32
662.31	24233.91
662.46	24320.51
662.60	23962.40
662.74	23679.20
662.88	23903.89
663.03	23768.14
663.17	23903.89
663.31	23779.84
663.45	23569.19
663.60	23644.09
663.74	23513.02
663.88	23873.46
664.02	23611.32
664.17	23765.80
664.31	23662.82
664.45	23864.10
664.59	23491.96
664.73	23487.28
664.88	23573.88
665.02	23442.81
665.16	23608.98
665.30	23412.38
665.44	23480.25
665.59	23002.78
665.73	23513.02
665.87	23035.55
666.01	23360.89
666.15	22925.55
666.29	23227.48
666.44	23262.58
666.58	23154.92
666.72	23002.78
666.86	23126.83
667.00	23157.26
667.14	22944.27
667.28	23117.47
667.43	23070.66
667.57	23262.58
667.71	22661.07
667.85	22738.30
667.99	22824.90
668.13	22735.96
668.27	22567.45
668.41	22738.30
668.56	22558.08
668.70	22864.69
668.84	22773.41
668.98	22628.30
669.12	22452.76
669.26	22593.19
669.40	22604.89
669.54	22230.41
669.68	22679.79
669.82	22281.90
669.96	22223.39
670.10	21949.54
670.25	22569.79
670.39	22059.55
670.53	22216.36
670.67	22008.06
670.81	22328.71
670.95	22223.39
671.09	22148.49
671.23	22092.32
671.37	21930.82
671.51	21858.26
671.65	22005.72
671.79	21832.52
671.93	21659.32
672.07	21640.59
672.21	21664.00
672.35	21518.89
672.49	21546.97
672.63	21839.54
672.77	21502.50
672.91	21317.60
673.05	21507.18
673.19	21443.99
673.33	21542.29
673.47	21465.05
673.61	21593.78
673.75	21621.87
673.89	21446.33
674.03	21254.40
674.17	21200.57
674.31	21202.91
674.45	21179.51
674.59	21128.02
674.73	21116.31
674.87	20886.94
675.01	20732.47
675.15	20926.73
675.29	20954.82
675.43	20788.64
675.56	20959.50
675.70	20662.25
675.84	20746.51
675.98	20299.47
676.12	20816.72
676.26	20727.78
676.40	20720.76
676.54	20210.53
676.68	20442.24
676.82	19962.43
676.96	20278.40
677.10	20456.28
677.23	20013.92
677.37	19999.88
677.51	19992.86
677.65	19700.29
677.79	19679.22
677.93	20086.48
678.07	19531.77
678.21	19552.84
678.34	19601.99
678.48	19323.46
678.62	19531.77
678.76	19632.41
678.90	19536.45
679.04	19557.52
679.18	19545.81
679.31	19227.50
679.45	19246.23
679.59	18953.66
679.73	19328.14
679.87	19412.40
680.00	18759.39
680.14	19157.28
680.28	18595.56
680.42	19051.96
680.56	18677.48
680.70	18766.42
680.83	18721.95
680.97	18792.16
681.11	18871.74
681.25	18354.48
681.39	18607.26
681.52	18349.80
681.66	18628.32
681.80	18183.62
681.94	18118.09
682.07	18328.74
682.21	18288.95
682.35	17923.82
682.49	17930.84
682.62	17743.60
682.76	17949.57
682.90	17860.63
683.04	17914.46
683.17	17916.80
683.31	17767.01
683.45	17888.71
683.59	17879.35
683.72	17867.65
683.86	17687.43
684.00	17633.60
684.13	17593.81
684.27	17298.90
684.41	17207.62
684.55	17055.48
684.68	17118.68
684.82	17277.83
684.96	17202.94
685.09	17011.01
685.23	16863.56
685.37	16718.45
685.50	17106.98
685.64	16980.59
685.78	17034.42
685.91	16945.48
686.05	17090.59
686.19	16741.85
686.32	16730.15
686.46	16542.91
686.60	16276.09
686.73	16545.25
686.87	16519.50
687.01	16472.69
687.14	16339.28
687.28	16049.05
687.42	15740.10
687.55	16086.50
687.69	15852.45
687.82	15786.91
687.96	15735.42
688.10	15917.98
688.23	15946.07
688.37	15873.51
688.50	16236.30
688.64	15651.16
688.78	15772.87
688.91	15297.74
689.05	15398.38
689.18	15833.72
689.32	15272.00
689.46	15197.10
689.59	15332.85
689.73	15391.36
689.86	14960.70
690.00	15054.33
690.13	15066.03
690.27	15161.99
690.41	15037.94
690.54	15103.48
690.68	14939.64
690.81	14984.11
690.95	14885.81
691.08	15080.07
691.22	14857.72
691.35	14628.35
691.49	14527.71
691.62	14623.67
691.76	14288.97
691.89	14714.95
692.03	14225.78
692.16	14324.08
692.30	14258.54
692.43	14398.98
692.57	14108.75
692.70	14153.22
692.84	13865.33
692.97	14368.55
693.11	14085.34
693.24	13980.02
693.38	14094.71
693.51	13757.67
693.65	14125.13
693.78	13888.74
693.92	13884.06
694.05	13699.16
694.19	13774.05
694.32	13645.32
694.45	13259.13
694.59	13266.16
694.72	13212.32
694.86	13200.62
694.99	13041.46
695.13	13123.38
695.26	13097.64
695.39	13151.47
695.53	13004.02
695.66	13205.30
695.80	12968.91
695.93	13048.49
696.07	12788.69
696.20	13001.68
696.33	12964.23
696.47	12772.30
696.60	12868.27
696.73	12489.10
696.87	12638.89
697.00	12379.09
697.14	12161.42
697.27	12285.47
697.40	12334.62
697.54	12208.23
697.67	12313.56
697.80	12154.40
697.94	12046.74
698.07	12147.38
698.21	11948.43
698.34	11854.81
698.47	12049.08
698.61	12025.67
698.74	11934.39
698.87	11850.13
699.01	11690.98
699.14	11627.78
699.27	11822.05
699.40	11466.28
699.54	11419.47
699.67	11688.64
699.80	11122.23
699.94	11157.33
700.07	11396.07
700.20	11152.65
700.34	11176.06
700.47	11274.36
700.60	11302.45
700.73	11279.04
700.87	11386.71
701.00	11276.70
701.13	10916.26
701.26	10855.40
701.40	10960.73
701.53	10972.43
701.66	11087.12
701.79	10567.52
701.93	10452.83
702.06	10611.99
702.19	10527.73
702.32	10480.92
702.46	10368.57
702.59	10621.35
702.72	10237.50
702.85	10429.43
702.99	10328.78
703.12	10204.74
703.25	10324.10
703.38	10242.18
703.51	10455.17
703.65	10235.16
703.78	10272.61
703.91	10085.37
704.04	10068.98
704.17	9966.00
704.31	10122.82
704.44	9921.53
704.57	10040.90
704.70	9891.10
704.83	9846.63
704.96	9495.55
705.10	9568.11
705.23	9432.36
>>>>>End Processed Spectral Data<<<<<
