SpectraSuite Data File
++++++++++++++++++++++++++++++++++++
Date: Fri Oct 18 13:58:08 GMT-05:00 2013
User: bianchi
Dark Spectrum Present: No
Reference Spectrum Present: No
Number of Sampled Component Spectra: 1
Spectrometers: USB2+H05261
Integration Time (usec): 50000 (USB2+H05261)
Spectra Averaged: 1 (USB2+H05261)
Boxcar Smoothing: 0 (USB2+H05261)
Correct for Electrical Dark: No (USB2+H05261)
Strobe/Lamp Enabled: No (USB2+H05261)
Correct for Detector Non-linearity: No (USB2+H05261)
Correct for Stray Light: No (USB2+H05261)
Number of Pixels in Processed Spectrum: 2048
>>>>>Begin Processed Spectral Data<<<<<
365.73	0.00
365.92	0.00
366.12	0.00
366.32	0.00
366.52	0.00
366.72	0.00
366.91	0.00
367.11	0.00
367.31	0.00
367.51	0.00
367.70	0.00
367.90	0.00
368.10	0.00
368.30	0.00
368.49	0.00
368.69	0.00
368.89	0.00
369.09	0.00
369.28	0.00
369.48	0.00
369.68	0.00
369.87	0.00
370.07	0.00
370.27	0.00
370.47	0.00
370.66	65.54
370.86	93.62
371.06	98.30
371.25	161.50
371.45	138.09
371.65	114.69
371.84	177.88
372.04	173.20
372.24	156.82
372.44	107.66
372.63	131.07
372.83	201.29
373.03	234.05
373.22	184.90
373.42	297.25
373.62	156.82
373.81	252.78
374.01	187.24
374.21	313.63
374.40	238.73
374.60	264.48
374.79	231.71
374.99	278.52
375.19	318.31
375.38	259.80
375.58	210.65
375.78	229.37
375.97	243.42
376.17	369.80
376.37	257.46
376.56	283.20
376.76	346.40
376.95	304.27
377.15	245.76
377.35	255.12
377.54	294.91
377.74	301.93
377.93	315.97
378.13	332.36
378.33	332.36
378.52	285.55
378.72	212.99
378.91	299.59
379.11	243.42
379.31	259.80
379.50	152.13
379.70	322.99
379.89	315.97
380.09	266.82
380.28	308.95
380.48	301.93
380.68	327.68
380.87	330.02
381.07	306.61
381.26	348.74
381.46	341.72
381.65	360.44
381.85	339.38
382.04	301.93
382.24	383.85
382.43	437.68
382.63	393.21
382.83	402.57
383.02	330.02
383.22	390.87
383.41	276.18
383.61	278.52
383.80	355.76
384.00	376.83
384.19	313.63
384.39	372.15
384.58	351.08
384.78	379.17
384.97	372.15
385.17	395.55
385.36	383.85
385.56	404.91
385.75	360.44
385.95	330.02
386.14	451.72
386.34	451.72
386.53	390.87
386.72	472.79
386.92	447.04
387.11	416.62
387.31	430.66
387.50	454.06
387.70	376.83
387.89	447.04
388.09	514.92
388.28	496.19
388.48	489.17
388.67	414.27
388.86	461.09
389.06	423.64
389.25	510.24
389.45	491.51
389.64	449.38
389.84	491.51
390.03	461.09
390.22	573.43
390.42	554.71
390.61	470.45
390.81	479.81
391.00	498.53
391.19	472.79
391.39	479.81
391.58	528.96
391.78	493.85
391.97	564.07
392.16	365.12
392.36	521.94
392.55	550.03
392.75	596.84
392.94	552.37
393.13	575.77
393.33	592.16
393.52	517.26
393.71	533.64
393.91	667.05
394.10	608.54
394.29	463.43
394.49	538.32
394.68	575.77
394.88	641.31
395.07	678.76
395.26	660.03
395.46	638.97
395.65	615.56
395.84	620.24
396.04	662.37
396.23	603.86
396.42	594.50
396.62	697.48
396.81	648.33
397.00	589.82
397.19	624.92
397.39	685.78
397.58	664.71
397.77	641.31
397.97	674.07
398.16	723.23
398.35	641.31
398.55	716.20
398.74	737.27
398.93	734.93
399.12	709.18
399.32	739.61
399.51	674.07
399.70	814.51
399.90	765.36
400.09	816.85
400.28	748.97
400.47	795.78
400.67	760.67
400.86	758.33
401.05	798.12
401.24	861.32
401.44	929.19
401.63	786.42
401.82	835.57
402.01	711.52
402.21	856.64
402.40	842.59
402.59	840.25
402.78	917.49
402.97	926.85
403.17	903.45
403.36	894.08
403.55	837.91
403.74	910.47
403.93	929.19
404.13	903.45
404.32	938.55
404.51	943.24
404.70	903.45
404.89	901.11
405.09	1043.88
405.28	959.62
405.47	994.73
405.66	908.13
405.85	997.07
406.05	976.00
406.24	994.73
406.43	1057.92
406.62	1011.11
406.81	1064.94
407.00	990.05
407.20	1069.62
407.39	1013.45
407.58	1041.54
407.77	1001.75
407.96	1132.82
408.15	1146.86
408.34	1078.99
408.54	1114.10
408.73	1109.41
408.92	1137.50
409.11	1039.20
409.30	1109.41
409.49	1217.08
409.68	1153.88
409.87	1081.33
410.07	1186.65
410.26	1167.93
410.45	1146.86
410.64	1135.16
410.83	1235.80
411.02	1156.22
411.21	1308.36
411.40	1334.11
411.59	1240.48
411.78	1249.85
411.98	1191.33
412.17	1383.26
412.36	1369.21
412.55	1341.13
412.74	1196.01
412.93	1310.70
413.12	1362.19
413.31	1472.20
413.50	1434.75
413.69	1427.73
413.88	1441.77
414.07	1437.09
414.26	1444.11
414.45	1490.92
414.64	1455.81
414.83	1540.07
415.02	1399.64
415.22	1458.15
415.41	1593.90
415.60	1474.54
415.79	1668.80
415.98	1607.95
416.17	1577.52
416.36	1621.99
416.55	1593.90
416.74	1598.59
416.93	1736.68
417.12	1572.84
417.31	1664.12
417.50	1802.21
417.69	1755.40
417.88	1746.04
418.07	1689.87
418.26	1774.13
418.45	1797.53
418.64	1762.42
418.83	1675.82
419.02	1757.74
419.21	1760.08
419.39	1813.92
419.58	1874.77
419.77	1795.19
419.96	1865.41
420.15	1923.92
420.34	1851.36
420.53	1959.03
420.72	1970.73
420.91	1895.83
421.10	1956.69
421.29	1825.62
421.48	1900.52
421.67	2045.63
421.86	1912.22
422.05	1949.67
422.24	1900.52
422.43	1968.39
422.61	2043.29
422.80	2062.01
422.99	1954.35
423.18	2024.56
423.37	2085.42
423.56	2150.95
423.75	1949.67
423.94	2012.86
424.13	1907.54
424.32	2015.20
424.50	1996.48
424.69	2064.35
424.88	2122.87
425.07	2003.50
425.26	2019.88
425.45	2047.97
425.64	2022.22
425.83	2078.40
426.01	2047.97
426.20	2029.24
426.39	1982.43
426.58	2118.18
426.77	2097.12
426.96	2141.59
427.15	2120.53
427.33	2148.61
427.52	2186.06
427.71	2193.08
427.90	2132.23
428.09	2118.18
428.28	2202.44
428.46	2246.91
428.65	2242.23
428.84	2160.31
429.03	2317.13
429.22	2181.38
429.40	2289.04
429.59	2235.21
429.78	2207.13
429.97	2141.59
430.16	2186.06
430.34	2335.85
430.53	2361.60
430.72	2286.70
430.91	2331.17
431.10	2319.47
431.28	2389.69
431.47	2345.22
431.66	2473.95
431.85	2399.05
432.03	2352.24
432.22	2464.58
432.41	2450.54
432.60	2443.52
432.79	2399.05
432.97	2483.31
433.16	2483.31
433.35	2473.95
433.54	2438.84
433.72	2408.41
433.91	2560.55
434.10	2597.99
434.28	2499.69
434.47	2537.14
434.66	2621.40
434.85	2567.57
435.03	2670.55
435.22	2583.95
435.41	2689.28
435.59	2684.59
435.78	2691.62
435.97	2642.46
436.16	2516.08
436.34	2670.55
436.53	2747.79
436.72	2876.52
436.90	2600.34
437.09	2710.34
437.28	2656.51
437.46	2799.28
437.65	2836.73
437.84	2757.15
438.02	2796.94
438.21	2918.65
438.40	2700.98
438.58	2932.69
438.77	2855.45
438.96	2874.18
439.14	2944.39
439.33	2991.20
439.52	3016.95
439.70	3019.29
439.89	2942.05
440.08	2967.80
440.26	3080.14
440.45	3045.04
440.63	3063.76
440.82	3087.17
441.01	3148.02
441.19	3171.43
441.38	3105.89
441.57	3248.66
441.75	3232.28
441.94	3211.22
442.12	3335.26
442.31	3346.97
442.50	3283.77
442.68	3384.41
442.87	3300.16
443.05	3384.41
443.24	3517.83
443.43	3389.10
443.61	3499.10
443.80	3468.67
443.98	3335.26
444.17	3328.24
444.35	3538.89
444.54	3482.72
444.73	3463.99
444.91	3433.57
445.10	3379.73
445.28	3304.84
445.47	3510.80
445.65	3361.01
445.84	3412.50
446.02	3426.54
446.21	3562.30
446.39	3494.42
446.58	3449.95
446.77	3475.70
446.95	3412.50
447.14	3478.04
447.32	3585.70
447.51	3602.08
447.69	3566.98
447.88	3597.40
448.06	3543.57
448.25	3435.91
448.43	3545.91
448.62	3552.93
448.80	3597.40
448.99	3632.51
449.17	3578.68
449.36	3726.13
449.54	3758.90
449.73	3822.09
449.91	3705.07
450.10	3784.65
450.28	3763.58
450.46	3574.00
450.65	3824.44
450.83	3859.54
451.02	3819.75
451.20	3850.18
451.39	3840.82
451.57	3784.65
451.76	3698.05
451.94	3901.67
452.13	4028.06
452.31	3735.50
452.49	3885.29
452.68	3819.75
452.86	3892.31
453.05	3810.39
453.23	3960.19
453.42	3892.31
453.60	3742.52
453.78	3957.85
453.97	3852.52
454.15	4058.49
454.34	3920.40
454.52	3941.46
454.70	3922.74
454.89	4109.98
455.07	4175.52
455.26	4128.70
455.44	4147.43
455.62	4091.26
455.81	4081.89
455.99	4280.84
456.17	4056.15
456.36	4262.12
456.54	4227.01
456.73	4208.28
456.91	4365.10
457.09	4329.99
457.28	4514.89
457.46	4250.41
457.64	4269.14
457.83	4498.51
458.01	4341.69
458.19	4416.59
458.38	4400.21
458.56	4641.28
458.74	4564.04
458.93	4486.81
459.11	4538.30
459.29	4503.19
459.48	4493.83
459.66	4442.34
459.84	4451.70
460.03	4622.56
460.21	4580.43
460.39	4746.61
460.57	4580.43
460.76	4592.13
460.94	4660.01
461.12	4755.97
461.31	4681.07
461.49	4519.57
461.67	4582.77
461.85	4690.43
462.04	4770.01
462.22	5032.15
462.40	4718.52
462.59	4613.20
462.77	4720.86
462.95	4917.47
463.13	4791.08
463.32	4809.80
463.50	4882.36
463.68	4910.44
463.86	5057.90
464.05	4929.17
464.23	4957.25
464.41	4767.67
464.59	5011.09
464.78	5029.81
464.96	5025.13
465.14	4856.61
465.32	5057.90
465.50	5020.45
465.69	5097.69
465.87	5085.98
466.05	5111.73
466.23	4997.04
466.41	5102.37
466.60	5287.27
466.78	5090.67
466.96	5100.03
467.14	4999.38
467.32	5151.52
467.51	5231.10
467.69	5137.48
467.87	5151.52
468.05	5266.21
468.23	5247.48
468.41	5125.77
468.60	5301.31
468.78	5397.28
468.96	5158.54
469.14	5399.62
469.32	5352.81
469.50	5212.37
469.69	5554.09
469.87	5392.59
470.05	5418.34
470.23	5586.86
470.41	5413.66
470.59	5577.50
470.77	5399.62
470.95	5598.56
471.14	5729.63
471.32	5596.22
471.50	5827.93
471.68	5610.26
471.86	5720.27
472.04	5734.31
472.22	5586.86
472.40	5507.28
472.58	5717.93
472.77	5762.40
472.95	5830.27
473.13	6029.22
473.31	5841.98
473.49	5888.79
473.67	5921.56
473.85	5863.04
474.03	6008.16
474.21	6073.69
474.39	6258.59
474.57	6012.84
474.75	6317.11
474.93	6251.57
475.12	6286.68
475.30	6312.42
475.48	6370.94
475.66	6471.58
475.84	6410.73
476.02	6272.64
476.20	6427.11
476.38	6427.11
476.56	6597.97
476.74	6616.69
476.92	6518.39
477.10	6644.78
477.28	6693.93
477.46	6635.42
477.64	6918.62
477.82	6757.13
478.00	7171.40
478.18	7103.53
478.36	7192.47
478.54	7007.56
478.72	7110.55
478.90	7215.87
479.08	7272.04
479.26	7419.50
479.44	7492.05
479.62	7555.25
479.80	7508.44
479.98	7522.48
480.16	7571.63
480.34	7620.78
480.52	7709.72
480.70	7611.42
480.88	7770.58
481.06	7911.01
481.24	7992.93
481.41	7782.28
481.59	8116.98
481.77	8018.68
481.95	8168.47
482.13	8175.49
482.31	7990.59
482.49	8180.17
482.67	8388.48
482.85	8545.30
483.03	8538.27
483.21	8753.60
483.39	8620.19
483.57	8727.86
483.74	8786.37
483.92	8919.78
484.10	8798.07
484.28	8912.76
484.46	8943.19
484.64	9252.14
484.82	9001.70
485.00	9217.03
485.18	9418.32
485.35	9614.92
485.53	9483.85
485.71	9425.34
485.89	9937.91
486.07	9706.20
486.25	9586.83
486.43	9764.72
486.61	9729.61
486.78	9921.53
486.96	10136.86
487.14	10076.01
487.32	10335.81
487.50	10251.55
487.68	10438.79
487.85	10443.47
488.03	10562.84
488.21	10633.05
488.39	10523.05
488.57	10714.97
488.75	10764.12
488.92	11077.76
489.10	11042.65
489.28	10991.16
489.46	11185.42
489.64	11176.06
489.81	11377.34
489.99	11260.32
490.17	11501.39
490.35	11709.70
490.53	11576.29
490.70	11817.36
490.88	11688.64
491.06	11955.46
491.24	11861.84
491.41	12042.06
491.59	11990.56
491.77	12004.61
491.95	12205.89
492.13	12065.46
492.30	12545.27
492.48	12243.34
492.66	12339.30
492.84	12437.61
493.01	12659.96
493.19	12564.00
493.37	12769.96
493.54	13111.68
493.72	12844.86
493.90	13125.72
494.08	13060.19
494.25	13179.56
494.43	13212.32
494.61	13458.08
494.79	13504.89
494.96	13366.80
495.14	13540.00
495.32	13516.59
495.49	13619.58
495.67	13926.19
495.85	13961.30
496.02	13827.88
496.20	14209.39
496.38	14015.13
496.55	14101.73
496.73	14487.92
496.91	14333.44
497.09	14635.37
497.26	14614.30
497.44	14487.92
497.62	14366.21
497.79	14853.04
497.97	14651.75
498.14	14949.00
498.32	14902.19
498.50	15150.29
498.67	15087.09
498.85	15023.90
499.03	15307.10
499.20	15152.63
499.38	15094.11
499.56	15400.72
499.73	15342.21
499.91	15433.49
500.08	15545.84
500.26	15358.60
500.44	15602.01
500.61	15522.43
500.79	15857.13
500.97	15871.17
501.14	15999.90
501.32	16086.50
501.49	15906.28
501.67	15861.81
501.84	16032.67
502.02	15817.34
502.20	16119.27
502.37	16428.22
502.55	16252.68
502.72	16271.40
502.90	16308.85
503.07	16313.53
503.25	16573.33
503.43	16563.97
503.60	16830.79
503.78	16631.85
503.95	16865.90
504.13	16772.28
504.30	16755.90
504.48	16718.45
504.65	16793.34
504.83	17221.66
505.01	17287.20
505.18	17270.81
505.36	17624.23
505.53	17142.08
505.71	17385.50
505.88	17474.44
506.06	17198.26
506.23	17287.20
506.41	17518.91
506.58	17556.36
506.76	17853.61
506.93	17930.84
507.11	17434.65
507.28	17549.34
507.46	17811.48
507.63	17895.74
507.81	18038.51
507.98	17935.53
508.16	18010.42
508.33	18171.92
508.50	18061.91
508.68	18235.11
508.85	18492.57
509.03	18270.22
509.20	18298.31
509.38	18497.25
509.55	18527.68
509.73	18764.07
509.90	18771.10
510.08	18546.40
510.25	18735.99
510.42	18649.39
510.60	18902.17
510.77	19075.37
510.95	19131.54
511.12	18824.93
511.30	18761.73
511.47	18972.38
511.64	19171.33
511.82	19499.00
511.99	19129.20
512.17	19286.01
512.34	19440.49
512.51	19548.15
512.69	19339.85
512.86	19428.79
513.04	19719.01
513.21	19534.11
513.38	19695.61
513.56	19466.24
513.73	19754.12
513.90	19709.65
514.08	19672.20
514.25	19658.16
514.43	19962.43
514.60	19997.54
514.77	20182.44
514.95	20329.89
515.12	19814.98
515.29	19983.49
515.47	20240.95
515.64	20379.04
515.81	20091.16
515.99	20318.19
516.16	20655.23
516.33	20421.17
516.51	20734.81
516.68	20629.48
516.85	20280.74
517.03	20360.32
517.20	20709.06
517.37	21003.97
517.54	20821.41
517.72	20734.81
517.89	20809.70
518.06	20884.60
518.24	21032.05
518.41	21113.97
518.58	20973.54
518.75	21111.63
518.93	21383.13
519.10	21050.78
519.27	21202.91
519.45	21128.02
519.62	21240.36
519.79	21001.63
519.96	21472.07
520.14	21825.50
520.31	21142.06
520.48	21530.59
520.65	22064.23
520.83	21455.69
521.00	21668.68
521.17	21748.26
521.34	21703.79
521.52	21666.34
521.69	22001.04
521.86	21902.73
522.03	21888.69
522.20	22052.53
522.38	22167.21
522.55	22094.66
522.72	22005.72
522.89	22230.41
523.07	22405.95
523.24	22670.43
523.41	22188.28
523.58	22267.86
523.75	22672.77
523.92	22419.99
524.10	22375.52
524.27	22668.09
524.44	22286.58
524.61	22829.59
524.78	22965.34
524.96	22867.03
525.13	22675.11
525.30	23014.49
525.47	22815.54
525.64	23068.32
525.81	23208.75
525.98	22857.67
526.16	23168.96
526.33	23049.60
526.50	23323.44
526.67	22644.68
526.84	22986.40
527.01	23063.64
527.18	23192.37
527.36	23608.98
527.53	23594.94
527.70	23775.16
527.87	23388.97
528.04	23482.59
528.21	23868.78
528.38	23339.82
528.55	23372.59
528.72	23459.19
528.89	23791.55
529.07	23768.14
529.24	23810.27
529.41	23922.62
529.58	23702.61
529.75	23601.96
529.92	23662.82
530.09	23440.47
530.26	24348.59
530.43	24053.69
530.60	23843.04
530.77	23983.47
530.94	24095.82
531.11	23924.96
531.28	24173.05
531.46	24114.54
531.63	24273.70
531.80	24135.60
531.97	24533.50
532.14	24189.44
532.31	24332.21
532.48	24416.47
532.65	24290.08
532.82	24418.81
532.99	24638.82
533.16	24624.78
533.33	24620.10
533.50	24762.87
533.67	24634.14
533.84	24645.84
534.01	24893.94
534.18	24723.08
534.35	25043.73
534.52	24882.24
534.69	25261.40
534.86	25111.61
535.03	24940.75
535.20	25245.02
535.37	25263.74
535.54	25207.57
535.71	25097.56
535.88	24971.18
536.05	25123.31
536.22	25195.87
536.38	25317.57
536.55	25099.90
536.72	25338.64
536.89	25305.87
537.06	25153.74
537.23	25678.02
537.40	24877.55
537.57	25596.10
537.74	25076.50
537.91	25811.43
538.08	25797.38
538.25	25736.53
538.42	25383.11
538.59	25654.61
538.75	25523.54
538.92	25521.20
539.09	25965.90
539.26	25961.22
539.43	25399.49
539.60	26022.08
539.77	25788.02
539.94	26146.12
540.11	25773.98
540.28	25944.84
540.44	25926.11
540.61	26054.84
540.78	25692.06
540.95	26111.02
541.12	26403.58
541.29	26162.51
541.46	26288.90
541.62	26019.74
541.79	26225.70
541.96	25804.41
542.13	26206.98
542.30	26494.86
542.47	26513.59
542.63	26499.55
542.80	26473.80
542.97	26707.85
543.14	26766.37
543.31	26232.72
543.48	26426.99
543.64	26972.33
543.81	26668.06
543.98	26803.82
544.15	27133.83
544.32	26972.33
544.48	26899.78
544.65	26801.47
544.82	26932.54
544.99	26923.18
545.16	26794.45
545.32	27129.15
545.49	27227.45
545.66	27080.00
545.83	27206.39
546.00	27517.68
546.16	27197.02
546.33	27412.35
546.50	27084.68
546.67	27260.22
546.83	27302.35
547.00	27346.82
547.17	27730.67
547.34	27529.38
547.50	27548.11
547.67	27316.39
547.84	27108.08
548.00	27569.17
548.17	27721.30
548.34	27388.95
548.51	27531.72
548.67	27468.53
548.84	27758.75
549.01	27590.24
549.18	27611.30
549.34	27882.80
549.51	27618.32
549.68	27388.95
549.84	27683.86
550.01	27763.43
550.18	27541.08
550.34	27871.10
550.51	27545.76
550.68	28056.00
550.84	27658.11
551.01	27843.01
551.18	27838.33
551.34	27704.92
551.51	28009.19
551.68	28254.95
551.84	28201.11
552.01	28063.02
552.18	28306.44
552.34	28376.66
552.51	28388.36
552.68	28102.81
552.84	28187.07
553.01	28280.69
553.18	28287.71
553.34	28128.56
553.51	28189.41
553.67	28346.23
553.84	28339.21
554.01	28503.04
554.17	28299.42
554.34	28409.42
554.51	28444.53
554.67	28847.10
554.84	28360.27
555.00	28240.90
555.17	28856.46
555.33	28304.10
555.50	28547.51
555.67	28189.41
555.83	28383.68
556.00	28699.65
556.16	28631.77
556.33	28599.01
556.50	28643.48
556.66	28872.85
556.83	28446.87
556.99	29127.97
557.16	29029.66
557.32	28856.46
557.49	28664.54
557.65	28910.30
557.82	28627.09
557.98	28320.48
558.15	29008.60
558.32	29046.05
558.48	28627.09
558.65	28844.76
558.81	28943.06
558.98	28982.85
559.14	29151.37
559.31	28961.79
559.47	29074.13
559.64	28819.02
559.80	29071.79
559.97	29422.87
560.13	28718.37
560.30	28793.27
560.46	29380.74
560.63	29165.42
560.79	29144.35
560.96	29209.89
561.12	28922.00
561.29	29139.67
561.45	29111.58
561.61	29319.89
561.78	29675.65
561.94	29446.28
562.11	29549.26
562.27	29235.63
562.44	29357.34
562.60	29205.20
562.77	29633.52
562.93	29462.66
563.10	29776.30
563.26	29254.36
563.42	29572.67
563.59	29429.90
563.75	29703.74
563.92	29832.47
564.08	29179.46
564.24	29376.06
564.41	29387.77
564.57	29549.26
564.74	29427.56
564.90	29813.74
565.07	29687.36
565.23	29750.55
565.39	29586.71
565.56	29619.48
565.72	29687.36
565.88	29975.24
566.05	29319.89
566.21	29628.84
566.38	29722.46
566.54	29689.70
566.70	29504.79
566.87	29769.27
567.03	29874.60
567.19	29949.50
567.36	29612.46
567.52	29530.54
567.68	29717.78
567.85	29750.55
568.01	29764.59
568.17	29659.27
568.34	29998.65
568.50	29589.05
568.66	30031.41
568.83	29846.51
568.99	29776.30
569.15	29633.52
569.32	30125.04
569.48	29804.38
569.64	29942.47
569.81	30113.33
569.97	29869.92
570.13	29977.58
570.30	29984.60
570.46	30113.33
570.62	29823.11
570.78	30050.14
570.95	29694.38
571.11	29804.38
571.27	29841.83
571.43	29670.97
571.60	29921.41
571.76	29900.34
571.92	30019.71
572.09	30146.10
572.25	30146.10
572.41	30192.91
572.57	30338.02
572.74	29986.94
572.90	29846.51
573.06	30298.23
573.22	29855.87
573.38	30436.33
573.55	30160.14
573.71	30438.67
573.87	30174.19
574.03	30480.80
574.20	30033.75
574.36	29708.42
574.52	30258.45
574.68	30078.22
574.84	30139.08
575.01	30169.51
575.17	30047.80
575.33	30335.68
575.49	30377.81
575.65	29935.45
575.82	30457.39
575.98	30150.78
576.14	30967.63
576.30	29942.47
576.46	30209.29
576.62	30199.93
576.79	30347.39
576.95	30221.00
577.11	30534.63
577.27	30235.04
577.43	30319.30
577.59	30637.61
577.75	30314.62
577.92	30120.35
578.08	30061.84
578.24	30029.07
578.40	29965.88
578.56	30249.08
578.72	30295.89
578.88	30366.11
579.04	30403.56
579.21	30363.77
579.37	30480.80
579.53	30370.79
579.69	30176.53
579.85	30057.16
580.01	30321.64
580.17	30305.26
580.33	30534.63
580.49	30300.58
580.65	30483.14
580.82	30438.67
580.98	30197.59
581.14	30338.02
581.30	30487.82
581.46	30375.47
581.62	30433.99
581.78	30143.76
581.94	30263.13
582.10	30019.71
582.26	30281.85
582.42	30281.85
582.58	30270.15
582.74	29998.65
582.90	30820.17
583.06	30539.31
583.22	30398.88
583.38	30663.36
583.54	30513.56
583.70	30106.31
583.86	30508.88
584.02	30338.02
584.18	30370.79
584.34	30110.99
584.50	30831.88
584.66	30553.35
584.82	30094.61
584.98	30352.07
585.14	30565.06
585.30	30073.54
585.46	30284.19
585.62	30333.34
585.78	30855.28
585.94	29986.94
586.10	30714.85
586.26	30602.50
586.42	30892.73
586.58	30742.94
586.74	30546.33
586.90	30295.89
587.06	30162.48
587.22	30384.83
587.38	30632.93
587.54	30785.07
587.70	30995.71
587.86	30838.90
588.02	30761.66
588.18	30897.41
588.34	30668.04
588.49	30792.09
588.65	30766.34
588.81	30682.08
588.97	30548.67
589.13	30602.50
589.29	30520.59
589.45	30574.42
589.61	30733.57
589.77	31206.36
589.93	30740.60
590.08	30469.09
590.24	30951.24
590.40	30789.75
590.56	30593.14
590.72	30930.18
590.88	30590.80
591.04	30529.95
591.20	30911.46
591.35	31133.81
591.51	31042.53
591.67	31068.27
591.83	31189.98
591.99	31227.43
592.15	31227.43
592.31	31318.71
592.46	30611.87
592.62	30668.04
592.78	30623.57
592.94	30593.14
593.10	30607.19
593.26	31101.04
593.41	31229.77
593.57	30918.48
593.73	30813.15
593.89	30951.24
594.05	30721.87
594.20	31192.32
594.36	30960.61
594.52	30794.43
594.68	31119.76
594.84	30925.50
594.99	30466.75
595.15	31033.16
595.31	30967.63
595.47	30888.05
595.62	31002.74
595.78	30806.13
595.94	31007.42
596.10	31117.42
596.25	30902.09
596.41	30878.69
596.57	30764.00
596.73	31325.73
596.88	30834.22
597.04	30808.47
597.20	30686.76
597.36	31021.46
597.51	31459.14
597.67	31070.61
597.83	31077.63
597.99	31103.38
598.14	31021.46
598.30	31016.78
598.46	30735.92
598.61	31082.31
598.77	31515.31
598.93	31157.21
599.09	31276.58
599.24	31164.23
599.40	31262.54
599.56	31433.39
599.71	31084.65
599.87	30925.50
600.03	30806.13
600.18	31101.04
600.34	30941.88
600.50	31030.82
600.65	30946.56
600.81	30958.27
600.97	30925.50
601.12	31503.61
601.28	31105.72
601.44	31033.16
601.59	31033.16
601.75	31215.72
601.91	31372.54
602.06	30969.97
602.22	31138.49
602.37	30984.01
602.53	31164.23
602.69	31105.72
602.84	31016.78
603.00	30927.84
603.16	31346.79
603.31	31398.29
603.47	31154.87
603.62	30897.41
603.78	31049.55
603.94	31033.16
604.09	31124.44
604.25	31082.31
604.40	31335.09
604.56	30874.01
604.71	31236.79
604.87	31154.87
605.03	31175.94
605.18	31264.88
605.34	31159.55
605.49	30820.17
605.65	31145.51
605.80	30998.06
605.96	30827.20
606.12	30597.82
606.27	31424.03
606.43	30948.90
606.58	31182.96
606.74	31463.82
606.89	30747.62
607.05	31227.43
607.20	30972.31
607.36	30958.27
607.51	30651.66
607.67	31072.95
607.82	30782.73
607.98	30848.26
608.13	31185.30
608.29	30710.17
608.44	30724.21
608.60	30974.65
608.75	31197.00
608.91	31239.13
609.06	30719.53
609.22	30906.77
609.37	30719.53
609.53	30829.54
609.68	30642.29
609.84	30937.20
609.99	30721.87
610.15	30967.63
610.30	31271.90
610.46	30574.42
610.61	30808.47
610.76	31040.18
610.92	30866.98
611.07	30738.26
611.23	30895.07
611.38	30539.31
611.54	30576.76
611.69	30663.36
611.84	30551.01
612.00	30345.05
612.15	30272.49
612.31	30848.26
612.46	30361.43
612.62	31028.48
612.77	30684.42
612.92	30567.40
613.08	30438.67
613.23	30876.35
613.39	30462.07
613.54	30333.34
613.69	30504.20
613.85	30473.78
614.00	30345.05
614.15	30651.66
614.31	30499.52
614.46	30899.75
614.62	30618.89
614.77	30618.89
614.92	30410.58
615.08	30455.05
615.23	30366.11
615.38	30401.22
615.54	30396.54
615.69	30485.48
615.84	30319.30
616.00	30623.57
616.15	30363.77
616.30	30183.55
616.46	30429.30
616.61	30483.14
616.76	30707.83
616.92	30352.07
617.07	30331.00
617.22	30127.38
617.37	30359.09
617.53	30015.03
617.68	30253.76
617.83	30068.86
617.99	30246.74
618.14	30253.76
618.29	30080.56
618.45	30178.87
618.60	30136.74
618.75	30047.80
618.90	29958.86
619.06	30258.45
619.21	30265.47
619.36	29766.93
619.51	30125.04
619.67	29593.73
619.82	29699.06
619.97	30232.70
620.12	29685.01
620.28	29507.13
620.43	29778.64
620.58	30373.13
620.73	30022.05
620.89	29778.64
621.04	30195.25
621.19	29855.87
621.34	29776.30
621.49	30008.01
621.65	29600.76
621.80	30015.03
621.95	29507.13
622.10	29502.45
622.25	29970.56
622.41	29537.56
622.56	29771.61
622.71	29804.38
622.86	29621.82
623.01	29879.28
623.16	29322.23
623.32	29713.10
623.47	29638.20
623.62	29560.97
623.77	29350.32
623.92	29820.77
624.07	29158.39
624.23	29717.78
624.38	29647.57
624.53	29345.64
624.68	29345.64
624.83	29682.67
624.98	29699.06
625.13	29289.46
625.29	29525.86
625.44	29223.93
625.59	29694.38
625.74	29055.41
625.89	29642.88
626.04	28872.85
626.19	29352.66
626.34	29460.32
626.49	28929.02
626.65	29560.97
626.80	29411.17
626.95	29383.09
627.10	28889.23
627.25	29158.39
627.40	28774.55
627.55	29146.69
627.70	28608.37
627.85	28884.55
628.00	28636.45
628.15	29167.76
628.30	29090.52
628.45	28835.40
628.60	28507.72
628.76	28713.69
628.91	29282.44
629.06	29006.26
629.21	29013.28
629.36	29172.44
629.51	28762.84
629.66	28833.06
629.81	28816.68
629.96	28837.74
630.11	28430.49
630.26	28788.59
630.41	28397.72
630.56	28599.01
630.71	28870.51
630.86	28364.95
631.01	28945.41
631.16	28477.30
631.31	29034.35
631.46	28741.78
631.61	28463.25
631.76	28762.84
631.91	28596.67
632.06	28383.68
632.21	28266.65
632.36	28599.01
632.51	28428.15
632.66	28573.26
632.81	28112.17
632.96	28222.18
633.10	28271.33
633.25	28739.44
633.40	28615.39
633.55	28414.10
633.70	28123.88
633.85	28364.95
634.00	28051.32
634.15	28140.26
634.30	28278.35
634.45	28243.24
634.60	27948.34
634.75	28547.51
634.90	28311.12
635.05	28177.71
635.19	28266.65
635.34	28559.22
635.49	28259.63
635.64	28229.20
635.79	28182.39
635.94	28381.34
636.09	28325.16
636.24	27824.29
636.39	27985.79
636.53	28201.11
636.68	28297.08
636.83	27688.54
636.98	28198.77
637.13	28079.41
637.28	28074.73
637.43	28491.34
637.57	28091.11
637.72	27964.72
637.87	27805.56
638.02	27962.38
638.17	28250.27
638.32	27550.45
638.46	27646.41
638.61	27599.60
638.76	27639.39
638.91	27768.12
639.06	27730.67
639.20	27459.16
639.35	27812.59
639.50	27534.06
639.65	27711.94
639.80	28044.30
639.94	27807.90
640.09	27630.02
640.24	27747.05
640.39	27632.36
640.54	27433.42
640.68	27527.04
640.83	27517.68
640.98	27566.83
641.13	27335.12
641.27	27414.69
641.42	27349.16
641.57	27770.46
641.72	27285.97
641.86	27047.23
642.01	27124.47
642.16	27681.52
642.31	27080.00
642.45	27639.39
642.60	27089.36
642.75	27171.28
642.90	27002.76
643.04	27051.91
643.19	27358.52
643.34	27229.79
643.48	27304.69
643.63	27550.45
643.78	27314.05
643.93	27580.87
644.07	27260.22
644.22	27295.33
644.37	27395.97
644.51	27484.91
644.66	27023.83
644.81	26897.44
644.95	27314.05
645.10	27370.22
645.25	27131.49
645.39	27129.15
645.54	26836.58
645.69	27005.10
645.83	27021.48
645.98	27372.57
646.13	26974.67
646.27	26904.46
646.42	27054.25
646.57	26724.24
646.71	27044.89
646.86	27220.43
647.00	26965.31
647.15	26806.16
647.30	26745.30
647.44	26815.52
647.59	26852.97
647.74	26888.07
647.88	26536.99
648.03	26841.26
648.17	26899.78
648.32	26965.31
648.47	27096.38
648.61	26703.17
648.76	26796.79
648.90	26675.09
649.05	26635.30
649.20	26841.26
649.34	26321.66
649.49	26242.09
649.63	26316.98
649.78	26415.29
649.92	26380.18
650.07	26876.37
650.21	26799.13
650.36	26316.98
650.51	26529.97
650.65	26146.12
650.80	26195.28
650.94	26441.03
651.09	26462.10
651.23	26335.71
651.38	26309.96
651.52	26270.17
651.67	26286.56
651.81	26312.30
651.96	26157.83
652.10	26387.20
652.25	26593.17
652.39	26223.36
652.54	26300.60
652.68	26134.42
652.83	26352.09
652.97	26387.20
653.12	26394.22
653.26	26029.10
653.41	26434.01
653.55	25991.65
653.70	26178.89
653.84	26150.81
653.99	25851.22
654.13	25914.41
654.27	25598.44
654.42	26050.16
654.56	26073.57
654.71	26394.22
654.85	26092.29
655.00	25869.94
655.14	26019.74
655.29	26038.46
655.43	26038.46
655.57	25820.79
655.72	25942.50
655.86	26101.65
656.01	25706.10
656.15	25678.02
656.30	26103.99
656.44	25741.21
656.58	25467.37
656.73	25631.21
656.87	25790.36
657.01	25813.77
657.16	25869.94
657.30	25848.88
657.45	25773.98
657.59	26178.89
657.73	25542.27
657.88	25830.15
658.02	25338.64
658.16	25593.76
658.31	25106.93
658.45	25422.90
658.60	25511.84
658.74	25331.62
658.88	25221.61
659.03	25610.14
659.17	25186.50
659.31	25223.95
659.46	25113.95
659.60	25291.83
659.74	25556.31
659.89	25671.00
660.03	25331.62
660.17	25219.27
660.32	25149.06
660.46	25137.35
660.60	24732.44
660.74	24666.91
660.89	25001.60
661.03	24690.31
661.17	25165.44
661.32	24872.87
661.46	24840.11
661.60	25017.99
661.74	25235.66
661.89	24893.94
662.03	24769.89
662.17	25123.31
662.31	24641.16
662.46	24762.87
662.60	24568.60
662.74	24292.42
662.88	24615.41
663.03	24563.92
663.17	24584.99
663.31	24395.40
663.45	24690.31
663.60	24177.73
663.74	24535.84
663.88	24687.97
664.02	24353.27
664.17	24655.20
664.31	24444.56
664.45	24465.62
664.59	24098.16
664.73	24034.96
664.88	24212.84
665.02	23978.79
665.16	24348.59
665.30	23983.47
665.44	24208.16
665.59	23711.97
665.73	24098.16
665.87	23913.25
666.01	24184.76
666.15	24161.35
666.29	23679.20
666.44	23742.39
666.58	23826.65
666.72	23924.96
666.86	23915.59
667.00	23913.25
667.14	23517.70
667.28	23672.18
667.43	23506.00
667.57	23555.15
667.71	23407.70
667.85	23527.06
667.99	23063.64
668.13	23665.16
668.27	23283.65
668.41	23197.05
668.56	23433.44
668.70	23410.04
668.84	23377.27
668.98	23384.29
669.12	23662.82
669.26	23026.19
669.40	22878.74
669.54	23278.97
669.68	22738.30
669.82	22789.80
669.96	23030.87
670.10	22436.38
670.25	22864.69
670.39	22761.71
670.53	22761.71
670.67	22651.70
670.81	23019.17
670.95	22644.68
671.09	22986.40
671.23	22590.85
671.37	22955.97
671.51	22937.25
671.65	22848.31
671.79	22569.79
671.93	22717.24
672.07	22431.69
672.21	22450.42
672.35	22291.26
672.49	22071.25
672.63	21998.70
672.77	21989.33
672.91	22258.49
673.05	22239.77
673.19	21937.84
673.33	22160.19
673.47	22005.72
673.61	21968.27
673.75	22094.66
673.89	21947.20
674.03	22059.55
674.17	21869.97
674.31	21818.47
674.45	21802.09
674.59	21874.65
674.73	21621.87
674.87	21596.12
675.01	21249.72
675.15	21298.88
675.29	21270.79
675.43	21469.73
675.56	21392.50
675.70	21523.57
675.84	21212.28
675.98	20954.82
676.12	21010.99
676.26	21511.86
676.40	21259.09
676.54	21284.83
676.68	21074.18
676.82	20589.69
676.96	21060.14
677.10	20535.86
677.23	20601.40
677.37	20563.95
677.51	20919.71
677.65	20685.65
677.79	20407.13
677.93	20561.61
678.07	20451.60
678.21	20425.86
678.34	20425.86
678.48	20030.30
678.62	20369.68
678.76	19939.02
678.90	20027.96
679.04	20187.12
679.18	20341.60
679.31	19501.34
679.45	19812.63
679.59	19730.72
679.73	19597.31
679.87	19559.86
680.00	19360.91
680.14	19880.51
680.28	19501.34
680.42	19302.40
680.56	19583.26
680.70	19470.92
680.83	19466.24
680.97	19335.17
681.11	19012.17
681.25	19005.15
681.39	19103.45
681.52	19208.78
681.66	19042.60
681.80	18810.89
681.94	18815.57
682.07	19005.15
682.21	18831.95
682.35	18567.47
682.49	18466.83
682.62	18611.94
682.76	18473.85
682.90	18340.44
683.04	18656.41
683.17	18544.06
683.31	18499.59
683.45	18211.71
683.59	18394.27
683.72	18127.45
683.86	18195.32
684.00	17989.36
684.13	17858.29
684.27	17944.89
684.41	17778.71
684.55	17834.88
684.68	17568.06
684.82	17804.46
684.96	17708.49
685.09	17474.44
685.23	17373.80
685.37	17453.37
685.50	17387.84
685.64	17614.87
685.78	17502.53
685.91	17612.53
686.05	17303.58
686.19	16957.18
686.32	17366.78
686.46	16999.31
686.60	17085.91
686.73	16903.35
686.87	16552.27
687.01	16844.84
687.14	16844.84
687.28	16652.91
687.42	16568.65
687.55	16339.28
687.69	16421.20
687.82	16362.69
687.96	16554.61
688.10	16332.26
688.23	16245.66
688.37	16360.34
688.50	16514.82
688.64	16414.18
688.78	16177.78
688.91	15971.82
689.05	15936.71
689.18	16072.46
689.32	15557.54
689.46	15803.30
689.59	15786.91
689.73	15728.40
689.86	15824.36
690.00	15864.15
690.13	15571.58
690.27	15557.54
690.41	15669.89
690.54	15405.41
690.68	15531.80
690.81	15382.00
690.95	15499.03
691.08	15445.20
691.22	15016.88
691.35	15054.33
691.49	15215.82
691.62	14986.45
691.76	15028.58
691.89	14876.44
692.03	14670.48
692.16	14717.29
692.30	14576.86
692.43	14789.85
692.57	14658.78
692.70	14897.51
692.84	14644.73
692.97	14611.96
693.11	14689.20
693.24	14216.41
693.38	14279.61
693.51	14403.66
693.65	14146.20
693.78	14104.07
693.92	14038.53
694.05	14164.92
694.19	14120.45
694.32	14026.83
694.45	13965.98
694.59	13797.46
694.72	13661.71
694.86	13500.21
694.99	13413.61
695.13	13474.46
695.26	13561.06
695.39	13116.36
695.53	13607.87
695.66	13549.36
695.80	13350.42
695.93	13511.91
696.07	13404.25
696.20	13523.62
696.33	13013.38
696.47	13099.98
696.60	12992.31
696.73	12985.29
696.87	13006.36
697.00	13146.79
697.14	12699.75
697.27	12486.76
697.40	12594.42
697.54	12690.38
697.67	12358.03
697.80	12578.04
697.94	12451.65
698.07	12484.42
698.21	12311.22
698.34	12463.35
698.47	12559.31
698.61	12409.52
698.74	12390.80
698.87	12056.10
699.01	12063.12
699.14	12128.66
699.27	11932.05
699.40	11985.88
699.54	11960.14
699.67	11845.45
699.80	11428.84
699.94	11889.92
700.07	11686.29
700.20	11599.70
700.34	11487.35
700.47	11307.13
700.60	11627.78
700.73	11702.68
700.87	11548.20
701.00	11302.45
701.13	11536.50
701.26	11222.87
701.40	11524.80
701.53	11466.28
701.66	11288.40
701.79	10991.16
701.93	11257.98
702.06	11087.12
702.19	10906.90
702.32	11094.14
702.46	10860.09
702.59	10813.28
702.72	10789.87
702.85	10602.63
702.99	10710.29
703.12	10649.44
703.25	10436.45
703.38	10424.75
703.51	10483.26
703.65	10431.77
703.78	10441.13
703.91	10349.85
704.04	10443.47
704.17	10583.90
704.31	10375.59
704.44	10235.16
704.57	9961.32
704.70	10115.80
704.83	9783.44
704.96	10026.86
705.10	9748.33
705.23	9701.52
>>>>>End Processed Spectral Data<<<<<
