SpectraSuite Data File
++++++++++++++++++++++++++++++++++++
Date: Fri Oct 18 13:58:11 GMT-05:00 2013
User: bianchi
Dark Spectrum Present: No
Reference Spectrum Present: No
Number of Sampled Component Spectra: 1
Spectrometers: USB2+H05261
Integration Time (usec): 50000 (USB2+H05261)
Spectra Averaged: 1 (USB2+H05261)
Boxcar Smoothing: 0 (USB2+H05261)
Correct for Electrical Dark: No (USB2+H05261)
Strobe/Lamp Enabled: No (USB2+H05261)
Correct for Detector Non-linearity: No (USB2+H05261)
Correct for Stray Light: No (USB2+H05261)
Number of Pixels in Processed Spectrum: 2048
>>>>>Begin Processed Spectral Data<<<<<
365.73	0.00
365.92	0.00
366.12	0.00
366.32	0.00
366.52	0.00
366.72	0.00
366.91	0.00
367.11	0.00
367.31	0.00
367.51	0.00
367.70	0.00
367.90	0.00
368.10	0.00
368.30	0.00
368.49	0.00
368.69	0.00
368.89	0.00
369.09	0.00
369.28	0.00
369.48	0.00
369.68	0.00
369.87	0.00
370.07	0.00
370.27	0.00
370.47	0.00
370.66	65.54
370.86	138.09
371.06	23.41
371.25	180.22
371.45	135.75
371.65	159.16
371.84	159.16
372.04	119.37
372.24	114.69
372.44	142.77
372.63	126.39
372.83	133.41
373.03	222.35
373.22	255.12
373.42	187.24
373.62	210.65
373.81	236.39
374.01	205.97
374.21	283.20
374.40	276.18
374.60	250.44
374.79	273.84
374.99	259.80
375.19	222.35
375.38	231.71
375.58	210.65
375.78	250.44
375.97	248.10
376.17	372.15
376.37	245.76
376.56	283.20
376.76	301.93
376.95	227.03
377.15	330.02
377.35	294.91
377.54	285.55
377.74	212.99
377.93	264.48
378.13	301.93
378.33	332.36
378.52	236.39
378.72	332.36
378.91	276.18
379.11	365.12
379.31	320.65
379.50	280.86
379.70	346.40
379.89	344.06
380.09	322.99
380.28	311.29
380.48	259.80
380.68	301.93
380.87	348.74
381.07	344.06
381.26	334.70
381.46	346.40
381.65	306.61
381.85	283.20
382.04	278.52
382.24	330.02
382.43	315.97
382.63	285.55
382.83	409.59
383.02	315.97
383.22	411.93
383.41	278.52
383.61	367.46
383.80	437.68
384.00	418.96
384.19	411.93
384.39	395.55
384.58	416.62
384.78	433.00
384.97	372.15
385.17	383.85
385.36	437.68
385.56	367.46
385.75	442.36
385.95	374.49
386.14	409.59
386.34	358.10
386.53	479.81
386.72	414.27
386.92	421.30
387.11	449.38
387.31	416.62
387.50	430.66
387.70	458.74
387.89	358.10
388.09	402.57
388.28	496.19
388.48	358.10
388.67	519.60
388.86	444.70
389.06	454.06
389.25	482.15
389.45	458.74
389.64	535.98
389.84	514.92
390.03	519.60
390.22	482.15
390.42	519.60
390.61	395.55
390.81	521.94
391.00	465.77
391.19	554.71
391.39	620.24
391.58	589.82
391.78	557.05
391.97	526.62
392.16	575.77
392.36	510.24
392.55	540.66
392.75	498.53
392.94	596.84
393.13	571.09
393.33	566.41
393.52	578.11
393.71	631.94
393.91	594.50
394.10	587.47
394.29	620.24
394.49	531.30
394.68	631.94
394.88	622.58
395.07	627.26
395.26	685.78
395.46	594.50
395.65	521.94
395.84	596.84
396.04	702.16
396.23	720.88
396.42	718.54
396.62	688.12
396.81	739.61
397.00	657.69
397.19	645.99
397.39	688.12
397.58	730.25
397.77	725.57
397.97	657.69
398.16	709.18
398.35	671.73
398.55	688.12
398.74	692.80
398.93	760.67
399.12	770.04
399.32	734.93
399.51	772.38
399.70	772.38
399.90	805.14
400.09	800.46
400.28	713.86
400.47	802.80
400.67	823.87
400.86	798.12
401.05	812.17
401.24	919.83
401.44	795.78
401.63	856.64
401.82	741.95
402.01	805.14
402.21	809.83
402.40	791.10
402.59	870.68
402.78	894.08
402.97	870.68
403.17	849.61
403.36	978.34
403.55	901.11
403.74	889.40
403.93	980.68
404.13	1004.09
404.32	1011.11
404.51	950.26
404.70	926.85
404.89	889.40
405.09	1055.58
405.28	851.96
405.47	950.26
405.66	992.39
405.85	1050.90
406.05	976.00
406.24	1022.81
406.43	980.68
406.62	994.73
406.81	1046.22
407.00	1053.24
407.20	1100.05
407.39	1055.58
407.58	1109.41
407.77	1043.88
407.96	1036.86
408.15	1095.37
408.34	1008.77
408.54	1144.52
408.73	1146.86
408.92	1139.84
409.11	1179.63
409.30	1121.12
409.49	1132.82
409.68	1203.04
409.87	1203.04
410.07	1268.57
410.26	1254.53
410.45	1144.52
410.64	1121.12
410.83	1149.20
411.02	1320.06
411.21	1252.19
411.40	1277.93
411.59	1282.61
411.78	1357.51
411.98	1266.23
412.17	1320.06
412.36	1308.36
412.55	1320.06
412.74	1362.19
412.93	1430.07
413.12	1357.51
413.31	1472.20
413.50	1376.24
413.69	1261.55
413.88	1418.36
414.07	1455.81
414.26	1603.27
414.45	1453.47
414.64	1481.56
414.83	1575.18
415.02	1544.75
415.22	1619.65
415.41	1612.63
415.60	1533.05
415.79	1483.90
415.98	1619.65
416.17	1561.14
416.36	1624.33
416.55	1689.87
416.74	1654.76
416.93	1659.44
417.12	1710.93
417.31	1706.25
417.50	1671.14
417.69	1806.89
417.88	1652.42
418.07	1739.02
418.26	1809.23
418.45	1823.28
418.64	1879.45
418.83	1776.47
419.02	1788.17
419.21	1872.43
419.39	1926.26
419.58	1837.32
419.77	1795.19
419.96	1858.39
420.15	1853.70
420.34	1870.09
420.53	1947.33
420.72	1944.99
420.91	2012.86
421.10	1912.22
421.29	1937.96
421.48	2017.54
421.67	2062.01
421.86	1919.24
422.05	2080.74
422.24	2078.40
422.43	2001.16
422.61	1994.14
422.80	2017.54
422.99	1952.01
423.18	2204.78
423.37	2157.97
423.56	2050.31
423.75	2010.52
423.94	1989.46
424.13	1966.05
424.32	1942.64
424.50	2076.06
424.69	2134.57
424.88	2038.61
425.07	2078.40
425.26	2127.55
425.45	2031.58
425.64	2129.89
425.83	2069.03
426.01	2122.87
426.20	2118.18
426.39	2143.93
426.58	2097.12
426.77	2188.40
426.96	2118.18
427.15	2207.13
427.33	2232.87
427.52	2085.42
427.71	2160.31
427.90	2157.97
428.09	2183.72
428.28	2139.25
428.46	2207.13
428.65	2253.94
428.84	2267.98
429.03	2286.70
429.22	2230.53
429.40	2340.54
429.59	2275.00
429.78	2125.21
429.97	2263.30
430.16	2179.04
430.34	2455.22
430.53	2361.60
430.72	2347.56
430.91	2331.17
431.10	2422.45
431.28	2443.52
431.47	2406.07
431.66	2406.07
431.85	2373.30
432.03	2466.92
432.22	2424.80
432.41	2471.61
432.60	2555.86
432.79	2471.61
432.97	2518.42
433.16	2485.65
433.35	2504.37
433.54	2588.63
433.72	2520.76
433.91	2621.40
434.10	2614.38
434.28	2546.50
434.47	2593.31
434.66	2544.16
434.85	2689.28
435.03	2740.77
435.22	2569.91
435.41	2745.45
435.59	2661.19
435.78	2719.70
435.97	2665.87
436.16	2740.77
436.34	2738.43
436.53	2724.38
436.72	2878.86
436.90	2663.53
437.09	2747.79
437.28	2602.68
437.46	2761.83
437.65	2752.47
437.84	2871.84
438.02	2799.28
438.21	2789.92
438.40	2775.88
438.58	3040.36
438.77	2925.67
438.96	2916.31
439.14	3019.29
439.33	3033.33
439.52	3028.65
439.70	2972.48
439.89	3063.76
440.08	3066.10
440.26	3049.72
440.45	3087.17
440.63	3180.79
440.82	3152.70
441.01	3178.45
441.19	3162.06
441.38	3344.63
441.57	3405.48
441.75	3368.03
441.94	3222.92
442.12	3391.44
442.31	3440.59
442.50	3332.92
442.68	3276.75
442.87	3351.65
443.05	3414.84
443.24	3520.17
443.43	3487.40
443.61	3473.36
443.80	3674.64
443.98	3335.26
444.17	3468.67
444.35	3344.63
444.54	3597.40
444.73	3506.12
444.91	3503.78
445.10	3508.46
445.28	3496.76
445.47	3382.07
445.65	3529.53
445.84	3496.76
446.02	3492.08
446.21	3480.38
446.39	3627.83
446.58	3550.59
446.77	3548.25
446.95	3548.25
447.14	3684.00
447.32	3637.19
447.51	3478.04
447.69	3538.89
447.88	3597.40
448.06	3487.40
448.25	3669.96
448.43	3590.38
448.62	3634.85
448.80	3634.85
448.99	3641.87
449.17	3756.56
449.36	3641.87
449.54	3798.69
449.73	3712.09
449.91	3742.52
450.10	3768.26
450.28	3805.71
450.46	3871.25
450.65	3712.09
450.83	3728.47
451.02	3805.71
451.20	3927.42
451.39	3770.60
451.57	3786.99
451.76	3749.54
451.94	3990.61
452.13	4065.51
452.31	3840.82
452.49	3798.69
452.68	3873.59
452.86	3929.76
453.05	3962.53
453.23	3957.85
453.42	4028.06
453.60	3964.87
453.78	3967.21
453.97	4042.11
454.15	4044.45
454.34	4086.58
454.52	4074.87
454.70	3990.61
454.89	4053.81
455.07	4014.02
455.26	4224.67
455.44	4248.07
455.62	4297.22
455.81	4138.07
455.99	4320.63
456.17	4353.40
456.36	4177.86
456.54	4175.52
456.73	4339.35
456.91	4308.93
457.09	4259.78
457.28	4475.10
457.46	4432.97
457.64	4554.68
457.83	4592.13
458.01	4479.79
458.19	4496.17
458.38	4409.57
458.56	4580.43
458.74	4472.76
458.93	4582.77
459.11	4603.83
459.29	4421.27
459.48	4573.41
459.66	4564.04
459.84	4671.71
460.03	4674.05
460.21	4645.96
460.39	4645.96
460.57	4454.04
460.76	4709.16
460.94	4713.84
461.12	4692.77
461.31	4624.90
461.49	4613.20
461.67	4706.82
461.85	4844.91
462.04	4674.05
462.22	5226.42
462.40	4856.61
462.59	4812.14
462.77	4950.23
462.95	4861.29
463.13	4788.74
463.32	5018.11
463.50	4880.02
463.68	4924.49
463.86	4884.70
464.05	4865.97
464.23	4940.87
464.41	5015.77
464.59	4844.91
464.78	5111.73
464.96	5022.79
465.14	5064.92
465.32	5121.09
465.50	5165.56
465.69	5184.29
465.87	5029.81
466.05	4971.30
466.23	5097.69
466.41	5184.29
466.60	5235.78
466.78	5163.22
466.96	5137.48
467.14	5156.20
467.32	5289.61
467.51	5355.15
467.69	5146.84
467.87	5224.08
468.05	5362.17
468.23	5310.68
468.41	5397.28
468.60	5380.89
468.78	5401.96
468.96	5205.35
469.14	5331.74
469.32	5451.11
469.50	5291.95
469.69	5570.48
469.87	5504.94
470.05	5467.49
470.23	5610.26
470.41	5509.62
470.59	5540.05
470.77	5469.83
470.95	5792.83
471.14	5603.24
471.32	5659.42
471.50	5774.10
471.68	5736.65
471.86	5710.91
472.04	5708.57
472.22	5907.51
472.40	5806.87
472.58	5942.62
472.77	5851.34
472.95	5940.28
473.13	6230.51
473.31	5907.51
473.49	5881.77
473.67	6139.23
473.85	6176.67
474.03	6211.78
474.21	6069.01
474.39	6258.59
474.57	6328.81
474.75	6251.57
474.93	6335.83
475.12	6272.64
475.30	6452.86
475.48	6289.02
475.66	6239.87
475.84	6399.02
476.02	6562.86
476.20	6572.22
476.38	6612.01
476.56	6731.38
476.74	6609.67
476.92	6586.27
477.10	6747.76
477.28	6703.29
477.46	6979.48
477.64	6691.59
477.82	6986.50
478.00	7164.38
478.18	7140.97
478.36	7124.59
478.54	7215.87
478.72	7197.15
478.90	7337.58
479.08	7316.51
479.26	7337.58
479.44	7433.54
479.62	7529.50
479.80	7550.57
479.98	7761.22
480.16	7716.75
480.34	7634.83
480.52	7805.69
480.70	7850.16
480.88	7613.76
481.06	7803.35
481.24	7901.65
481.41	7941.44
481.59	8100.59
481.77	8224.64
481.95	8285.50
482.13	8325.29
482.31	8163.79
482.49	8500.83
482.67	8306.56
482.85	8514.87
483.03	8601.47
483.21	8692.75
483.39	8716.16
483.57	8772.33
483.74	8835.52
483.92	8802.75
484.10	8959.57
484.28	9102.34
484.46	9254.48
484.64	9518.96
484.82	9207.67
485.00	9359.80
485.18	9376.19
485.35	9514.28
485.53	9645.35
485.71	9603.22
485.89	9980.04
486.07	9837.27
486.25	9881.74
486.43	9858.34
486.61	9909.83
486.78	9977.70
486.96	10193.03
487.14	10164.95
487.32	10174.31
487.50	10455.17
487.68	10569.86
487.85	10679.86
488.03	10761.78
488.21	10754.76
488.39	10897.53
488.57	10995.84
488.75	10934.98
488.92	11016.90
489.10	11265.00
489.28	11138.61
489.46	11447.56
489.64	11262.66
489.81	11447.56
489.99	11637.14
490.17	11477.99
490.35	11885.24
490.53	11887.58
490.70	11932.05
490.88	11796.30
491.06	12028.01
491.24	12133.34
491.41	12173.13
491.59	12119.29
491.77	12222.28
491.95	12573.36
492.13	12486.76
492.30	12535.91
492.48	12795.71
492.66	12676.34
492.84	12514.84
493.01	12994.65
493.19	12692.73
493.37	13043.81
493.54	13039.12
493.72	13123.38
493.90	13224.03
494.08	13331.69
494.25	13511.91
494.43	13635.96
494.61	13855.97
494.79	13699.16
494.96	13600.85
495.14	13748.31
495.32	13954.27
495.49	13994.06
495.67	14017.47
495.85	14228.12
496.02	14101.73
496.20	14174.28
496.38	14122.79
496.55	14125.13
496.73	14516.00
496.91	14450.47
497.09	14761.76
497.26	14731.33
497.44	14740.69
497.62	14703.25
497.79	14867.08
497.97	14993.47
498.14	15332.85
498.32	15145.61
498.50	15190.08
498.67	15506.05
498.85	15435.83
499.03	15323.49
499.20	15506.05
499.38	15496.69
499.56	15492.01
499.73	15894.58
499.91	15613.71
500.08	15573.92
500.26	15751.81
500.44	15878.19
500.61	15786.91
500.79	15700.31
500.97	16044.37
501.14	16067.78
501.32	16353.32
501.49	16219.91
501.67	16360.34
501.84	16259.70
502.02	16325.24
502.20	16318.22
502.37	16671.64
502.55	16599.08
502.72	16606.10
502.90	16617.80
503.07	16568.65
503.25	16872.92
503.43	16664.61
503.60	16751.21
503.78	17081.23
503.95	17020.38
504.13	16982.93
504.30	16996.97
504.48	17312.94
504.65	17247.41
504.83	17418.27
505.01	17675.73
505.18	17427.63
505.36	17795.09
505.53	17380.82
505.71	17532.95
505.88	17547.00
506.06	17577.42
506.23	17699.13
506.41	17823.18
506.58	17741.26
506.76	17617.21
506.93	17820.84
507.11	17991.70
507.28	18380.23
507.46	18012.76
507.63	17963.61
507.81	18258.52
507.98	18431.72
508.16	18281.92
508.33	18232.77
508.50	18312.35
508.68	18555.77
508.85	18721.95
509.03	18593.22
509.20	18520.66
509.38	18738.33
509.55	18867.06
509.73	18775.78
509.90	18857.70
510.08	18860.04
510.25	18801.52
510.42	19030.90
510.60	18864.72
510.77	19192.39
510.95	19026.21
511.12	18801.52
511.30	19269.63
511.47	19534.11
511.64	19475.60
511.82	19648.80
511.99	19592.62
512.17	19882.85
512.34	19543.47
512.51	19807.95
512.69	19641.78
512.86	19840.72
513.04	20027.96
513.21	19758.80
513.38	19997.54
513.56	20250.32
513.73	20030.30
513.90	19950.73
514.08	19990.52
514.25	20091.16
514.43	20201.16
514.60	20236.27
514.77	20369.68
514.95	20238.61
515.12	20070.09
515.29	20587.35
515.47	20397.77
515.64	20634.16
515.81	20456.28
515.99	21013.33
516.16	21046.10
516.33	20875.24
516.51	20903.32
516.68	20699.70
516.85	21015.67
517.03	21032.05
517.20	21027.37
517.37	21102.27
517.54	20898.64
517.72	20947.79
517.89	21036.74
518.06	20992.26
518.24	21364.41
518.41	21092.91
518.58	21291.85
518.75	21380.79
518.93	21532.93
519.10	21537.61
519.27	21678.04
519.45	21553.99
519.62	21465.05
519.79	21551.65
519.96	21418.24
520.14	22071.25
520.31	21820.81
520.48	22197.64
520.65	22052.53
520.83	22099.34
521.00	21809.11
521.17	22064.23
521.34	22242.11
521.52	22167.21
521.69	22078.27
521.86	22412.97
522.03	22291.26
522.20	21998.70
522.38	22277.22
522.55	22288.92
522.72	22209.34
522.89	22408.29
523.07	22775.75
523.24	22569.79
523.41	22888.10
523.58	22541.70
523.75	22480.85
523.92	22693.83
524.10	22532.34
524.27	22909.16
524.44	22860.01
524.61	23002.78
524.78	23005.13
524.96	23133.86
525.13	22916.19
525.30	23171.30
525.47	23131.51
525.64	23175.98
525.81	23403.02
525.98	23477.91
526.16	23318.76
526.33	23585.58
526.50	23831.33
526.67	23442.81
526.84	23517.70
527.01	23159.60
527.18	23616.01
527.36	23463.87
527.53	23613.66
527.70	24114.54
527.87	23885.17
528.04	23913.25
528.21	23955.38
528.38	23943.68
528.55	24056.03
528.72	23850.06
528.89	23988.15
529.07	23901.55
529.24	24299.44
529.41	23978.79
529.58	24121.56
529.75	24173.05
529.92	24067.73
530.09	24360.30
530.26	24271.36
530.43	24694.99
530.60	24325.19
530.77	24364.98
530.94	24472.64
531.11	24243.27
531.28	24336.89
531.46	24446.90
531.63	24664.57
531.80	24844.79
531.97	24781.59
532.14	24819.04
532.31	24826.06
532.48	24446.90
532.65	24769.89
532.82	24856.49
532.99	24926.71
533.16	24760.53
533.33	25226.29
533.50	25228.63
533.67	24704.35
533.84	24922.02
534.01	25188.85
534.18	24716.06
534.35	25116.29
534.52	25500.14
534.69	25085.86
534.86	25488.43
535.03	25071.82
535.20	25078.84
535.37	25359.70
535.54	25785.68
535.71	25287.15
535.88	25446.30
536.05	25671.00
536.22	25689.72
536.38	25596.10
536.55	25579.71
536.72	25717.81
536.89	25226.29
537.06	25397.15
537.23	25745.89
537.40	25483.75
537.57	25832.49
537.74	25790.36
537.91	26036.12
538.08	25820.79
538.25	26181.23
538.42	25970.58
538.59	26038.46
538.75	25935.48
538.92	26141.44
539.09	26085.27
539.26	26197.62
539.43	26106.34
539.60	26197.62
539.77	26316.98
539.94	26532.31
540.11	26361.45
540.28	26389.54
540.44	25991.65
540.61	26396.56
540.78	26391.88
540.95	26089.95
541.12	26279.54
541.29	26450.39
541.46	26738.28
541.62	26611.89
541.79	26712.53
541.96	26448.05
542.13	26775.73
542.30	26497.20
542.47	26824.88
542.63	26778.07
542.80	27021.48
542.97	27072.98
543.14	27159.58
543.31	27091.70
543.48	26951.27
543.64	27278.94
543.81	27147.87
543.98	27435.76
544.15	27187.66
544.32	27410.01
544.48	27248.52
544.65	27267.24
544.82	27094.04
544.99	27271.92
545.16	27267.24
545.32	27377.25
545.49	27852.38
545.66	27632.36
545.83	27435.76
546.00	27938.97
546.16	27796.20
546.33	27587.89
546.50	27080.00
546.67	27543.42
546.83	27339.80
547.00	27751.73
547.17	27711.94
547.34	28065.36
547.50	27658.11
547.67	27887.48
547.84	27618.32
548.00	27704.92
548.17	28353.25
548.34	28151.96
548.51	27978.76
548.67	28060.68
548.84	27943.66
549.01	28053.66
549.18	27833.65
549.34	28322.82
549.51	27831.31
549.68	27875.78
549.84	28046.64
550.01	28416.44
550.18	28058.34
550.34	28327.50
550.51	28151.96
550.68	28353.25
550.84	28257.29
551.01	28116.86
551.18	28151.96
551.34	28343.89
551.51	28526.45
551.68	28273.67
551.84	28505.38
552.01	28201.11
552.18	28690.29
552.34	28393.04
552.51	28730.08
552.68	28863.49
552.84	28563.90
553.01	28767.52
553.18	28968.81
553.34	28772.21
553.51	28493.68
553.67	28936.04
553.84	28823.70
554.01	28875.19
554.17	28889.23
554.34	28840.08
554.51	28788.59
554.67	29202.86
554.84	28826.04
555.00	28744.12
555.17	29048.39
555.33	28809.65
555.50	28823.70
555.67	29193.50
555.83	29177.12
556.00	28992.22
556.16	29050.73
556.33	29097.54
556.50	29188.82
556.66	29221.59
556.83	29036.69
556.99	29415.85
557.16	29310.53
557.32	29600.76
557.49	29544.58
557.65	29209.89
557.82	29095.20
557.98	28936.04
558.15	29263.72
558.32	29689.70
558.48	29523.52
558.65	29352.66
558.81	29563.31
558.98	29270.74
559.14	29376.06
559.31	29436.92
559.47	29390.11
559.64	29518.84
559.80	29654.59
559.97	30005.67
560.13	29544.58
560.30	29560.97
560.46	29600.76
560.63	29778.64
560.79	29575.01
560.96	29743.53
561.12	29596.07
561.29	29488.41
561.45	29764.59
561.61	29963.54
561.78	30094.61
561.94	29724.80
562.11	29792.68
562.27	30066.52
562.44	29390.11
562.60	29818.42
562.77	29663.95
562.93	29483.73
563.10	29907.37
563.26	29474.37
563.42	30197.59
563.59	30164.82
563.75	29516.50
563.92	30047.80
564.08	29586.71
564.24	29984.60
564.41	29535.22
564.57	29769.27
564.74	29975.24
564.90	30010.35
565.07	30267.81
565.23	30019.71
565.39	30141.42
565.56	30195.25
565.72	30176.53
565.88	30204.61
566.05	29968.22
566.21	30010.35
566.38	29989.28
566.54	29816.08
566.70	30136.74
566.87	30773.36
567.03	30277.17
567.19	30490.16
567.36	30429.30
567.52	30122.69
567.68	30057.16
567.85	29970.56
568.01	30171.85
568.17	30073.54
568.34	30298.23
568.50	30485.48
568.66	30206.95
568.83	30415.26
568.99	30408.24
569.15	30597.82
569.32	30101.63
569.48	30335.68
569.64	30101.63
569.81	30359.09
569.97	30176.53
570.13	30874.01
570.30	30010.35
570.46	30916.14
570.62	30213.98
570.78	30532.29
570.95	30080.56
571.11	30429.30
571.27	30632.93
571.43	30412.92
571.60	30639.95
571.76	29860.55
571.92	30419.94
572.09	30579.10
572.25	30637.61
572.41	30375.47
572.57	30497.18
572.74	30794.43
572.90	30501.86
573.06	30431.65
573.22	30806.13
573.38	30656.34
573.55	30618.89
573.71	30541.65
573.87	30614.21
574.03	30417.60
574.20	30438.67
574.36	30260.79
574.52	30515.90
574.68	30433.99
574.84	30775.70
575.01	31028.48
575.17	30543.99
575.33	30333.34
575.49	30412.92
575.65	30988.69
575.82	30527.61
575.98	30710.17
576.14	30539.31
576.30	30698.47
576.46	30129.72
576.62	30515.90
576.79	30782.73
576.95	30309.94
577.11	30752.30
577.27	30883.37
577.43	30607.19
577.59	30658.68
577.75	30721.87
577.92	30511.22
578.08	30354.41
578.24	30529.95
578.40	30810.81
578.56	30742.94
578.72	30721.87
578.88	31056.57
579.04	31051.89
579.21	30623.57
579.37	30864.64
579.53	30862.30
579.69	30314.62
579.85	30480.80
580.01	31281.26
580.17	30373.13
580.33	30782.73
580.49	30792.09
580.65	30740.60
580.82	30778.04
580.98	30969.97
581.14	31000.40
581.30	31110.40
581.46	30890.39
581.62	30506.54
581.78	30398.88
581.94	30974.65
582.10	30558.03
582.26	31084.65
582.42	31126.78
582.58	30782.73
582.74	30792.09
582.90	30969.97
583.06	31138.49
583.22	30485.48
583.38	30560.37
583.54	31094.02
583.70	30642.29
583.86	31185.30
584.02	31091.68
584.18	30969.97
584.34	31182.96
584.50	31084.65
584.66	30998.06
584.82	30801.45
584.98	31147.85
585.14	31007.42
585.30	30927.84
585.46	30726.55
585.62	30792.09
585.78	30871.67
585.94	30628.25
586.10	31143.17
586.26	31215.72
586.42	31136.15
586.58	31330.41
586.74	30778.04
586.90	30771.02
587.06	30728.89
587.22	30902.09
587.38	30525.27
587.54	31105.72
587.70	30967.63
587.86	30862.30
588.02	31164.23
588.18	31384.24
588.34	31236.79
588.49	31377.22
588.65	30916.14
588.81	30930.18
588.97	31374.88
589.13	31014.44
589.29	31042.53
589.45	31409.99
589.61	31014.44
589.77	31494.25
589.93	31604.25
590.08	31206.36
590.24	31690.85
590.40	31328.07
590.56	31529.36
590.72	31402.97
590.88	31192.32
591.04	30923.16
591.20	31208.70
591.35	31473.18
591.51	31620.64
591.67	31363.18
591.83	31461.48
591.99	31630.00
592.15	30960.61
592.31	31803.20
592.46	31246.15
592.62	31372.54
592.78	31278.92
592.94	31054.23
593.10	31482.55
593.26	31281.26
593.41	31536.38
593.57	31445.10
593.73	31136.15
593.89	31372.54
594.05	31758.73
594.20	31159.55
594.36	31260.20
594.52	31201.68
594.68	31035.50
594.84	31082.31
594.99	31454.46
595.15	31365.52
595.31	32048.96
595.47	31503.61
595.62	31527.02
595.78	31531.70
595.94	31026.14
596.10	31079.97
596.25	31424.03
596.41	31131.47
596.57	31393.61
596.73	31648.72
596.88	31180.62
597.04	31648.72
597.20	31775.11
597.36	31573.83
597.51	32027.89
597.67	31695.53
597.83	31091.68
597.99	31302.32
598.14	31431.05
598.30	31637.02
598.46	31108.06
598.61	31400.63
598.77	31477.86
598.93	31309.35
599.09	31639.36
599.24	31732.98
599.40	31901.50
599.56	31637.02
599.71	31854.69
599.87	31625.32
600.03	31194.66
600.18	31367.86
600.34	31321.05
600.50	31555.10
600.65	31299.98
600.81	31931.93
600.97	31688.51
601.12	32079.38
601.28	31964.70
601.44	31512.97
601.59	31761.07
601.75	31391.26
601.91	31674.47
602.06	31197.00
602.22	31690.85
602.37	31529.36
602.53	31714.26
602.69	31772.77
602.84	31274.24
603.00	31688.51
603.16	31882.78
603.31	31658.09
603.47	31548.08
603.62	31653.40
603.78	31398.29
603.94	31592.55
604.09	31519.99
604.25	31367.86
604.40	31419.35
604.56	31763.41
604.71	32149.60
604.87	31880.44
605.03	31740.00
605.18	31594.89
605.34	31424.03
605.49	31292.96
605.65	31323.39
605.80	31456.80
605.96	31292.96
606.12	31412.33
606.27	31321.05
606.43	31466.16
606.58	31672.13
606.74	31482.55
606.89	31782.13
607.05	31662.77
607.20	31761.07
607.36	31873.42
607.51	31307.01
607.67	31613.62
607.82	31372.54
607.98	31309.35
608.13	31351.48
608.29	31077.63
608.44	31309.35
608.60	31384.24
608.75	31800.86
608.91	31569.15
609.06	31201.68
609.22	31798.52
609.37	31023.80
609.53	31318.71
609.68	31356.16
609.84	31318.71
609.99	31257.85
610.15	31108.06
610.30	30984.01
610.46	31274.24
610.61	31580.85
610.76	31620.64
610.92	31321.05
611.07	31431.05
611.23	31161.89
611.38	30855.28
611.54	31199.34
611.69	30962.95
611.84	31154.87
612.00	30845.92
612.15	31185.30
612.31	31424.03
612.46	31220.41
612.62	31447.44
612.77	31220.41
612.92	31035.50
613.08	30918.48
613.23	31262.54
613.39	30834.22
613.54	31159.55
613.69	31122.10
613.85	30946.56
614.00	31096.36
614.15	31105.72
614.31	30890.39
614.46	31243.81
614.62	30820.17
614.77	31122.10
614.92	31098.70
615.08	30581.44
615.23	31051.89
615.38	31033.16
615.54	31000.40
615.69	30553.35
615.84	31028.48
616.00	31229.77
616.15	30576.76
616.30	31105.72
616.46	30654.00
616.61	31342.11
616.76	30932.52
616.92	31035.50
617.07	30785.07
617.22	30572.08
617.37	30225.68
617.53	30855.28
617.68	30817.83
617.83	30445.69
617.99	30586.12
618.14	30565.06
618.29	30569.74
618.45	30787.41
618.60	30670.38
618.75	30724.21
618.90	30700.81
619.06	30871.67
619.21	30920.82
619.36	30572.08
619.51	30717.19
619.67	30239.72
619.82	30494.84
619.97	30338.02
620.12	30433.99
620.28	30345.05
620.43	30534.63
620.58	30389.52
620.73	30253.76
620.89	30927.84
621.04	30553.35
621.19	30539.31
621.34	30141.42
621.49	29977.58
621.65	30078.22
621.80	30335.68
621.95	30150.78
622.10	30258.45
622.25	29986.94
622.41	29886.30
622.56	30256.11
622.71	30527.61
622.86	30073.54
623.01	30546.33
623.16	29764.59
623.32	29860.55
623.47	30143.76
623.62	30136.74
623.77	30118.01
623.92	30237.38
624.07	30118.01
624.23	30085.25
624.38	30267.81
624.53	30087.59
624.68	30029.07
624.83	30553.35
624.98	30361.43
625.13	30015.03
625.29	29958.86
625.44	30136.74
625.59	29567.99
625.74	29820.77
625.89	29677.99
626.04	29914.39
626.19	30244.40
626.34	29778.64
626.49	29467.34
626.65	29645.23
626.80	29706.08
626.95	29675.65
627.10	29479.05
627.25	29979.92
627.40	29689.70
627.55	29455.64
627.70	29408.83
627.85	29373.72
628.00	29603.10
628.15	29823.11
628.30	29537.56
628.45	29156.05
628.60	29465.00
628.76	29886.30
628.91	29528.20
629.06	29521.18
629.21	29436.92
629.36	29317.55
629.51	29532.88
629.66	29301.17
629.81	29193.50
629.96	29242.65
630.11	29415.85
630.26	29305.85
630.41	29055.41
630.56	29064.77
630.71	29385.43
630.86	29172.44
631.01	29083.50
631.16	29345.64
631.31	29032.00
631.46	28959.45
631.61	29394.79
631.76	29240.31
631.91	29460.32
632.06	29294.14
632.21	28954.77
632.36	28790.93
632.51	28568.58
632.66	28922.00
632.81	29081.16
632.96	28678.58
633.10	29322.23
633.25	29188.82
633.40	29083.50
633.55	28982.85
633.70	28884.55
633.85	28671.56
634.00	28514.75
634.15	28591.98
634.30	28751.14
634.45	28816.68
634.60	28730.08
634.75	28800.29
634.90	28964.13
635.05	29153.71
635.19	29170.10
635.34	28584.96
635.49	28781.57
635.64	28748.80
635.79	28704.33
635.94	28414.10
636.09	28725.39
636.24	28692.63
636.39	28332.18
636.53	28388.36
636.68	28566.24
636.83	28423.47
636.98	28283.03
637.13	28322.82
637.28	28580.28
637.43	28500.70
637.57	28601.35
637.72	28217.50
637.87	28283.03
638.02	28212.82
638.17	28362.61
638.32	28107.49
638.46	28348.57
638.61	27821.95
638.76	28252.61
638.91	27941.32
639.06	27969.40
639.20	28088.77
639.35	28339.21
639.50	28018.55
639.65	28238.56
639.80	28709.01
639.94	28065.36
640.09	28107.49
640.24	28423.47
640.39	28208.14
640.54	27941.32
640.68	28020.89
640.83	27882.80
640.98	27903.87
641.13	27461.51
641.27	28357.93
641.42	28261.97
641.57	28512.41
641.72	27964.72
641.86	27777.48
642.01	27583.21
642.16	27667.47
642.31	27520.02
642.45	27733.01
642.60	28037.28
642.75	27330.44
642.90	27845.35
643.04	27697.90
643.19	27833.65
643.34	27800.88
643.48	27615.98
643.63	27637.05
643.78	27529.38
643.93	27749.39
644.07	27854.72
644.22	27885.14
644.37	27487.25
644.51	27899.19
644.66	27484.91
644.81	27625.34
644.95	27550.45
645.10	27784.50
645.25	27601.94
645.39	27550.45
645.54	27342.14
645.69	27606.62
645.83	27318.73
645.98	27234.47
646.13	27517.68
646.27	27559.81
646.42	27075.32
646.57	26958.29
646.71	27211.07
646.86	27632.36
647.00	27374.91
647.15	27307.03
647.30	27164.26
647.44	27000.42
647.59	27332.78
647.74	27236.81
647.88	27026.17
648.03	27117.45
648.17	27421.72
648.32	27080.00
648.47	27508.32
648.61	27049.57
648.76	27349.16
648.90	27229.79
649.05	27108.08
649.20	26817.86
649.34	27009.78
649.49	26930.20
649.63	26937.23
649.78	26934.88
649.92	26766.37
650.07	27239.15
650.21	27072.98
650.36	26878.71
650.51	26984.04
650.65	26852.97
650.80	26991.06
650.94	27140.85
651.09	27285.97
651.23	26766.37
651.38	26639.98
651.52	26593.17
651.67	26881.05
651.81	26923.18
651.96	26604.87
652.10	27089.36
652.25	26855.31
652.39	27236.81
652.54	26920.84
652.68	26319.32
652.83	26731.26
652.97	27264.90
653.12	26567.42
653.26	26562.74
653.41	26864.67
653.55	26302.94
653.70	26314.64
653.84	26675.09
653.99	26363.79
654.13	26335.71
654.27	26740.62
654.42	26391.88
654.56	26534.65
654.71	26284.22
654.85	26628.27
655.00	26728.92
655.14	26616.57
655.29	26558.06
655.43	26309.96
655.57	26410.60
655.72	26429.33
655.86	26485.50
656.01	26263.15
656.15	26024.42
656.30	26272.51
656.44	26256.13
656.58	26455.08
656.73	25947.18
656.87	26001.01
657.01	26008.03
657.16	26153.15
657.30	26494.86
657.45	26309.96
657.59	26143.78
657.73	26003.35
657.88	26197.62
658.02	25991.65
658.16	26293.58
658.31	26153.15
658.45	25989.31
658.60	25610.14
658.74	25560.99
658.88	25951.86
659.03	25883.98
659.17	25773.98
659.31	25546.95
659.46	25692.06
659.60	26113.36
659.74	25804.41
659.89	25720.15
660.03	25586.74
660.17	25811.43
660.32	25558.65
660.46	25535.24
660.60	25481.41
660.74	25577.37
660.89	25329.28
661.03	24966.49
661.17	25553.97
661.32	25284.81
661.46	25556.31
661.60	25310.55
661.74	25357.36
661.89	25542.27
662.03	25259.06
662.17	25579.71
662.31	25085.86
662.46	25158.42
662.60	24786.27
662.74	24776.91
662.88	25282.47
663.03	24706.70
663.17	24985.22
663.31	24849.47
663.45	25156.08
663.60	24957.13
663.74	24924.36
663.88	25212.25
664.02	24762.87
664.17	24870.53
664.31	24910.32
664.45	24907.98
664.59	24772.23
664.73	24638.82
664.88	24849.47
665.02	24479.66
665.16	24458.60
665.30	24500.73
665.44	24407.11
665.59	24240.93
665.73	24442.21
665.87	24123.90
666.01	24210.50
666.15	24442.21
666.29	24119.22
666.44	24191.78
666.58	23978.79
666.72	24049.00
666.86	24049.00
667.00	24191.78
667.14	24093.47
667.28	24191.78
667.43	24112.20
667.57	24011.56
667.71	23791.55
667.85	23885.17
667.99	23850.06
668.13	23641.75
668.27	23623.03
668.41	23931.98
668.56	23658.14
668.70	23953.04
668.84	23896.87
668.98	23838.36
669.12	23594.94
669.26	23473.23
669.40	23463.87
669.54	23709.63
669.68	23520.04
669.82	23316.42
669.96	23353.87
670.10	23007.47
670.25	23321.10
670.39	23555.15
670.53	22876.40
670.67	22925.55
670.81	23285.99
670.95	23021.51
671.09	23019.17
671.23	23091.73
671.37	23262.58
671.51	23288.33
671.65	22895.12
671.79	22719.58
671.93	22841.29
672.07	22778.09
672.21	22775.75
672.35	22415.31
672.49	22338.07
672.63	22546.38
672.77	22457.44
672.91	22352.12
673.05	22225.73
673.19	22522.98
673.33	22450.42
673.47	22384.88
673.61	22155.51
673.75	22146.15
673.89	22302.96
674.03	22375.52
674.17	22204.66
674.31	21736.56
674.45	21965.93
674.59	21825.50
674.73	21755.28
674.87	22045.51
675.01	22078.27
675.15	21802.09
675.29	21867.63
675.43	21511.86
675.56	21631.23
675.70	21963.59
675.84	21851.24
675.98	21275.47
676.12	22047.85
676.26	21867.63
676.40	21837.20
676.54	21497.82
676.68	21694.43
676.82	20966.52
676.96	21394.84
677.10	21158.44
677.23	21142.06
677.37	21022.69
677.51	21128.02
677.65	20875.24
677.79	20730.12
677.93	20795.66
678.07	20814.38
678.21	20524.16
678.34	20577.99
678.48	20758.21
678.62	20601.40
678.76	20407.13
678.90	20514.80
679.04	20259.68
679.18	20355.64
679.31	19751.78
679.45	20016.26
679.59	20053.71
679.73	20053.71
679.87	19829.02
680.00	19770.51
680.14	19896.89
680.28	19360.91
680.42	19822.00
680.56	19716.67
680.70	19733.06
680.83	19653.48
680.97	19552.84
681.11	19651.14
681.25	19337.51
681.39	19583.26
681.52	19082.39
681.66	19304.74
681.80	19321.12
681.94	19063.66
682.07	19419.42
682.21	19288.35
682.35	18707.90
682.49	18792.16
682.62	18956.00
682.76	18829.61
682.90	19000.47
683.04	18831.95
683.17	18532.36
683.31	18885.78
683.45	18637.69
683.59	18614.28
683.72	18462.15
683.86	18724.29
684.00	18567.47
684.13	18352.14
684.27	18185.96
684.41	18333.42
684.55	17987.02
684.68	17844.24
684.82	17869.99
684.96	17839.56
685.09	18071.28
685.23	18059.57
685.37	17830.20
685.50	18059.57
685.64	17694.45
685.78	17877.01
685.91	17589.13
686.05	17586.79
686.19	17488.48
686.32	17434.65
686.46	17472.10
686.60	17294.22
686.73	17406.56
686.87	17027.40
687.01	17062.51
687.14	17170.17
687.28	16879.94
687.42	16882.28
687.55	16847.18
687.69	16706.74
687.82	16931.44
687.96	16755.90
688.10	16596.74
688.23	16695.04
688.37	16451.63
688.50	16512.48
688.64	16559.29
688.78	16479.71
688.91	16184.80
689.05	16320.56
689.18	16114.59
689.32	16025.65
689.46	16102.89
689.59	15712.02
689.73	16065.44
689.86	16278.43
690.00	15812.66
690.13	15925.00
690.27	15618.39
690.41	15857.13
690.54	15798.62
690.68	15857.13
690.81	15440.51
690.95	15604.35
691.08	15864.15
691.22	15421.79
691.35	15492.01
691.49	15580.95
691.62	15206.46
691.76	15276.68
691.89	15279.02
692.03	15103.48
692.16	14817.93
692.30	14726.65
692.43	14780.48
692.57	14878.79
692.70	14808.57
692.84	14640.05
692.97	14555.79
693.11	14932.62
693.24	14354.51
693.38	14597.92
693.51	14558.13
693.65	14457.49
693.78	14279.61
693.92	14581.54
694.05	14230.46
694.19	14331.10
694.32	14148.54
694.45	13916.83
694.59	14057.26
694.72	13954.27
694.86	14085.34
694.99	13757.67
695.13	13886.40
695.26	13652.34
695.39	13635.96
695.53	13755.33
695.66	14012.79
695.80	13701.50
695.93	13568.09
696.07	13652.34
696.20	13551.70
696.33	13563.40
696.47	13621.92
696.60	13245.09
696.73	13280.20
696.87	13305.95
697.00	12982.95
697.14	13172.54
697.27	13085.94
697.40	12786.35
697.54	12823.80
697.67	12924.44
697.80	12973.59
697.94	12531.23
698.07	12711.45
698.21	12664.64
698.34	12559.31
698.47	12657.62
698.61	12343.99
698.74	12641.23
698.87	12631.87
699.01	12362.71
699.14	12196.53
699.27	12119.29
699.40	12264.41
699.54	12233.98
699.67	12212.92
699.80	12236.32
699.94	12025.67
700.07	12109.93
700.20	11812.68
700.34	11726.08
700.47	11765.87
700.60	11836.09
700.73	11826.73
700.87	11672.25
701.00	11583.31
701.13	11644.17
701.26	11602.04
701.40	11693.32
701.53	11793.96
701.66	11602.04
701.79	11300.11
701.93	11262.66
702.06	11180.74
702.19	11070.73
702.32	11091.80
702.46	10911.58
702.59	10925.62
702.72	10911.58
702.85	11021.58
702.99	10820.30
703.12	10803.91
703.25	10672.84
703.38	10619.01
703.51	10649.44
703.65	10869.45
703.78	10731.36
703.91	10492.62
704.04	10600.29
704.17	10651.78
704.31	10494.96
704.44	10298.36
704.57	10303.04
704.70	10384.96
704.83	10113.45
704.96	10303.04
705.10	10024.51
705.23	9994.09
>>>>>End Processed Spectral Data<<<<<
