SpectraSuite Data File
++++++++++++++++++++++++++++++++++++
Date: Fri Oct 18 13:58:09 GMT-05:00 2013
User: bianchi
Dark Spectrum Present: No
Reference Spectrum Present: No
Number of Sampled Component Spectra: 1
Spectrometers: USB2+H05261
Integration Time (usec): 50000 (USB2+H05261)
Spectra Averaged: 1 (USB2+H05261)
Boxcar Smoothing: 0 (USB2+H05261)
Correct for Electrical Dark: No (USB2+H05261)
Strobe/Lamp Enabled: No (USB2+H05261)
Correct for Detector Non-linearity: No (USB2+H05261)
Correct for Stray Light: No (USB2+H05261)
Number of Pixels in Processed Spectrum: 2048
>>>>>Begin Processed Spectral Data<<<<<
365.73	0.00
365.92	0.00
366.12	0.00
366.32	0.00
366.52	0.00
366.72	0.00
366.91	0.00
367.11	0.00
367.31	0.00
367.51	0.00
367.70	0.00
367.90	0.00
368.10	0.00
368.30	0.00
368.49	0.00
368.69	0.00
368.89	0.00
369.09	0.00
369.28	0.00
369.48	0.00
369.68	0.00
369.87	0.00
370.07	0.00
370.27	0.00
370.47	0.00
370.66	65.54
370.86	112.35
371.06	128.73
371.25	173.20
371.45	119.37
371.65	156.82
371.84	177.88
372.04	166.18
372.24	95.96
372.44	161.50
372.63	250.44
372.83	271.50
373.03	205.97
373.22	198.95
373.42	194.26
373.62	194.26
373.81	220.01
374.01	299.59
374.21	245.76
374.40	222.35
374.60	215.33
374.79	117.03
374.99	161.50
375.19	205.97
375.38	220.01
375.58	189.58
375.78	353.42
375.97	250.44
376.17	266.82
376.37	262.14
376.56	245.76
376.76	264.48
376.95	262.14
377.15	266.82
377.35	283.20
377.54	341.72
377.74	346.40
377.93	264.48
378.13	304.27
378.33	313.63
378.52	280.86
378.72	248.10
378.91	266.82
379.11	238.73
379.31	287.89
379.50	322.99
379.70	379.17
379.89	315.97
380.09	299.59
380.28	381.51
380.48	229.37
380.68	386.19
380.87	271.50
381.07	404.91
381.26	304.27
381.46	292.57
381.65	318.31
381.85	262.14
382.04	269.16
382.24	388.53
382.43	411.93
382.63	369.80
382.83	409.59
383.02	374.49
383.22	372.15
383.41	493.85
383.61	348.74
383.80	327.68
384.00	369.80
384.19	381.51
384.39	372.15
384.58	383.85
384.78	374.49
384.97	423.64
385.17	294.91
385.36	334.70
385.56	435.34
385.75	365.12
385.95	294.91
386.14	409.59
386.34	449.38
386.53	393.21
386.72	315.97
386.92	493.85
387.11	414.27
387.31	337.04
387.50	421.30
387.70	433.00
387.89	418.96
388.09	407.25
388.28	447.04
388.48	388.53
388.67	404.91
388.86	416.62
389.06	411.93
389.25	423.64
389.45	414.27
389.64	543.00
389.84	493.85
390.03	482.15
390.22	491.51
390.42	463.43
390.61	470.45
390.81	514.92
391.00	519.60
391.19	547.69
391.39	437.68
391.58	514.92
391.78	521.94
391.97	521.94
392.16	524.28
392.36	568.75
392.55	545.34
392.75	498.53
392.94	564.07
393.13	512.58
393.33	573.43
393.52	514.92
393.71	645.99
393.91	533.64
394.10	517.26
394.29	547.69
394.49	571.09
394.68	608.54
394.88	578.11
395.07	667.05
395.26	622.58
395.46	643.65
395.65	566.41
395.84	615.56
396.04	641.31
396.23	681.10
396.42	692.80
396.62	704.50
396.81	629.60
397.00	678.76
397.19	566.41
397.39	697.48
397.58	702.16
397.77	608.54
397.97	704.50
398.16	697.48
398.35	657.69
398.55	685.78
398.74	770.04
398.93	730.25
399.12	739.61
399.32	645.99
399.51	753.65
399.70	786.42
399.90	767.70
400.09	781.74
400.28	842.59
400.47	866.00
400.67	858.98
400.86	770.04
401.05	798.12
401.24	765.36
401.44	875.36
401.63	807.48
401.82	748.97
402.01	877.70
402.21	826.21
402.40	786.42
402.59	842.59
402.78	924.51
402.97	826.21
403.17	898.77
403.36	786.42
403.55	898.77
403.74	936.21
403.93	933.87
404.13	945.58
404.32	905.79
404.51	891.74
404.70	1071.97
404.89	938.55
405.09	999.41
405.28	903.45
405.47	966.64
405.66	1046.22
405.85	954.94
406.05	898.77
406.24	903.45
406.43	1086.01
406.62	1036.86
406.81	1004.09
407.00	1057.92
407.20	1032.18
407.39	1041.54
407.58	1078.99
407.77	1008.77
407.96	1086.01
408.15	1064.94
408.34	1093.03
408.54	1067.28
408.73	1188.99
408.92	1090.69
409.11	1273.25
409.30	1149.20
409.49	1167.93
409.68	1130.48
409.87	1277.93
410.07	1196.01
410.26	1163.25
410.45	1184.31
410.64	1261.55
410.83	1196.01
411.02	1210.06
411.21	1226.44
411.40	1214.74
411.59	1268.57
411.78	1287.29
411.98	1238.14
412.17	1364.53
412.36	1322.40
412.55	1282.61
412.74	1378.58
412.93	1399.64
413.12	1336.45
413.31	1472.20
413.50	1406.66
413.69	1404.32
413.88	1458.15
414.07	1511.99
414.26	1493.26
414.45	1394.96
414.64	1425.39
414.83	1479.22
415.02	1514.33
415.22	1629.01
415.41	1542.41
415.60	1575.18
415.79	1509.65
415.98	1614.97
416.17	1535.39
416.36	1586.88
416.55	1582.20
416.74	1621.99
416.93	1640.72
417.12	1713.27
417.31	1586.88
417.50	1790.51
417.69	1703.91
417.88	1739.02
418.07	1813.92
418.26	1806.89
418.45	1720.29
418.64	1849.02
418.83	1818.60
419.02	1893.49
419.21	1830.30
419.39	1898.17
419.58	1839.66
419.77	1834.98
419.96	1870.09
420.15	1975.41
420.34	1851.36
420.53	1968.39
420.72	2003.50
420.91	1839.66
421.10	1998.82
421.29	1944.99
421.48	2057.33
421.67	1888.81
421.86	1865.41
422.05	1982.43
422.24	1914.56
422.43	1902.86
422.61	2115.84
422.80	1980.09
422.99	2019.88
423.18	2083.08
423.37	2087.76
423.56	2036.27
423.75	2062.01
423.94	1914.56
424.13	1806.89
424.32	1937.96
424.50	2101.80
424.69	2167.34
424.88	2146.27
425.07	2083.08
425.26	2071.37
425.45	2129.89
425.64	2054.99
425.83	1926.26
426.01	2083.08
426.20	2202.44
426.39	2237.55
426.58	2054.99
426.77	2069.03
426.96	2228.19
427.15	2260.96
427.33	2169.68
427.52	2207.13
427.71	2106.48
427.90	2125.21
428.09	2200.10
428.28	2211.81
428.46	2265.64
428.65	2207.13
428.84	2214.15
429.03	2207.13
429.22	2071.37
429.40	2289.04
429.59	2237.55
429.78	2279.68
429.97	2167.34
430.16	2272.66
430.34	2385.01
430.53	2326.49
430.72	2333.51
430.91	2303.09
431.10	2324.15
431.28	2338.20
431.47	2389.69
431.66	2452.88
431.85	2326.49
432.03	2422.45
432.22	2583.95
432.41	2382.67
432.60	2520.76
432.79	2429.48
432.97	2485.65
433.16	2478.63
433.35	2373.30
433.54	2600.34
433.72	2555.86
433.91	2576.93
434.10	2469.27
434.28	2583.95
434.47	2520.76
434.66	2590.97
434.85	2628.42
435.03	2623.74
435.22	2665.87
435.41	2792.26
435.59	2658.85
435.78	2670.55
435.97	2682.25
436.16	2689.28
436.34	2630.76
436.53	2679.91
436.72	2782.90
436.90	2640.12
437.09	2806.30
437.28	2803.96
437.46	2841.41
437.65	2792.26
437.84	2696.30
438.02	2820.35
438.21	2780.56
438.40	2665.87
438.58	2918.65
438.77	2974.82
438.96	2906.95
439.14	2888.22
439.33	2935.03
439.52	2972.48
439.70	3066.10
439.89	2995.89
440.08	2958.44
440.26	3117.59
440.45	3117.59
440.63	3133.98
440.82	3171.43
441.01	3063.76
441.19	3295.47
441.38	3187.81
441.57	3225.26
441.75	3162.06
441.94	3321.22
442.12	3412.50
442.31	3379.73
442.50	3328.24
442.68	3335.26
442.87	3414.84
443.05	3332.92
443.24	3501.44
443.43	3398.46
443.61	3304.84
443.80	3548.25
443.98	3419.52
444.17	3190.15
444.35	3332.92
444.54	3557.61
444.73	3501.44
444.91	3431.23
445.10	3459.31
445.28	3419.52
445.47	3515.48
445.65	3527.19
445.84	3426.54
446.02	3557.61
446.21	3431.23
446.39	3499.10
446.58	3564.64
446.77	3602.08
446.95	3407.82
447.14	3583.36
447.32	3552.93
447.51	3578.68
447.69	3527.19
447.88	3669.96
448.06	3688.68
448.25	3506.12
448.43	3571.66
448.62	3557.61
448.80	3630.17
448.99	3691.02
449.17	3733.15
449.36	3559.95
449.54	3854.86
449.73	3911.04
449.91	3777.62
450.10	3669.96
450.28	3737.84
450.46	3794.01
450.65	3641.87
450.83	3688.68
451.02	3723.79
451.20	3878.27
451.39	3838.48
451.57	3866.56
451.76	3908.69
451.94	3932.10
452.13	3936.78
452.31	3889.97
452.49	3803.37
452.68	3875.93
452.86	3983.59
453.05	3990.61
453.23	4084.23
453.42	4025.72
453.60	3838.48
453.78	3857.20
453.97	3918.06
454.15	4014.02
454.34	4011.68
454.52	3868.91
454.70	3939.12
454.89	4037.42
455.07	4109.98
455.26	4032.74
455.44	4189.56
455.62	4095.94
455.81	4032.74
455.99	4147.43
456.17	4210.62
456.36	4236.37
456.54	4175.52
456.73	4191.90
456.91	4432.97
457.09	4383.82
457.28	4538.30
457.46	4449.36
457.64	4423.61
457.83	4397.87
458.01	4341.69
458.19	4498.51
458.38	4346.37
458.56	4552.34
458.74	4404.89
458.93	4568.73
459.11	4423.61
459.29	4341.69
459.48	4571.07
459.66	4564.04
459.84	4587.45
460.03	4606.17
460.21	4603.83
460.39	4568.73
460.57	4575.75
460.76	4697.46
460.94	4723.20
461.12	4858.95
461.31	4746.61
461.49	4718.52
461.67	4695.11
461.85	4865.97
462.04	4924.49
462.22	4905.76
462.40	4734.90
462.59	4774.69
462.77	4835.55
462.95	4987.68
463.13	4865.97
463.32	4887.04
463.50	4795.76
463.68	4875.34
463.86	4877.68
464.05	4844.91
464.23	4994.70
464.41	4999.38
464.59	4865.97
464.78	4851.93
464.96	4978.32
465.14	5050.88
465.32	4830.87
465.50	5090.67
465.69	5057.90
465.87	5020.45
466.05	5069.60
466.23	5039.17
466.41	5224.08
466.60	5275.57
466.78	5085.98
466.96	5277.91
467.14	5203.01
467.32	5167.90
467.51	5221.74
467.69	5053.22
467.87	5165.56
468.05	5132.79
468.23	5324.72
468.41	5163.22
468.60	5273.23
468.78	5467.49
468.96	5228.76
469.14	5383.23
469.32	5434.72
469.50	5144.50
469.69	5465.15
469.87	5631.33
470.05	5544.73
470.23	5490.90
470.41	5516.64
470.59	5558.77
470.77	5500.26
470.95	5554.09
471.14	5598.56
471.32	5554.09
471.50	5820.91
471.68	5664.10
471.86	5746.02
472.04	5633.67
472.22	6136.88
472.40	5841.98
472.58	5778.78
472.77	5724.95
472.95	6083.05
473.13	6076.03
473.31	6059.65
473.49	5802.19
473.67	5923.90
473.85	6024.54
474.03	6061.99
474.21	6029.22
474.39	6113.48
474.57	6073.69
474.75	6300.72
474.93	6310.08
475.12	6078.37
475.30	6326.47
475.48	6043.26
475.66	6380.30
475.84	6380.30
476.02	6356.90
476.20	6497.33
476.38	6663.51
476.56	6700.95
476.74	6626.06
476.92	6597.97
477.10	6443.49
477.28	6761.81
477.46	6703.29
477.64	6754.79
477.82	6609.67
478.00	7056.72
478.18	7112.89
478.36	6991.18
478.54	7169.06
478.72	7054.37
478.90	7283.75
479.08	7225.23
479.26	7295.45
479.44	7438.22
479.62	7330.56
479.80	7433.54
479.98	7456.95
480.16	7548.23
480.34	7548.23
480.52	7768.24
480.70	7843.14
480.88	7702.70
481.06	7801.01
481.24	7793.98
481.41	7817.39
481.59	8070.17
481.77	8152.09
481.95	8348.69
482.13	8173.15
482.31	8212.94
482.49	8315.92
482.67	8353.37
482.85	8243.37
483.03	8557.00
483.21	8828.50
483.39	8634.24
483.57	8681.05
483.74	8840.20
483.92	8854.25
484.10	8807.44
484.28	8830.84
484.46	9259.16
484.64	9341.08
484.82	8997.02
485.00	9188.94
485.18	9282.56
485.35	9579.81
485.53	9467.47
485.71	9441.72
485.89	9750.67
486.07	9788.12
486.25	9776.42
486.43	9614.92
486.61	9753.01
486.78	9804.50
486.96	10019.83
487.14	10249.21
487.32	10225.80
487.50	10038.56
487.68	10314.74
487.85	10480.92
488.03	10530.07
488.21	10750.08
488.39	10705.61
488.57	10806.25
488.75	10750.08
488.92	11044.99
489.10	11171.38
489.28	11229.89
489.46	11353.94
489.64	11246.27
489.81	11295.43
489.99	11344.58
490.17	11616.08
490.35	11674.59
490.53	11595.01
490.70	11868.86
490.88	11850.13
491.06	12042.06
491.24	11850.13
491.41	11686.29
491.59	11843.11
491.77	12121.63
491.95	12325.26
492.13	12456.33
492.30	12189.51
492.48	12416.54
492.66	12599.10
492.84	12589.74
493.01	12674.00
493.19	12699.75
493.37	12922.10
493.54	12926.78
493.72	12973.59
493.90	13170.19
494.08	13195.94
494.25	13097.64
494.43	13429.99
494.61	13537.66
494.79	13729.58
494.96	13516.59
495.14	13547.02
495.32	13645.32
495.49	13645.32
495.67	13963.64
495.85	14085.34
496.02	14249.18
496.20	14263.22
496.38	14071.30
496.55	14099.39
496.73	14455.15
496.91	14464.51
497.09	14272.59
497.26	14752.40
497.44	14651.75
497.62	14668.14
497.79	15037.94
497.97	14532.39
498.14	14808.57
498.32	15122.20
498.50	14911.55
498.67	15089.43
498.85	15091.77
499.03	15433.49
499.20	15021.56
499.38	15089.43
499.56	15211.14
499.73	15545.84
499.91	15578.61
500.08	15531.80
500.26	15587.97
500.44	15412.43
500.61	15777.55
500.79	16058.42
500.97	15791.59
501.14	16248.00
501.32	15941.39
501.49	15838.41
501.67	16025.65
501.84	16074.80
502.02	16121.61
502.20	16339.28
502.37	16187.14
502.55	16379.07
502.72	16505.46
502.90	16554.61
503.07	16615.46
503.25	16517.16
503.43	16472.69
503.60	16636.53
503.78	16959.52
503.95	16652.91
504.13	16821.43
504.30	17081.23
504.48	16936.12
504.65	16898.67
504.83	17425.29
505.01	17385.50
505.18	17528.27
505.36	17359.75
505.53	17261.45
505.71	17242.73
505.88	17434.65
506.06	17387.84
506.23	17818.50
506.41	17689.77
506.58	17383.16
506.76	17841.90
506.93	17776.37
507.11	17469.76
507.28	17984.68
507.46	17935.53
507.63	18015.10
507.81	18038.51
507.98	18010.42
508.16	18064.25
508.33	18146.17
508.50	18324.05
508.68	18146.17
508.85	18651.73
509.03	18176.60
509.20	18448.10
509.38	18307.67
509.55	18850.67
509.73	18359.16
509.90	18441.08
510.08	18759.39
510.25	18553.43
510.42	18773.44
510.60	18792.16
510.77	19000.47
510.95	19438.15
511.12	18934.93
511.30	18803.86
511.47	19094.09
511.64	19269.63
511.82	19442.83
511.99	19435.81
512.17	19278.99
512.34	19410.06
512.51	19564.54
512.69	19950.73
512.86	19449.85
513.04	19625.39
513.21	19620.71
513.38	19761.14
513.56	19927.32
513.73	19550.49
513.90	19868.81
514.08	19651.14
514.25	19819.66
514.43	20018.60
514.60	19873.49
514.77	20245.63
514.95	20386.07
515.12	20046.69
515.29	20058.39
515.47	20334.57
515.64	20276.06
515.81	20369.68
515.99	20374.36
516.16	20879.92
516.33	20498.41
516.51	20828.43
516.68	20388.41
516.85	20695.02
517.03	20545.22
517.20	20915.03
517.37	20854.17
517.54	21022.69
517.72	20896.30
517.89	21034.39
518.06	20936.09
518.24	21036.74
518.41	20898.64
518.58	21113.97
518.75	21008.65
518.93	21315.26
519.10	21078.86
519.27	21165.46
519.45	21022.69
519.62	21329.30
519.79	21687.40
519.96	21502.50
520.14	21703.79
520.31	21518.89
520.48	21596.12
520.65	21944.86
520.83	21673.36
521.00	22019.76
521.17	21766.98
521.34	21591.44
521.52	21799.75
521.69	21947.20
521.86	22071.25
522.03	22239.77
522.20	22232.75
522.38	22396.59
522.55	22230.41
522.72	22274.88
522.89	22642.34
523.07	22403.61
523.24	22317.01
523.41	22719.58
523.58	22162.53
523.75	22412.97
523.92	22204.66
524.10	22869.37
524.27	22682.13
524.44	22958.31
524.61	22841.29
524.78	22836.61
524.96	23014.49
525.13	22843.63
525.30	22822.56
525.47	23183.01
525.64	22867.03
525.81	23351.52
525.98	23131.51
526.16	22932.57
526.33	23166.62
526.50	23557.49
526.67	23094.07
526.84	23407.70
527.01	23257.90
527.18	23513.02
527.36	23782.18
527.53	23651.11
527.70	23744.73
527.87	23651.11
528.04	23775.16
528.21	23971.77
528.38	23620.69
528.55	23924.96
528.72	23665.16
528.89	23845.38
529.07	23529.41
529.24	24121.56
529.41	23723.67
529.58	24095.82
529.75	24095.82
529.92	23873.46
530.09	23892.19
530.26	24123.90
530.43	24535.84
530.60	23927.30
530.77	24376.68
530.94	24177.73
531.11	24116.88
531.28	24203.48
531.46	24077.09
531.63	24402.43
531.80	24400.08
531.97	24297.10
532.14	24863.51
532.31	24271.36
532.48	24439.87
532.65	24961.81
532.82	24327.53
532.99	24891.60
533.16	24573.28
533.33	25113.95
533.50	24975.86
533.67	24975.86
533.84	24737.12
534.01	24610.73
534.18	24641.16
534.35	25001.60
534.52	25053.09
534.69	24961.81
534.86	25289.49
535.03	25043.73
535.20	25104.59
535.37	25118.63
535.54	25254.38
535.71	25003.94
535.88	25106.93
536.05	25242.68
536.22	25617.16
536.38	25680.36
536.55	25788.02
536.72	25034.37
536.89	25041.39
537.06	25450.99
537.23	25345.66
537.40	25191.19
537.57	25507.16
537.74	25888.67
537.91	25729.51
538.08	26038.46
538.25	25790.36
538.42	25736.53
538.59	25792.70
538.75	25830.15
538.92	25806.75
539.09	25855.90
539.26	25811.43
539.43	25986.97
539.60	26071.23
539.77	25914.41
539.94	26260.81
540.11	26092.29
540.28	26033.78
540.44	26080.59
540.61	25954.20
540.78	25701.42
540.95	26005.69
541.12	26155.49
541.29	26408.26
541.46	26396.56
541.62	26073.57
541.79	26216.34
541.96	26183.57
542.13	26408.26
542.30	26595.51
542.47	26639.98
542.63	26497.20
542.80	26307.62
542.97	26979.36
543.14	26951.27
543.31	26799.13
543.48	26824.88
543.64	26862.33
543.81	27129.15
543.98	26845.94
544.15	27047.23
544.32	27503.64
544.48	27318.73
544.65	26841.26
544.82	27028.51
544.99	26974.67
545.16	27094.04
545.32	26838.92
545.49	27274.26
545.66	27344.48
545.83	27290.65
546.00	27358.52
546.16	27087.02
546.33	27014.46
546.50	27002.76
546.67	27285.97
546.83	26897.44
547.00	26986.38
547.17	27335.12
547.34	27285.97
547.50	27992.81
547.67	27454.48
547.84	27623.00
548.00	27725.99
548.17	27625.34
548.34	27608.96
548.51	27730.67
548.67	27833.65
548.84	27826.63
549.01	27840.67
549.18	27948.34
549.34	27756.41
549.51	28112.17
549.68	27946.00
549.84	28081.75
550.01	27894.50
550.18	27798.54
550.34	28070.04
550.51	27903.87
550.68	27723.65
550.84	27924.93
551.01	27955.36
551.18	28297.08
551.34	28151.96
551.51	27845.35
551.68	28350.91
551.84	28311.12
552.01	28074.73
552.18	28318.14
552.34	27908.55
552.51	28320.48
552.68	28161.33
552.84	28219.84
553.01	28666.88
553.18	28379.00
553.34	28294.74
553.51	28315.80
553.67	28577.94
553.84	28624.75
554.01	28828.38
554.17	28634.11
554.34	28489.00
554.51	28421.13
554.67	28613.05
554.84	28662.20
555.00	28526.45
555.17	28690.29
555.33	28926.68
555.50	28257.29
555.67	28954.77
555.83	28549.85
556.00	28706.67
556.16	28912.64
556.33	28437.51
556.50	28835.40
556.66	29298.83
556.83	29163.08
556.99	29500.11
557.16	29188.82
557.32	28856.46
557.49	28886.89
557.65	28903.28
557.82	28566.24
557.98	29039.03
558.15	29060.09
558.32	29266.06
558.48	29097.54
558.65	28987.53
558.81	29294.14
558.98	29345.64
559.14	28971.15
559.31	29116.26
559.47	29118.60
559.64	28989.88
559.80	29216.91
559.97	29305.85
560.13	29303.51
560.30	29490.75
560.46	29486.07
560.63	29401.81
560.79	29474.37
560.96	29256.70
561.12	29546.92
561.29	29053.07
561.45	29317.55
561.61	29469.69
561.78	29823.11
561.94	29226.27
562.11	29413.51
562.27	29469.69
562.44	29645.23
562.60	29493.09
562.77	29376.06
562.93	29359.68
563.10	29596.07
563.26	29582.03
563.42	29804.38
563.59	29844.17
563.75	29523.52
563.92	29668.63
564.08	29734.17
564.24	29364.36
564.41	29563.31
564.57	29879.28
564.74	29523.52
564.90	29495.43
565.07	29773.95
565.23	29689.70
565.39	29783.32
565.56	29902.68
565.72	29935.45
565.88	29586.71
566.05	29713.10
566.21	29839.49
566.38	29551.60
566.54	29841.83
566.70	30258.45
566.87	30155.46
567.03	30005.67
567.19	30108.65
567.36	30291.21
567.52	29989.28
567.68	30050.14
567.85	29792.68
568.01	30122.69
568.17	30038.44
568.34	30426.96
568.50	30059.50
568.66	30118.01
568.83	29818.42
568.99	30125.04
569.15	30230.36
569.32	30132.06
569.48	30071.20
569.64	30305.26
569.81	30129.72
569.97	29958.86
570.13	30382.49
570.30	29977.58
570.46	30190.57
570.62	30256.11
570.78	30265.47
570.95	29766.93
571.11	30270.15
571.27	30010.35
571.43	29855.87
571.60	30169.51
571.76	29898.00
571.92	30265.47
572.09	29986.94
572.25	30352.07
572.41	29738.85
572.57	30352.07
572.74	30242.06
572.90	29757.57
573.06	30134.40
573.22	30263.13
573.38	30181.21
573.55	30073.54
573.71	30478.46
573.87	30380.15
574.03	30141.42
574.20	30239.72
574.36	30380.15
574.52	30265.47
574.68	30024.39
574.84	30237.38
575.01	30075.88
575.17	30574.42
575.33	30047.80
575.49	30415.26
575.65	30436.33
575.82	30103.97
575.98	30394.20
576.14	30319.30
576.30	30176.53
576.46	30225.68
576.62	30101.63
576.79	30223.34
576.95	30232.70
577.11	30679.74
577.27	30443.35
577.43	30462.07
577.59	30485.48
577.75	30312.28
577.92	29975.24
578.08	30073.54
578.24	30305.26
578.40	30258.45
578.56	30363.77
578.72	30480.80
578.88	30756.98
579.04	30483.14
579.21	30323.98
579.37	30443.35
579.53	30934.86
579.69	30244.40
579.85	30321.64
580.01	30302.92
580.17	30616.55
580.33	30338.02
580.49	30433.99
580.65	30565.06
580.82	30871.67
580.98	30445.69
581.14	30375.47
581.30	30881.03
581.46	30543.99
581.62	30497.18
581.78	30197.59
581.94	30288.87
582.10	30256.11
582.26	30391.86
582.42	30754.64
582.58	30551.01
582.74	30380.15
582.90	30616.55
583.06	30593.14
583.22	30478.46
583.38	30646.97
583.54	30431.65
583.70	30326.32
583.86	30403.56
584.02	30497.18
584.18	30918.48
584.34	30148.44
584.50	30742.94
584.66	30651.66
584.82	30572.08
584.98	30543.99
585.14	30595.48
585.30	30333.34
585.46	30452.71
585.62	30279.51
585.78	30899.75
585.94	30464.41
586.10	30422.28
586.26	30597.82
586.42	30555.69
586.58	30822.51
586.74	30075.88
586.90	30670.38
587.06	30611.87
587.22	30721.87
587.38	30473.78
587.54	30361.43
587.70	30745.28
587.86	30644.63
588.02	30670.38
588.18	31122.10
588.34	30962.95
588.49	30841.24
588.65	30733.57
588.81	30281.85
588.97	30548.67
589.13	30661.02
589.29	30838.90
589.45	30806.13
589.61	31063.59
589.77	31070.61
589.93	31014.44
590.08	31241.47
590.24	30965.29
590.40	31145.51
590.56	30984.01
590.72	30998.06
590.88	30586.12
591.04	30883.37
591.20	31131.47
591.35	31166.57
591.51	31164.23
591.67	31248.49
591.83	31419.35
591.99	31213.38
592.15	31161.89
592.31	31138.49
592.46	30965.29
592.62	30436.33
592.78	30569.74
592.94	30792.09
593.10	30965.29
593.26	31037.84
593.41	30941.88
593.57	31063.59
593.73	30752.30
593.89	31218.07
594.05	30920.82
594.20	31192.32
594.36	30909.11
594.52	30714.85
594.68	31070.61
594.84	30761.66
594.99	31208.70
595.15	31220.41
595.31	31180.62
595.47	31269.56
595.62	31379.56
595.78	31307.01
595.94	30661.02
596.10	30876.35
596.25	31147.85
596.41	31267.22
596.57	30895.07
596.73	30969.97
596.88	31154.87
597.04	31192.32
597.20	31470.84
597.36	31101.04
597.51	31398.29
597.67	31075.29
597.83	31264.88
597.99	31274.24
598.14	30941.88
598.30	30911.46
598.46	31070.61
598.61	30981.67
598.77	31405.31
598.93	31206.36
599.09	31463.82
599.24	31566.81
599.40	31370.20
599.56	31718.94
599.71	31248.49
599.87	30969.97
600.03	31019.12
600.18	31204.02
600.34	30906.77
600.50	31030.82
600.65	31417.01
600.81	31367.86
600.97	31435.74
601.12	31260.20
601.28	31353.82
601.44	31527.02
601.59	31503.61
601.75	31353.82
601.91	31466.16
602.06	31189.98
602.22	31295.30
602.37	31311.69
602.53	31386.58
602.69	31267.22
602.84	31349.14
603.00	31281.26
603.16	31199.34
603.31	31330.41
603.47	31536.38
603.62	31292.96
603.78	31192.32
603.94	31094.02
604.09	30988.69
604.25	30890.39
604.40	31124.44
604.56	30780.39
604.71	31634.68
604.87	31449.78
605.03	31484.89
605.18	31559.78
605.34	31182.96
605.49	31204.02
605.65	31094.02
605.80	30967.63
605.96	31344.45
606.12	30888.05
606.27	31051.89
606.43	30696.13
606.58	31360.84
606.74	30993.37
606.89	30965.29
607.05	31285.94
607.20	31150.19
607.36	31370.20
607.51	31175.94
607.67	31302.32
607.82	31096.36
607.98	31091.68
608.13	30974.65
608.29	31136.15
608.44	30944.22
608.60	30899.75
608.75	31276.58
608.91	30991.03
609.06	31225.09
609.22	31199.34
609.37	30834.22
609.53	30902.09
609.68	30953.58
609.84	30799.11
609.99	30864.64
610.15	31082.31
610.30	30714.85
610.46	30885.71
610.61	31094.02
610.76	31304.67
610.92	31133.81
611.07	30771.02
611.23	30766.34
611.38	30888.05
611.54	30494.84
611.69	30771.02
611.84	30792.09
612.00	30291.21
612.15	30689.10
612.31	31325.73
612.46	30677.40
612.62	30773.36
612.77	30749.96
612.92	31033.16
613.08	30714.85
613.23	30878.69
613.39	30478.46
613.54	30546.33
613.69	30883.37
613.85	30632.93
614.00	30546.33
614.15	30553.35
614.31	30663.36
614.46	30925.50
614.62	30628.25
614.77	30611.87
614.92	30848.26
615.08	30625.91
615.23	30410.58
615.38	30630.59
615.54	30235.04
615.69	30480.80
615.84	30742.94
616.00	30120.35
616.15	30377.81
616.30	30548.67
616.46	30436.33
616.61	30415.26
616.76	30768.68
616.92	30459.73
617.07	30562.72
617.22	30455.05
617.37	30199.93
617.53	30752.30
617.68	30302.92
617.83	30487.82
617.99	29928.43
618.14	30405.90
618.29	30118.01
618.45	30391.86
618.60	30305.26
618.75	30508.88
618.90	30277.17
619.06	30349.73
619.21	30085.25
619.36	30005.67
619.51	30096.95
619.67	29795.02
619.82	29989.28
619.97	29717.78
620.12	29919.07
620.28	29982.26
620.43	30160.14
620.58	30155.46
620.73	30040.78
620.89	30436.33
621.04	30368.45
621.19	30162.48
621.34	29930.77
621.49	29832.47
621.65	29827.79
621.80	29991.62
621.95	29919.07
622.10	30127.38
622.25	29708.42
622.41	29759.91
622.56	29937.79
622.71	29755.23
622.86	29839.49
623.01	29970.56
623.16	29729.48
623.32	29418.19
623.47	29673.31
623.62	29670.97
623.77	29252.02
623.92	29729.48
624.07	29544.58
624.23	30012.69
624.38	29380.74
624.53	29626.50
624.68	29827.79
624.83	29909.71
624.98	29797.36
625.13	29766.93
625.29	29518.84
625.44	29415.85
625.59	29605.44
625.74	29263.72
625.89	29542.24
626.04	29724.80
626.19	29324.57
626.34	29535.22
626.49	29427.56
626.65	28896.25
626.80	29687.36
626.95	29359.68
627.10	29233.29
627.25	29214.57
627.40	29266.06
627.55	29230.95
627.70	28952.43
627.85	29443.94
628.00	29500.11
628.15	29039.03
628.30	29053.07
628.45	29263.72
628.60	28886.89
628.76	29024.98
628.91	29125.63
629.06	29226.27
629.21	29022.64
629.36	29284.78
629.51	28950.09
629.66	29207.55
629.81	28924.34
629.96	28716.03
630.11	28666.88
630.26	29078.82
630.41	28861.15
630.56	28844.76
630.71	28779.23
630.86	28835.40
631.01	28767.52
631.16	29099.88
631.31	28882.21
631.46	28528.79
631.61	29172.44
631.76	29001.58
631.91	28835.40
632.06	28903.28
632.21	28664.54
632.36	28711.35
632.51	28669.22
632.66	28713.69
632.81	28711.35
632.96	28570.92
633.10	28823.70
633.25	28737.10
633.40	28732.42
633.55	28648.16
633.70	28371.97
633.85	28278.35
634.00	28584.96
634.15	28425.81
634.30	28435.17
634.45	28276.01
634.60	28107.49
634.75	28306.44
634.90	28217.50
635.05	28390.70
635.19	28507.72
635.34	28751.14
635.49	28222.18
635.64	28709.01
635.79	28577.94
635.94	28156.64
636.09	28233.88
636.24	27896.85
636.39	27938.97
636.53	28119.20
636.68	28079.41
636.83	27948.34
636.98	28343.89
637.13	28093.45
637.28	28058.34
637.43	28360.27
637.57	28158.99
637.72	28278.35
637.87	28025.57
638.02	27901.53
638.17	28400.06
638.32	28018.55
638.46	27662.79
638.61	27924.93
638.76	27913.23
638.91	27938.97
639.06	27751.73
639.20	27850.03
639.35	27758.75
639.50	27990.47
639.65	27957.70
639.80	27789.18
639.94	27796.20
640.09	27800.88
640.24	27995.15
640.39	27417.04
640.54	27494.27
640.68	27330.44
640.83	27482.57
640.98	27651.09
641.13	27241.50
641.27	27550.45
641.42	27503.64
641.57	27328.10
641.72	27971.74
641.86	27433.42
642.01	27297.67
642.16	27344.48
642.31	27548.11
642.45	27358.52
642.60	26913.82
642.75	27566.83
642.90	27463.85
643.04	27269.58
643.19	27508.32
643.34	27145.53
643.48	27136.17
643.63	27725.99
643.78	27323.41
643.93	27264.90
644.07	27424.06
644.22	27571.51
644.37	27208.73
644.51	27204.05
644.66	27386.61
644.81	27185.32
644.95	26836.58
645.10	26977.01
645.25	27475.55
645.39	27255.54
645.54	27213.41
645.69	27215.75
645.83	27122.13
645.98	27154.90
646.13	27140.85
646.27	27112.77
646.42	27239.15
646.57	27428.74
646.71	27096.38
646.86	26867.01
647.00	26780.41
647.15	27023.83
647.30	26766.37
647.44	26913.82
647.59	26668.06
647.74	26745.30
647.88	27131.49
648.03	27300.01
648.17	26927.86
648.32	27026.17
648.47	26962.97
648.61	26764.03
648.76	26799.13
648.90	26948.93
649.05	27112.77
649.20	26525.29
649.34	26801.47
649.49	26925.52
649.63	26684.45
649.78	26726.58
649.92	26513.59
650.07	26843.60
650.21	26560.40
650.36	26752.32
650.51	26218.68
650.65	26735.94
650.80	26525.29
650.94	26485.50
651.09	26443.37
651.23	26490.18
651.38	26263.15
651.52	26405.92
651.67	26412.95
651.81	26410.60
651.96	26370.82
652.10	26256.13
652.25	26302.94
652.39	26417.63
652.54	26815.52
652.68	26286.56
652.83	26441.03
652.97	26389.54
653.12	26534.65
653.26	26309.96
653.41	26602.53
653.55	26438.69
653.70	26085.27
653.84	25858.24
653.99	26508.91
654.13	26204.64
654.27	25991.65
654.42	26295.92
654.56	26401.24
654.71	26260.81
654.85	25949.52
655.00	26235.06
655.14	26068.89
655.29	26099.31
655.43	26396.56
655.57	26017.40
655.72	26169.53
655.86	25881.64
656.01	25708.44
656.15	25734.19
656.30	26171.87
656.44	26050.16
656.58	25940.16
656.73	25935.48
656.87	25881.64
657.01	25656.95
657.16	25956.54
657.30	25834.83
657.45	25881.64
657.59	25942.50
657.73	25827.81
657.88	25893.35
658.02	25441.62
658.16	25221.61
658.31	25813.77
658.45	25603.12
658.60	25223.95
658.74	25261.40
658.88	25336.30
659.03	25392.47
659.17	25565.67
659.31	25507.16
659.46	25450.99
659.60	25624.18
659.74	25106.93
659.89	25191.19
660.03	25392.47
660.17	25216.93
660.32	25394.81
660.46	25097.56
660.60	25308.21
660.74	25537.59
660.89	25340.98
661.03	24709.04
661.17	25165.44
661.32	24891.60
661.46	25429.92
661.60	25406.52
661.74	25109.27
661.89	24945.43
662.03	24872.87
662.17	24863.51
662.31	25003.94
662.46	24800.32
662.60	24439.87
662.74	24671.59
662.88	24659.88
663.03	24542.86
663.17	24285.40
663.31	24280.72
663.45	24634.14
663.60	24421.15
663.74	24311.14
663.88	24512.43
664.02	24463.28
664.17	24500.73
664.31	24510.09
664.45	24465.62
664.59	24519.45
664.73	24119.22
664.88	24219.86
665.02	23992.83
665.16	24189.44
665.30	24301.78
665.44	24201.14
665.59	23955.38
665.73	23894.53
665.87	23672.18
666.01	24063.05
666.15	24006.87
666.29	24257.31
666.44	23845.38
666.58	23915.59
666.72	23740.05
666.86	23309.40
667.00	24348.59
667.14	23983.47
667.28	23679.20
667.43	23641.75
667.57	23353.87
667.71	23564.51
667.85	23543.45
667.99	23384.29
668.13	23742.39
668.27	23700.26
668.41	23424.08
668.56	23349.18
668.70	23398.34
668.84	23206.41
668.98	23175.98
669.12	23866.44
669.26	23388.97
669.40	23405.36
669.54	23515.36
669.68	23218.11
669.82	22583.83
669.96	22923.21
670.10	22827.24
670.25	22998.10
670.39	23110.45
670.53	22815.54
670.67	22867.03
670.81	22618.94
670.95	23173.64
671.09	22878.74
671.23	22698.52
671.37	22768.73
671.51	22951.29
671.65	22864.69
671.79	22979.38
671.93	22569.79
672.07	22443.40
672.21	22436.38
672.35	22494.89
672.49	22335.73
672.63	22122.74
672.77	21954.22
672.91	22485.53
673.05	22209.34
673.19	22080.61
673.33	22253.81
673.47	21982.31
673.61	22174.24
673.75	22328.71
673.89	22141.47
674.03	22043.17
674.17	22113.38
674.31	21710.81
674.45	21818.47
674.59	21806.77
674.73	21926.14
674.87	21603.14
675.01	21516.54
675.15	21621.87
675.29	21404.20
675.43	21261.43
675.56	21586.76
675.70	21589.10
675.84	21446.33
675.98	20978.22
676.12	21664.00
676.26	21331.64
676.40	21401.86
676.54	21369.09
676.68	21158.44
676.82	21006.31
676.96	21020.35
677.10	20730.12
677.23	21137.38
677.37	20828.43
677.51	20774.60
677.65	20650.55
677.79	20819.07
677.93	20688.00
678.07	20388.41
678.21	20247.97
678.34	20072.43
678.48	20039.67
678.62	20152.01
678.76	20100.52
678.90	20119.24
679.04	20215.21
679.18	20290.10
679.31	19985.83
679.45	19983.49
679.59	19669.86
679.73	19716.67
679.87	19442.83
680.00	19793.91
680.14	19384.32
680.28	19374.95
680.42	19625.39
680.56	19939.02
680.70	19442.83
680.83	19318.78
680.97	19391.34
681.11	19463.90
681.25	19173.67
681.39	19110.47
681.52	19197.07
681.66	18995.79
681.80	18827.27
681.94	18850.67
682.07	18892.80
682.21	18841.31
682.35	18586.19
682.49	18618.96
682.62	18705.56
682.76	18595.56
682.90	18897.49
683.04	18326.39
683.17	18665.77
683.31	18609.60
683.45	18508.96
683.59	18188.30
683.72	18347.46
683.86	18249.16
684.00	18153.20
684.13	18134.47
684.27	17982.34
684.41	17994.04
684.55	17589.13
684.68	17298.90
684.82	17570.40
684.96	17483.80
685.09	17685.09
685.23	17228.68
685.37	17769.35
685.50	17741.26
685.64	17666.36
685.78	17633.60
685.91	17582.10
686.05	17390.18
686.19	17507.21
686.32	17394.86
686.46	17001.65
686.60	17116.34
686.73	17015.69
686.87	16769.94
687.01	16830.79
687.14	16713.77
687.28	16915.05
687.42	16601.42
687.55	16725.47
687.69	16587.38
687.82	16545.25
687.96	16563.97
688.10	16421.20
688.23	16676.32
688.37	16554.61
688.50	16353.32
688.64	16580.36
688.78	16358.00
688.91	15894.58
689.05	15873.51
689.18	16037.35
689.32	15679.25
689.46	15896.92
689.59	15784.57
689.73	15632.44
689.86	15702.65
690.00	15822.02
690.13	15541.16
690.27	15648.82
690.41	15733.08
690.54	15536.48
690.68	15566.90
690.81	15548.18
690.95	15515.41
691.08	15281.36
691.22	15302.42
691.35	15389.02
691.49	15061.35
691.62	14946.66
691.76	14995.81
691.89	15208.80
692.03	14801.55
692.16	14452.81
692.30	14534.73
692.43	14567.49
692.57	14972.41
692.70	14462.17
692.84	14630.69
692.97	14565.15
693.11	14567.49
693.24	14204.71
693.38	14345.14
693.51	14398.98
693.65	14576.86
693.78	14174.28
693.92	14225.78
694.05	14190.67
694.19	14216.41
694.32	14295.99
694.45	13855.97
694.59	13958.96
694.72	13448.72
694.86	13621.92
694.99	13748.31
695.13	13514.25
695.26	13647.66
695.39	13757.67
695.53	13563.40
695.66	13666.39
695.80	13617.24
695.93	13598.51
696.07	13584.47
696.20	13635.96
696.33	13399.57
696.47	13394.89
696.60	13107.00
696.73	13132.75
696.87	13130.41
697.00	13018.06
697.14	12957.21
697.27	12681.02
697.40	12564.00
697.54	12568.68
697.67	12702.09
697.80	12465.69
697.94	12381.43
698.07	12458.67
698.21	12608.47
698.34	12475.06
698.47	12451.65
698.61	12374.41
698.74	12484.42
698.87	12252.70
699.01	12248.02
699.14	12088.87
699.27	12198.87
699.40	12006.95
699.54	11871.20
699.67	12084.19
699.80	11892.26
699.94	11950.78
700.07	11775.24
700.20	11672.25
700.34	11396.07
700.47	11548.20
700.60	11538.84
700.73	11606.72
700.87	11672.25
701.00	11480.33
701.13	11288.40
701.26	11454.58
701.40	11279.04
701.53	11372.66
701.66	11307.13
701.79	11075.42
701.93	11405.43
702.06	11145.63
702.19	10942.00
702.32	11056.69
702.46	10991.16
702.59	10761.78
702.72	10696.25
702.85	10899.87
702.99	10764.12
703.12	10780.51
703.25	10654.12
703.38	10558.16
703.51	10595.61
703.65	10663.48
703.78	10403.68
703.91	10602.63
704.04	10368.57
704.17	10600.29
704.31	10417.72
704.44	10218.78
704.57	10193.03
704.70	10078.35
704.83	10251.55
704.96	9966.00
705.10	9926.21
705.23	9935.57
>>>>>End Processed Spectral Data<<<<<
