SpectraSuite Data File
++++++++++++++++++++++++++++++++++++
Date: Fri Oct 18 13:58:02 GMT-05:00 2013
User: bianchi
Dark Spectrum Present: No
Reference Spectrum Present: No
Number of Sampled Component Spectra: 1
Spectrometers: USB2+H05261
Integration Time (usec): 50000 (USB2+H05261)
Spectra Averaged: 1 (USB2+H05261)
Boxcar Smoothing: 0 (USB2+H05261)
Correct for Electrical Dark: No (USB2+H05261)
Strobe/Lamp Enabled: No (USB2+H05261)
Correct for Detector Non-linearity: No (USB2+H05261)
Correct for Stray Light: No (USB2+H05261)
Number of Pixels in Processed Spectrum: 2048
>>>>>Begin Processed Spectral Data<<<<<
365.73	0.00
365.92	0.00
366.12	0.00
366.32	0.00
366.52	0.00
366.72	0.00
366.91	0.00
367.11	0.00
367.31	0.00
367.51	0.00
367.70	0.00
367.90	0.00
368.10	0.00
368.30	0.00
368.49	0.00
368.69	0.00
368.89	0.00
369.09	0.00
369.28	0.00
369.48	0.00
369.68	0.00
369.87	0.00
370.07	0.00
370.27	0.00
370.47	4.68
370.66	25.75
370.86	107.66
371.06	152.13
371.25	159.16
371.45	114.69
371.65	184.90
371.84	140.43
372.04	112.35
372.24	196.60
372.44	201.29
372.63	191.92
372.83	220.01
373.03	194.26
373.22	170.86
373.42	224.69
373.62	191.92
373.81	187.24
374.01	283.20
374.21	250.44
374.40	241.08
374.60	353.42
374.79	198.95
374.99	234.05
375.19	222.35
375.38	201.29
375.58	266.82
375.78	355.76
375.97	252.78
376.17	276.18
376.37	212.99
376.56	266.82
376.76	217.67
376.95	290.23
377.15	292.57
377.35	280.86
377.54	351.08
377.74	297.25
377.93	255.12
378.13	259.80
378.33	339.38
378.52	292.57
378.72	243.42
378.91	273.84
379.11	266.82
379.31	301.93
379.50	290.23
379.70	313.63
379.89	346.40
380.09	266.82
380.28	238.73
380.48	294.91
380.68	283.20
380.87	355.76
381.07	285.55
381.26	280.86
381.46	287.89
381.65	322.99
381.85	243.42
382.04	351.08
382.24	353.42
382.43	299.59
382.63	367.46
382.83	297.25
383.02	287.89
383.22	304.27
383.41	330.02
383.61	383.85
383.80	404.91
384.00	315.97
384.19	341.72
384.39	325.33
384.58	400.23
384.78	393.21
384.97	372.15
385.17	388.53
385.36	402.57
385.56	395.55
385.75	423.64
385.95	376.83
386.14	369.80
386.34	301.93
386.53	454.06
386.72	425.98
386.92	428.32
387.11	346.40
387.31	362.78
387.50	472.79
387.70	437.68
387.89	404.91
388.09	411.93
388.28	404.91
388.48	479.81
388.67	416.62
388.86	454.06
389.06	383.85
389.25	390.87
389.45	463.43
389.64	425.98
389.84	510.24
390.03	531.30
390.22	461.09
390.42	475.13
390.61	435.34
390.81	500.87
391.00	557.05
391.19	489.17
391.39	519.60
391.58	528.96
391.78	528.96
391.97	573.43
392.16	484.49
392.36	580.45
392.55	617.90
392.75	566.41
392.94	503.22
393.13	510.24
393.33	589.82
393.52	587.47
393.71	608.54
393.91	526.62
394.10	587.47
394.29	582.79
394.49	557.05
394.68	596.84
394.88	662.37
395.07	622.58
395.26	533.64
395.46	606.20
395.65	636.63
395.84	669.39
396.04	657.69
396.23	667.05
396.42	624.92
396.62	667.05
396.81	676.41
397.00	720.88
397.19	674.07
397.39	695.14
397.58	617.90
397.77	671.73
397.97	720.88
398.16	702.16
398.35	575.77
398.55	739.61
398.74	699.82
398.93	774.72
399.12	702.16
399.32	671.73
399.51	713.86
399.70	781.74
399.90	676.41
400.09	765.36
400.28	699.82
400.47	751.31
400.67	830.89
400.86	772.38
401.05	777.06
401.24	781.74
401.44	887.06
401.63	828.55
401.82	800.46
402.01	816.85
402.21	821.53
402.40	851.96
402.59	737.27
402.78	847.27
402.97	837.91
403.17	788.76
403.36	856.64
403.55	814.51
403.74	950.26
403.93	936.21
404.13	898.77
404.32	929.19
404.51	901.11
404.70	877.70
404.89	1001.75
405.09	978.34
405.28	910.47
405.47	922.17
405.66	1001.75
405.85	1043.88
406.05	1053.24
406.24	1095.37
406.43	999.41
406.62	964.30
406.81	1001.75
407.00	1055.58
407.20	954.94
407.39	1011.11
407.58	1050.90
407.77	1034.52
407.96	1069.62
408.15	1146.86
408.34	1107.07
408.54	1048.56
408.73	1210.06
408.92	959.62
409.11	1219.42
409.30	1121.12
409.49	1160.91
409.68	1181.97
409.87	1074.31
410.07	1200.69
410.26	1179.63
410.45	1121.12
410.64	1151.54
410.83	1214.74
411.02	1282.61
411.21	1301.34
411.40	1224.10
411.59	1296.66
411.78	1310.70
411.98	1287.29
412.17	1383.26
412.36	1364.53
412.55	1350.49
412.74	1303.68
412.93	1317.72
413.12	1453.47
413.31	1383.26
413.50	1376.24
413.69	1448.79
413.88	1458.15
414.07	1582.20
414.26	1570.50
414.45	1481.56
414.64	1509.65
414.83	1530.71
415.02	1497.94
415.22	1568.16
415.41	1621.99
415.60	1593.90
415.79	1593.90
415.98	1636.03
416.17	1739.02
416.36	1535.39
416.55	1638.38
416.74	1675.82
416.93	1610.29
417.12	1621.99
417.31	1631.35
417.50	1713.27
417.69	1832.64
417.88	1797.53
418.07	1699.23
418.26	1834.98
418.45	1783.49
418.64	1905.20
418.83	1832.64
419.02	1783.49
419.21	1820.94
419.39	1863.07
419.58	1790.51
419.77	1851.36
419.96	1870.09
420.15	1865.41
420.34	1923.92
420.53	1834.98
420.72	1916.90
420.91	1928.60
421.10	2001.16
421.29	1935.62
421.48	1872.43
421.67	1930.94
421.86	1933.28
422.05	1919.24
422.24	1870.09
422.43	2012.86
422.61	2038.61
422.80	2017.54
422.99	2045.63
423.18	2038.61
423.37	2139.25
423.56	1937.96
423.75	2003.50
423.94	1975.41
424.13	2017.54
424.32	2001.16
424.50	2090.10
424.69	2066.69
424.88	2094.78
425.07	1923.92
425.26	1980.09
425.45	2083.08
425.64	2115.84
425.83	1977.75
426.01	2155.63
426.20	2019.88
426.39	2127.55
426.58	2129.89
426.77	2155.63
426.96	2118.18
427.15	2174.36
427.33	2143.93
427.52	2115.84
427.71	2179.04
427.90	2139.25
428.09	2143.93
428.28	2003.50
428.46	2272.66
428.65	2251.60
428.84	2289.04
429.03	2366.28
429.22	2176.70
429.40	2197.76
429.59	2162.66
429.78	2277.34
429.97	2237.55
430.16	2267.98
430.34	2256.28
430.53	2321.81
430.72	2389.69
430.91	2296.07
431.10	2370.96
431.28	2429.48
431.47	2349.90
431.66	2387.35
431.85	2326.49
432.03	2485.65
432.22	2513.74
432.41	2403.73
432.60	2520.76
432.79	2403.73
432.97	2434.16
433.16	2445.86
433.35	2464.58
433.54	2518.42
433.72	2492.67
433.91	2576.93
434.10	2572.25
434.28	2607.36
434.47	2579.27
434.66	2523.10
434.85	2616.72
435.03	2513.74
435.22	2565.23
435.41	2616.72
435.59	2642.46
435.78	2670.55
435.97	2717.36
436.16	2724.38
436.34	2665.87
436.53	2693.96
436.72	2782.90
436.90	2679.91
437.09	2773.53
437.28	2717.36
437.46	2839.07
437.65	2801.62
437.84	2757.15
438.02	2827.37
438.21	2855.45
438.40	2773.53
438.58	2902.26
438.77	2932.69
438.96	2904.60
439.14	2967.80
439.33	2942.05
439.52	2949.08
439.70	2918.65
439.89	3000.57
440.08	3021.63
440.26	3063.76
440.45	3047.38
440.63	3012.27
440.82	3157.38
441.01	3201.85
441.19	3187.81
441.38	3239.30
441.57	3201.85
441.75	3314.20
441.94	3178.45
442.12	3208.87
442.31	3400.80
442.50	3269.73
442.68	3346.97
442.87	3421.86
443.05	3307.18
443.24	3243.98
443.43	3407.82
443.61	3393.78
443.80	3475.70
443.98	3260.37
444.17	3316.54
444.35	3393.78
444.54	3613.79
444.73	3445.27
444.91	3421.86
445.10	3531.87
445.28	3424.20
445.47	3396.12
445.65	3349.31
445.84	3496.76
446.02	3634.85
446.21	3482.72
446.39	3590.38
446.58	3611.45
446.77	3571.66
446.95	3471.01
447.14	3599.74
447.32	3559.95
447.51	3604.42
447.69	3433.57
447.88	3506.12
448.06	3438.25
448.25	3506.12
448.43	3534.21
448.62	3503.78
448.80	3506.12
448.99	3648.90
449.17	3559.95
449.36	3562.30
449.54	3634.85
449.73	3815.07
449.91	3653.58
450.10	3679.32
450.28	3737.84
450.46	3623.15
450.65	3719.11
450.83	3709.75
451.02	3742.52
451.20	3733.15
451.39	3815.07
451.57	3770.60
451.76	3829.12
451.94	3878.27
452.13	4037.42
452.31	3805.71
452.49	3796.35
452.68	3843.16
452.86	3817.41
453.05	3918.06
453.23	4056.15
453.42	3882.95
453.60	3880.61
453.78	3960.19
453.97	3990.61
454.15	3962.53
454.34	3885.29
454.52	3967.21
454.70	4051.47
454.89	3990.61
455.07	4039.76
455.26	4032.74
455.44	3999.98
455.62	4107.64
455.81	4112.32
455.99	4189.56
456.17	4074.87
456.36	4360.42
456.54	4025.72
456.73	4320.63
456.91	4414.25
457.09	4325.31
457.28	4404.89
457.46	4388.50
457.64	4383.82
457.83	4395.53
458.01	4262.12
458.19	4524.26
458.38	4428.29
458.56	4622.56
458.74	4526.60
458.93	4418.93
459.11	4393.19
459.29	4470.42
459.48	4449.36
459.66	4414.25
459.84	4571.07
460.03	4617.88
460.21	4554.68
460.39	4585.11
460.57	4585.11
460.76	4664.69
460.94	4762.99
461.12	4786.40
461.31	4809.80
461.49	4564.04
461.67	4564.04
461.85	4889.38
462.04	4880.02
462.22	5074.28
462.40	4779.37
462.59	4821.50
462.77	4791.08
462.95	4762.99
463.13	4748.95
463.32	4781.71
463.50	4779.37
463.68	4882.36
463.86	4830.87
464.05	4854.27
464.23	4954.91
464.41	4933.85
464.59	4903.42
464.78	4980.66
464.96	4959.60
465.14	5088.32
465.32	5060.24
465.50	5008.75
465.69	5043.85
465.87	5029.81
466.05	5191.31
466.23	4922.15
466.41	5006.41
466.60	5200.67
466.78	5057.90
466.96	5048.54
467.14	5006.41
467.32	5048.54
467.51	5104.71
467.69	5125.77
467.87	5233.44
468.05	5289.61
468.23	5214.71
468.41	5170.24
468.60	5069.60
468.78	5247.48
468.96	5123.43
469.14	5350.46
469.32	5366.85
469.50	5200.67
469.69	5282.59
469.87	5399.62
470.05	5544.73
470.23	5465.15
470.41	5390.25
470.59	5441.75
470.77	5322.38
470.95	5650.05
471.14	5652.39
471.32	5518.98
471.50	5528.35
471.68	5465.15
471.86	5645.37
472.04	5834.96
472.22	5834.96
472.40	5645.37
472.58	5853.68
472.77	5827.93
472.95	5788.14
473.13	6125.18
473.31	6012.84
473.49	6057.31
473.67	5877.09
473.85	5811.55
474.03	6169.65
474.21	6050.28
474.39	6043.26
474.57	6101.78
474.75	6338.17
474.93	6300.72
475.12	6125.18
475.30	6286.68
475.48	6258.59
475.66	6370.94
475.84	6464.56
476.02	6473.92
476.20	6511.37
476.38	6539.46
476.56	6597.97
476.74	6469.24
476.92	6656.48
477.10	6658.82
477.28	6754.79
477.46	6658.82
477.64	6944.37
477.82	7021.61
478.00	7056.72
478.18	6911.60
478.36	7073.10
478.54	7176.08
478.72	7080.12
478.90	7199.49
479.08	7265.02
479.26	7281.41
479.44	7391.41
479.62	7438.22
479.80	7480.35
479.98	7606.74
480.16	7583.34
480.34	7712.07
480.52	7655.89
480.70	7616.10
480.88	7815.05
481.06	7763.56
481.24	7735.47
481.41	7864.20
481.59	8037.40
481.77	8194.22
481.95	8013.99
482.13	8142.72
482.31	8278.47
482.49	8175.49
482.67	8404.86
482.85	8461.04
483.03	8559.34
483.21	8816.80
483.39	8636.58
483.57	8674.03
483.74	8819.14
483.92	8830.84
484.10	8678.71
484.28	9142.13
484.46	9053.19
484.64	9144.47
484.82	9109.36
485.00	9135.11
485.18	9210.01
485.35	9455.76
485.53	9474.49
485.71	9397.25
485.89	9771.74
486.07	9540.02
486.25	9659.39
486.43	9661.73
486.61	9465.13
486.78	10054.94
486.96	10176.65
487.14	10118.14
487.32	10342.83
487.50	10139.20
487.68	10401.34
487.85	10251.55
488.03	10579.22
488.21	10642.42
488.39	10619.01
488.57	10600.29
488.75	10885.83
488.92	10974.77
489.10	10881.15
489.28	10946.69
489.46	11272.02
489.64	11150.31
489.81	11433.52
489.99	11360.96
490.17	11012.22
490.35	11557.57
490.53	11623.10
490.70	11730.76
490.88	11513.10
491.06	11805.66
491.24	11892.26
491.41	12236.32
491.59	12016.31
491.77	12077.16
491.95	12425.90
492.13	12198.87
492.30	12512.50
492.48	12325.26
492.66	12585.06
492.84	12346.33
493.01	12671.66
493.19	12519.53
493.37	12828.48
493.54	12779.32
493.72	12669.32
493.90	12980.61
494.08	13207.64
494.25	13275.52
494.43	13418.29
494.61	13345.73
494.79	13619.58
494.96	13467.44
495.14	13703.84
495.32	13291.90
495.49	13776.39
495.67	13596.17
495.85	13848.95
496.02	14209.39
496.20	13996.40
496.38	14064.28
496.55	14008.11
496.73	14408.34
496.91	14195.35
497.09	14424.72
497.26	14267.91
497.44	14736.01
497.62	14604.94
497.79	14649.41
497.97	14626.01
498.14	14974.75
498.32	14815.59
498.50	14925.60
498.67	15087.09
498.85	15042.62
499.03	15131.56
499.20	15239.23
499.38	15393.70
499.56	15314.13
499.73	15260.29
499.91	15477.96
500.08	15442.85
500.26	15435.83
500.44	15424.13
500.61	15754.15
500.79	15517.75
500.97	15793.94
501.14	15648.82
501.32	16084.16
501.49	15964.79
501.67	15798.62
501.84	15838.41
502.02	15962.45
502.20	16554.61
502.37	16482.05
502.55	16360.34
502.72	16308.85
502.90	16404.81
503.07	16137.99
503.25	16116.93
503.43	16372.05
503.60	16704.40
503.78	16816.75
503.95	16652.91
504.13	16587.38
504.30	16875.26
504.48	16847.18
504.65	17039.10
504.83	16865.90
505.01	17149.11
505.18	17130.38
505.36	17249.75
505.53	17345.71
505.71	17102.29
505.88	17387.84
506.06	17137.40
506.23	17406.56
506.41	17188.89
506.58	17322.30
506.76	17668.70
506.93	17572.74
507.11	17493.16
507.28	17783.39
507.46	17589.13
507.63	17888.71
507.81	18127.45
507.98	17998.72
508.16	18019.78
508.33	17933.18
508.50	18169.58
508.68	18017.44
508.85	18359.16
509.03	18422.36
509.20	18300.65
509.38	18415.34
509.55	18483.21
509.73	18441.08
509.90	18567.47
510.08	18335.76
510.25	18527.68
510.42	18796.84
510.60	18792.16
510.77	18787.48
510.95	19049.62
511.12	18991.11
511.30	18885.78
511.47	19014.51
511.64	19051.96
511.82	19105.79
511.99	19103.45
512.17	19314.10
512.34	19075.37
512.51	19414.74
512.69	19218.14
512.86	19243.88
513.04	19515.39
513.21	19529.43
513.38	19590.28
513.56	19693.27
513.73	19569.22
513.90	19730.72
514.08	19754.12
514.25	20084.14
514.43	19770.51
514.60	20002.22
514.77	20343.94
514.95	20159.03
515.12	19807.95
515.29	20126.27
515.47	19770.51
515.64	20271.38
515.81	20074.77
515.99	20175.42
516.16	20594.37
516.33	20166.06
516.51	20372.02
516.68	20507.77
516.85	20407.13
517.03	20744.17
517.20	20601.40
517.37	20446.92
517.54	20547.56
517.72	20662.25
517.89	21090.57
518.06	20788.64
518.24	20802.68
518.41	20769.91
518.58	20992.26
518.75	21046.10
518.93	21296.53
519.10	21305.90
519.27	21275.47
519.45	20950.14
519.62	21132.70
519.79	21125.68
519.96	21488.46
520.14	21317.60
520.31	21329.30
520.48	21544.63
520.65	21467.39
520.83	21544.63
521.00	21502.50
521.17	21565.70
521.34	21488.46
521.52	21675.70
521.69	21509.52
521.86	21797.41
522.03	22223.39
522.20	22225.73
522.38	22129.77
522.55	22113.38
522.72	22012.74
522.89	21989.33
523.07	22284.24
523.24	22183.60
523.41	22436.38
523.58	22466.80
523.75	22499.57
523.92	22377.86
524.10	22031.46
524.27	22485.53
524.44	22487.87
524.61	23019.17
524.78	22508.93
524.96	22719.58
525.13	22792.14
525.30	22422.33
525.47	22836.61
525.64	22595.53
525.81	23166.62
525.98	23253.22
526.16	23183.01
526.33	22890.44
526.50	23353.87
526.67	22881.08
526.84	23370.25
527.01	23585.58
527.18	23159.60
527.36	23316.42
527.53	23192.37
527.70	23775.16
527.87	23236.84
528.04	23463.87
528.21	23524.72
528.38	23555.15
528.55	23857.08
528.72	23339.82
528.89	23669.84
529.07	23608.98
529.24	23786.86
529.41	23744.73
529.58	23515.36
529.75	23634.73
529.92	23765.80
530.09	24023.26
530.26	24166.03
530.43	24044.32
530.60	23833.68
530.77	23833.68
530.94	23814.95
531.11	23960.06
531.28	24215.18
531.46	24016.24
531.63	24095.82
531.80	24460.94
531.97	24430.51
532.14	24130.92
532.31	24294.76
532.48	24191.78
532.65	24233.91
532.82	24290.08
532.99	24252.63
533.16	24570.94
533.33	24858.83
533.50	24744.14
533.67	24765.21
533.84	24730.10
534.01	24269.01
534.18	24650.52
534.35	24863.51
534.52	24521.79
534.69	25109.27
534.86	24638.82
535.03	25003.94
535.20	25046.07
535.37	24872.87
535.54	25085.86
535.71	25069.48
535.88	24971.18
536.05	25156.08
536.22	25167.78
536.38	25298.85
536.55	25376.09
536.72	25177.14
536.89	25142.03
537.06	25270.76
537.23	25270.76
537.40	25076.50
537.57	25565.67
537.74	25703.76
537.91	25790.36
538.08	25619.50
538.25	25661.63
538.42	25425.24
538.59	25474.39
538.75	25331.62
538.92	25671.00
539.09	25876.96
539.26	25523.54
539.43	25570.35
539.60	25912.07
539.77	25811.43
539.94	25797.38
540.11	25979.95
540.28	25949.52
540.44	25895.69
540.61	25675.68
540.78	25837.17
540.95	25874.62
541.12	25898.03
541.29	25991.65
541.46	25926.11
541.62	26082.93
541.79	26178.89
541.96	25757.60
542.13	26019.74
542.30	26045.48
542.47	26562.74
542.63	26391.88
542.80	26677.43
542.97	26677.43
543.14	26635.30
543.31	26635.30
543.48	26600.19
543.64	26476.14
543.81	26691.47
543.98	27047.23
544.15	26930.20
544.32	27171.28
544.48	27236.81
544.65	26162.51
544.82	26602.53
544.99	26696.15
545.16	26986.38
545.32	26939.57
545.49	27358.52
545.66	27037.87
545.83	27136.17
546.00	27236.81
546.16	26881.05
546.33	26682.11
546.50	26721.90
546.67	27407.67
546.83	26998.08
547.00	27080.00
547.17	27388.95
547.34	27206.39
547.50	27115.11
547.67	27501.29
547.84	27274.26
548.00	27393.63
548.17	27868.76
548.34	27285.97
548.51	27482.57
548.67	27412.35
548.84	27730.67
549.01	27758.75
549.18	27431.08
549.34	27248.52
549.51	27775.14
549.68	27379.59
549.84	27716.62
550.01	27730.67
550.18	27573.85
550.34	28039.62
550.51	27924.93
550.68	28016.21
550.84	27243.84
551.01	28037.28
551.18	27484.91
551.34	27700.24
551.51	27601.94
551.68	27676.83
551.84	27742.37
552.01	27768.12
552.18	28439.85
552.34	28027.92
552.51	27812.59
552.68	27955.36
552.84	28067.70
553.01	28058.34
553.18	28299.42
553.34	28196.43
553.51	28072.39
553.67	28540.49
553.84	28311.12
554.01	28346.23
554.17	28283.03
554.34	28393.04
554.51	28264.31
554.67	28802.63
554.84	28311.12
555.00	28489.00
555.17	28493.68
555.33	28669.22
555.50	28203.46
555.67	28713.69
555.83	28496.02
556.00	28631.77
556.16	28858.81
556.33	28629.43
556.50	28638.80
556.66	28910.30
556.83	28811.99
556.99	29111.58
557.16	28627.09
557.32	29163.08
557.49	29062.43
557.65	28130.90
557.82	28676.24
557.98	28514.75
558.15	28554.54
558.32	28896.25
558.48	28851.78
558.65	28912.64
558.81	28837.74
558.98	28999.24
559.14	28662.20
559.31	28720.71
559.47	28924.34
559.64	29139.67
559.80	29195.84
559.97	29291.80
560.13	29104.56
560.30	29333.93
560.46	28987.53
560.63	29319.89
560.79	28968.81
560.96	29432.24
561.12	28760.50
561.29	29572.67
561.45	29200.52
561.61	29457.98
561.78	29170.10
561.94	29401.81
562.11	29544.58
562.27	29603.10
562.44	28849.44
562.60	29195.84
562.77	29024.98
562.93	29523.52
563.10	29600.76
563.26	29319.89
563.42	29677.99
563.59	29530.54
563.75	29413.51
563.92	29333.93
564.08	28978.17
564.24	29195.84
564.41	29401.81
564.57	29603.10
564.74	29200.52
564.90	29336.27
565.07	29308.19
565.23	29860.55
565.39	29731.83
565.56	29764.59
565.72	29722.46
565.88	29703.74
566.05	29294.14
566.21	29474.37
566.38	29565.65
566.54	30073.54
566.70	29724.80
566.87	30129.72
567.03	29921.41
567.19	29593.73
567.36	29813.74
567.52	29575.01
567.68	29720.12
567.85	29647.57
568.01	29783.32
568.17	29659.27
568.34	29900.34
568.50	29759.91
568.66	29710.76
568.83	29839.49
568.99	30008.01
569.15	29729.48
569.32	29872.26
569.48	29553.94
569.64	30015.03
569.81	29909.71
569.97	29535.22
570.13	29731.83
570.30	29544.58
570.46	29675.65
570.62	29802.04
570.78	29947.15
570.95	29865.24
571.11	29797.36
571.27	29919.07
571.43	29795.02
571.60	29743.53
571.76	29467.34
571.92	30022.05
572.09	30075.88
572.25	29790.34
572.41	30010.35
572.57	30279.51
572.74	30410.58
572.90	29785.66
573.06	29598.41
573.22	29589.05
573.38	29958.86
573.55	29926.09
573.71	30302.92
573.87	29907.37
574.03	29773.95
574.20	29947.15
574.36	29663.95
574.52	30031.41
574.68	29888.64
574.84	29963.54
575.01	29788.00
575.17	30071.20
575.33	30146.10
575.49	30139.08
575.65	30335.68
575.82	30216.32
575.98	30066.52
576.14	30153.12
576.30	29993.97
576.46	30253.76
576.62	29696.72
576.79	30206.95
576.95	29930.77
577.11	30408.24
577.27	30171.85
577.43	30476.12
577.59	30213.98
577.75	30267.81
577.92	30312.28
578.08	29677.99
578.24	29944.81
578.40	30115.67
578.56	30249.08
578.72	30450.37
578.88	30326.32
579.04	30359.09
579.21	30139.08
579.37	30218.66
579.53	30274.83
579.69	29972.90
579.85	30134.40
580.01	30050.14
580.17	30031.41
580.33	30471.43
580.49	30132.06
580.65	30136.74
580.82	30300.58
580.98	30485.48
581.14	30288.87
581.30	30424.62
581.46	30359.09
581.62	30225.68
581.78	30015.03
581.94	30480.80
582.10	29682.67
582.26	30494.84
582.42	30473.78
582.58	30450.37
582.74	30764.00
582.90	30410.58
583.06	30436.33
583.22	30174.19
583.38	30225.68
583.54	30436.33
583.70	30258.45
583.86	30253.76
584.02	30188.23
584.18	30817.83
584.34	30412.92
584.50	30703.15
584.66	30600.16
584.82	30033.75
584.98	30005.67
585.14	30389.52
585.30	30139.08
585.46	30279.51
585.62	29954.18
585.78	30211.64
585.94	30197.59
586.10	30513.56
586.26	30483.14
586.42	30473.78
586.58	30424.62
586.74	30377.81
586.90	30157.80
587.06	30141.42
587.22	30473.78
587.38	30103.97
587.54	30497.18
587.70	30511.22
587.86	30562.72
588.02	30391.86
588.18	30654.00
588.34	30698.47
588.49	30553.35
588.65	30375.47
588.81	30394.20
588.97	30661.02
589.13	30600.16
589.29	30356.75
589.45	30614.21
589.61	30527.61
589.77	30787.41
589.93	30827.20
590.08	30764.00
590.24	31047.21
590.40	31079.97
590.56	30593.14
590.72	30314.62
590.88	30228.02
591.04	30764.00
591.20	30644.63
591.35	30857.62
591.51	30946.56
591.67	31117.42
591.83	31124.44
591.99	30843.58
592.15	30658.68
592.31	30756.98
592.46	30820.17
592.62	30249.08
592.78	30813.15
592.94	30658.68
593.10	30450.37
593.26	30253.76
593.41	30740.60
593.57	30707.83
593.73	30773.36
593.89	31030.82
594.05	30866.98
594.20	30148.44
594.36	30473.78
594.52	30752.30
594.68	30944.22
594.84	30857.62
594.99	30974.65
595.15	30728.89
595.31	31002.74
595.47	30909.11
595.62	30916.14
595.78	30656.34
595.94	30558.03
596.10	30773.36
596.25	30778.04
596.41	30761.66
596.57	30745.28
596.73	30686.76
596.88	30881.03
597.04	31098.70
597.20	30885.71
597.36	31131.47
597.51	31239.13
597.67	30878.69
597.83	31133.81
597.99	30721.87
598.14	30815.49
598.30	30616.55
598.46	30721.87
598.61	30855.28
598.77	30747.62
598.93	31271.90
599.09	30558.03
599.24	31239.13
599.40	30984.01
599.56	31087.00
599.71	31096.36
599.87	30934.86
600.03	31049.55
600.18	30850.60
600.34	30749.96
600.50	31112.74
600.65	30958.27
600.81	31393.61
600.97	31278.92
601.12	30859.96
601.28	31026.14
601.44	31161.89
601.59	31171.25
601.75	30742.94
601.91	30803.79
602.06	30794.43
602.22	31065.93
602.37	30967.63
602.53	30962.95
602.69	31117.42
602.84	31194.66
603.00	31089.34
603.16	31276.58
603.31	30972.31
603.47	30991.03
603.62	31136.15
603.78	30941.88
603.94	30546.33
604.09	31227.43
604.25	31129.12
604.40	30916.14
604.56	30820.17
604.71	31311.69
604.87	30796.77
605.03	31145.51
605.18	31145.51
605.34	30930.18
605.49	30565.06
605.65	30984.01
605.80	30714.85
605.96	30859.96
606.12	30719.53
606.27	31023.80
606.43	30976.99
606.58	30991.03
606.74	31112.74
606.89	30904.43
607.05	31105.72
607.20	31049.55
607.36	31204.02
607.51	30979.33
607.67	30284.19
607.82	30831.88
607.98	30780.39
608.13	30593.14
608.29	30646.97
608.44	31075.29
608.60	30618.89
608.75	30747.62
608.91	30646.97
609.06	30778.04
609.22	31040.18
609.37	30635.27
609.53	30555.69
609.68	30562.72
609.84	30480.80
609.99	30710.17
610.15	30363.77
610.30	30930.18
610.46	30764.00
610.61	30590.80
610.76	30574.42
610.92	30700.81
611.07	30792.09
611.23	30857.62
611.38	30455.05
611.54	30305.26
611.69	30939.54
611.84	30354.41
612.00	30855.28
612.15	30361.43
612.31	30249.08
612.46	30511.22
612.62	30646.97
612.77	30677.40
612.92	30630.59
613.08	30583.78
613.23	30658.68
613.39	30558.03
613.54	30150.78
613.69	30354.41
613.85	30206.95
614.00	30298.23
614.15	30291.21
614.31	29970.56
614.46	30436.33
614.62	30197.59
614.77	30738.26
614.92	30569.74
615.08	30235.04
615.23	30263.13
615.38	30405.90
615.54	29752.89
615.69	30017.37
615.84	30352.07
616.00	29825.45
616.15	30274.83
616.30	30497.18
616.46	30057.16
616.61	29998.65
616.76	30101.63
616.92	30307.60
617.07	30422.28
617.22	30005.67
617.37	29722.46
617.53	30263.13
617.68	30101.63
617.83	30260.79
617.99	30265.47
618.14	30171.85
618.29	29731.83
618.45	30157.80
618.60	30319.30
618.75	30038.44
618.90	29848.85
619.06	30118.01
619.21	29738.85
619.36	30113.33
619.51	30005.67
619.67	29736.51
619.82	29380.74
619.97	29937.79
620.12	29982.26
620.28	29415.85
620.43	29673.31
620.58	29743.53
620.73	29752.89
620.89	29743.53
621.04	29734.17
621.19	29865.24
621.34	29862.90
621.49	29422.87
621.65	29682.67
621.80	29710.76
621.95	29455.64
622.10	29406.49
622.25	29504.79
622.41	29912.05
622.56	29453.30
622.71	29537.56
622.86	29647.57
623.01	29324.57
623.16	29528.20
623.32	29488.41
623.47	29628.84
623.62	29486.07
623.77	29619.48
623.92	29345.64
624.07	29373.72
624.23	29156.05
624.38	29355.00
624.53	29378.40
624.68	29465.00
624.83	29429.90
624.98	29780.98
625.13	29551.60
625.29	29457.98
625.44	29469.69
625.59	29160.73
625.74	29319.89
625.89	29039.03
626.04	28865.83
626.19	29233.29
626.34	28877.53
626.49	29020.30
626.65	29055.41
626.80	29392.45
626.95	29228.61
627.10	28992.22
627.25	29275.42
627.40	29067.11
627.55	28884.55
627.70	28781.57
627.85	28716.03
628.00	28809.65
628.15	28914.98
628.30	28765.18
628.45	28835.40
628.60	28753.48
628.76	28907.96
628.91	28919.66
629.06	28713.69
629.21	29036.69
629.36	29149.03
629.51	28709.01
629.66	28699.65
629.81	28748.80
629.96	28701.99
630.11	28823.70
630.26	28390.70
630.41	28676.24
630.56	28662.20
630.71	28709.01
630.86	28912.64
631.01	28624.75
631.16	28739.44
631.31	28395.38
631.46	28517.09
631.61	28779.23
631.76	28348.57
631.91	28868.17
632.06	28463.25
632.21	28425.81
632.36	28561.56
632.51	28254.95
632.66	28346.23
632.81	28264.31
632.96	28334.53
633.10	28503.04
633.25	28697.31
633.40	28748.80
633.55	28467.94
633.70	28177.71
633.85	27742.37
634.00	28163.67
634.15	28004.51
634.30	28088.77
634.45	28311.12
634.60	28144.94
634.75	28065.36
634.90	28240.90
635.05	28432.83
635.19	28175.37
635.34	28362.61
635.49	28023.23
635.64	28252.61
635.79	28215.16
635.94	27826.63
636.09	28105.15
636.24	27676.83
636.39	27929.61
636.53	27938.97
636.68	28264.31
636.83	27971.74
636.98	28037.28
637.13	27819.61
637.28	27906.21
637.43	27938.97
637.57	27887.48
637.72	27845.35
637.87	27859.40
638.02	27927.27
638.17	28056.00
638.32	27651.09
638.46	27468.53
638.61	27538.74
638.76	27365.54
638.91	27615.98
639.06	27740.03
639.20	27981.10
639.35	27882.80
639.50	27449.80
639.65	27852.38
639.80	27470.87
639.94	27718.96
640.09	27548.11
640.24	27826.63
640.39	27604.28
640.54	27138.51
640.68	27477.89
640.83	27342.14
640.98	27274.26
641.13	26916.16
641.27	27473.21
641.42	27538.74
641.57	27356.18
641.72	27363.20
641.86	27096.38
642.01	27346.82
642.16	27028.51
642.31	27227.45
642.45	27253.20
642.60	26848.29
642.75	27124.47
642.90	27030.85
643.04	27033.19
643.19	27091.70
643.34	27402.99
643.48	27274.26
643.63	27063.61
643.78	27061.27
643.93	27236.81
644.07	27433.42
644.22	27037.87
644.37	27145.53
644.51	26918.50
644.66	27276.60
644.81	26464.44
644.95	26682.11
645.10	27049.57
645.25	26761.69
645.39	26991.06
645.54	27152.55
645.69	26927.86
645.83	27262.56
645.98	26892.76
646.13	27028.51
646.27	27208.73
646.42	26977.01
646.57	26932.54
646.71	26745.30
646.86	26962.97
647.00	26647.00
647.15	26597.85
647.30	26462.10
647.44	26560.40
647.59	26558.06
647.74	26401.24
647.88	26122.72
648.03	26735.94
648.17	26864.67
648.32	26885.73
648.47	27070.64
648.61	26707.85
648.76	26480.82
648.90	26616.57
649.05	26855.31
649.20	26398.90
649.34	26560.40
649.49	26469.12
649.63	26174.21
649.78	26235.06
649.92	26237.41
650.07	26684.45
650.21	26225.70
650.36	26462.10
650.51	26281.88
650.65	26661.04
650.80	26417.63
650.94	26260.81
651.09	26103.99
651.23	26068.89
651.38	26139.10
651.52	26293.58
651.67	26038.46
651.81	26167.19
651.96	26005.69
652.10	26305.28
652.25	26216.34
652.39	26363.79
652.54	26373.16
652.68	26326.35
652.83	26600.19
652.97	26471.46
653.12	26347.41
653.26	26316.98
653.41	26078.25
653.55	25937.82
653.70	25626.53
653.84	25930.80
653.99	26251.45
654.13	26078.25
654.27	25696.74
654.42	25769.30
654.56	25914.41
654.71	25923.77
654.85	25750.57
655.00	26071.23
655.14	26197.62
655.29	25996.33
655.43	25392.47
655.57	26359.11
655.72	25656.95
655.86	25881.64
656.01	25692.06
656.15	25659.29
656.30	25888.67
656.44	25542.27
656.58	25757.60
656.73	25659.29
656.87	25708.44
657.01	25135.01
657.16	25736.53
657.30	26136.76
657.45	25596.10
657.59	25333.96
657.73	25343.32
657.88	25291.83
658.02	25497.80
658.16	25535.24
658.31	25060.12
658.45	25448.64
658.60	25172.46
658.74	25277.79
658.88	25343.32
659.03	24999.26
659.17	25556.31
659.31	25551.63
659.46	25233.32
659.60	25163.10
659.74	25371.41
659.89	25301.19
660.03	25165.44
660.17	25158.42
660.32	24929.05
660.46	25146.72
660.60	24718.40
660.74	24980.54
660.89	25020.33
661.03	24690.31
661.17	24737.12
661.32	25095.22
661.46	24987.56
661.60	25132.67
661.74	25022.67
661.89	24741.80
662.03	24774.57
662.17	24898.62
662.31	24540.52
662.46	24620.10
662.60	24694.99
662.74	24580.31
662.88	24673.93
663.03	24346.25
663.17	24355.61
663.31	24325.19
663.45	24456.26
663.60	24056.03
663.74	24205.82
663.88	24540.52
664.02	24191.78
664.17	24470.30
664.31	24353.27
664.45	24058.37
664.59	23983.47
664.73	24383.70
664.88	24479.66
665.02	23859.42
665.16	23887.51
665.30	23740.05
665.44	23857.08
665.59	23726.01
665.73	23594.94
665.87	23190.03
666.01	23798.57
666.15	23714.31
666.29	23885.17
666.44	23929.64
666.58	23391.31
666.72	23779.84
666.86	23995.17
667.00	23740.05
667.14	23695.58
667.28	23475.57
667.43	23388.97
667.57	23620.69
667.71	23414.72
667.85	23358.55
667.99	23264.92
668.13	23044.91
668.27	23484.94
668.41	23468.55
668.56	23138.54
668.70	23171.30
668.84	23243.86
668.98	23159.60
669.12	23271.95
669.26	22815.54
669.40	23009.81
669.54	22909.16
669.68	23227.48
669.82	22953.63
669.96	22768.73
670.10	22831.93
670.25	22607.23
670.39	22618.94
670.53	22628.30
670.67	22419.99
670.81	22876.40
670.95	22761.71
671.09	22408.29
671.23	22525.32
671.37	22665.75
671.51	22572.13
671.65	22436.38
671.79	22527.66
671.93	22302.96
672.07	22305.31
672.21	22080.61
672.35	22064.23
672.49	21872.31
672.63	21837.20
672.77	22155.51
672.91	21979.97
673.05	22001.04
673.19	21827.84
673.33	21935.50
673.47	21809.11
673.61	22080.61
673.75	22146.15
673.89	21434.63
674.03	21544.63
674.17	21886.35
674.31	22073.59
674.45	21872.31
674.59	21659.32
674.73	21923.80
674.87	21380.79
675.01	21312.92
675.15	21371.43
675.29	20971.20
675.43	21055.46
675.56	21228.66
675.70	21408.88
675.84	21378.45
675.98	20599.05
676.12	21420.58
676.26	21322.28
676.40	20858.85
676.54	21027.37
676.68	21083.55
676.82	20638.84
676.96	21160.78
677.10	20704.38
677.23	20753.53
677.37	20341.60
677.51	20650.55
677.65	20599.05
677.79	20475.01
677.93	20299.47
678.07	20294.79
678.21	20065.41
678.34	20212.87
678.48	20114.56
678.62	20030.30
678.76	20240.95
678.90	19840.72
679.04	19817.32
679.18	20072.43
679.31	19639.44
679.45	19623.05
679.59	19534.11
679.73	19463.90
679.87	19545.81
680.00	19414.74
680.14	19527.09
680.28	19332.82
680.42	19192.39
680.56	19206.44
680.70	19204.10
680.83	19304.74
680.97	19435.81
681.11	19108.13
681.25	18698.54
681.39	19161.97
681.52	19073.03
681.66	18941.96
681.80	19023.87
681.94	18759.39
682.07	18991.11
682.21	18300.65
682.35	18738.33
682.49	18314.69
682.62	18499.59
682.76	18448.10
682.90	18136.81
683.04	18363.84
683.17	18424.70
683.31	18551.09
683.45	18223.41
683.59	18207.03
683.72	18307.67
683.86	18218.73
684.00	17841.90
684.13	17720.20
684.27	17816.16
684.41	17635.94
684.55	17614.87
684.68	17565.72
684.82	17451.03
684.96	17305.92
685.09	17451.03
685.23	17453.37
685.37	17174.85
685.50	17511.89
685.64	17469.76
685.78	17415.93
685.91	17472.10
686.05	17525.93
686.19	17261.45
686.32	17214.64
686.46	16975.91
686.60	16697.38
686.73	16739.51
686.87	16542.91
687.01	16751.21
687.14	16697.38
687.28	16507.80
687.42	16477.37
687.55	16503.12
687.69	16395.45
687.82	16336.94
687.96	16437.58
688.10	16542.91
688.23	16283.11
688.37	16416.52
688.50	16339.28
688.64	16245.66
688.78	16100.55
688.91	15978.84
689.05	16042.03
689.18	15927.35
689.32	15716.70
689.46	15648.82
689.59	15585.63
689.73	15704.99
689.86	15693.29
690.00	15407.75
690.13	15496.69
690.27	15538.82
690.41	15372.64
690.54	15283.70
690.68	15487.32
690.81	15288.38
690.95	15428.81
691.08	15161.99
691.22	15016.88
691.35	15051.99
691.49	14979.43
691.62	15042.62
691.76	14752.40
691.89	14775.80
692.03	14794.53
692.16	14920.92
692.30	14602.60
692.43	14651.75
692.57	14494.94
692.70	14314.72
692.84	14485.58
692.97	14441.11
693.11	14340.46
693.24	14513.66
693.38	14375.57
693.51	14141.52
693.65	14111.09
693.78	14052.58
693.92	14256.20
694.05	13996.40
694.19	14169.60
694.32	13661.71
694.45	13912.14
694.59	13481.49
694.72	13554.04
694.86	13570.43
694.99	13542.34
695.13	13544.68
695.26	13437.02
695.39	13383.18
695.53	13472.12
695.66	13544.68
695.80	13460.42
695.93	13359.78
696.07	13441.70
696.20	13284.88
696.33	12975.93
696.47	13011.04
696.60	12889.33
696.73	12985.29
696.87	12702.09
697.00	12924.44
697.14	12519.53
697.27	12575.70
697.40	12498.46
697.54	12489.10
697.67	12369.73
697.80	12432.93
697.94	12393.14
698.07	12241.00
698.21	12131.00
698.34	12229.30
698.47	12182.49
698.61	12428.24
698.74	12411.86
698.87	12205.89
699.01	12018.65
699.14	12088.87
699.27	11892.26
699.40	11772.89
699.54	11943.75
699.67	11735.45
699.80	11749.49
699.94	11777.58
700.07	11822.05
700.20	11592.67
700.34	11506.07
700.47	11562.25
700.60	11522.46
700.73	11737.79
700.87	11215.85
701.00	11363.30
701.13	11229.89
701.26	11314.15
701.40	11480.33
701.53	11290.74
701.66	11314.15
701.79	11147.97
701.93	11115.20
702.06	11002.86
702.19	10883.49
702.32	10925.62
702.46	10745.40
702.59	10544.11
702.72	10544.11
702.85	10572.20
702.99	10607.31
703.12	10492.62
703.25	10569.86
703.38	10396.66
703.51	10647.10
703.65	10541.77
703.78	10434.11
703.91	10141.54
704.04	10450.49
704.17	10108.77
704.31	10298.36
704.44	10001.11
704.57	10162.61
704.70	10099.41
704.83	10052.60
704.96	9870.04
705.10	9818.55
705.23	9881.74
>>>>>End Processed Spectral Data<<<<<
