SpectraSuite Data File
++++++++++++++++++++++++++++++++++++
Date: Fri Oct 18 13:58:37 GMT-05:00 2013
User: bianchi
Dark Spectrum Present: No
Reference Spectrum Present: No
Number of Sampled Component Spectra: 1
Spectrometers: USB2+H05261
Integration Time (usec): 50000 (USB2+H05261)
Spectra Averaged: 1 (USB2+H05261)
Boxcar Smoothing: 0 (USB2+H05261)
Correct for Electrical Dark: No (USB2+H05261)
Strobe/Lamp Enabled: No (USB2+H05261)
Correct for Detector Non-linearity: No (USB2+H05261)
Correct for Stray Light: No (USB2+H05261)
Number of Pixels in Processed Spectrum: 2048
>>>>>Begin Processed Spectral Data<<<<<
365.73	0.00
365.92	0.00
366.12	0.00
366.32	0.00
366.52	0.00
366.72	0.00
366.91	0.00
367.11	0.00
367.31	0.00
367.51	0.00
367.70	0.00
367.90	0.00
368.10	0.00
368.30	0.00
368.49	0.00
368.69	0.00
368.89	0.00
369.09	0.00
369.28	0.00
369.48	0.00
369.68	0.00
369.87	0.00
370.07	0.00
370.27	0.00
370.47	0.00
370.66	119.37
370.86	23.41
371.06	56.17
371.25	147.45
371.45	110.01
371.65	210.65
371.84	170.86
372.04	140.43
372.24	220.01
372.44	220.01
372.63	245.76
372.83	194.26
373.03	252.78
373.22	138.09
373.42	189.58
373.62	196.60
373.81	133.41
374.01	231.71
374.21	269.16
374.40	229.37
374.60	238.73
374.79	255.12
374.99	285.55
375.19	252.78
375.38	189.58
375.58	215.33
375.78	327.68
375.97	285.55
376.17	220.01
376.37	250.44
376.56	320.65
376.76	227.03
376.95	306.61
377.15	269.16
377.35	311.29
377.54	236.39
377.74	304.27
377.93	280.86
378.13	341.72
378.33	341.72
378.52	273.84
378.72	344.06
378.91	294.91
379.11	301.93
379.31	360.44
379.50	283.20
379.70	330.02
379.89	315.97
380.09	222.35
380.28	264.48
380.48	259.80
380.68	280.86
380.87	320.65
381.07	297.25
381.26	369.80
381.46	287.89
381.65	367.46
381.85	337.04
382.04	346.40
382.24	322.99
382.43	330.02
382.63	341.72
382.83	348.74
383.02	360.44
383.22	292.57
383.41	402.57
383.61	374.49
383.80	365.12
384.00	379.17
384.19	325.33
384.39	369.80
384.58	325.33
384.78	379.17
384.97	383.85
385.17	369.80
385.36	353.42
385.56	416.62
385.75	463.43
385.95	381.51
386.14	411.93
386.34	449.38
386.53	386.19
386.72	374.49
386.92	402.57
387.11	402.57
387.31	381.51
387.50	428.32
387.70	435.34
387.89	440.02
388.09	411.93
388.28	463.43
388.48	479.81
388.67	430.66
388.86	390.87
389.06	503.22
389.25	402.57
389.45	521.94
389.64	381.51
389.84	493.85
390.03	456.40
390.22	451.72
390.42	444.70
390.61	503.22
390.81	500.87
391.00	463.43
391.19	484.49
391.39	479.81
391.58	505.56
391.78	547.69
391.97	533.64
392.16	514.92
392.36	557.05
392.55	514.92
392.75	545.34
392.94	526.62
393.13	617.90
393.33	484.49
393.52	601.52
393.71	573.43
393.91	566.41
394.10	596.84
394.29	634.29
394.49	594.50
394.68	660.03
394.88	587.47
395.07	582.79
395.26	580.45
395.46	547.69
395.65	638.97
395.84	638.97
396.04	599.18
396.23	713.86
396.42	634.29
396.62	664.71
396.81	624.92
397.00	601.52
397.19	791.10
397.39	650.67
397.58	641.31
397.77	669.39
397.97	718.54
398.16	669.39
398.35	727.91
398.55	697.48
398.74	713.86
398.93	774.72
399.12	798.12
399.32	704.50
399.51	709.18
399.70	732.59
399.90	706.84
400.09	702.16
400.28	873.02
400.47	809.83
400.67	800.46
400.86	784.08
401.05	718.54
401.24	758.33
401.44	866.00
401.63	851.96
401.82	786.42
402.01	779.40
402.21	835.57
402.40	812.17
402.59	887.06
402.78	856.64
402.97	809.83
403.17	882.38
403.36	833.23
403.55	875.36
403.74	821.53
403.93	945.58
404.13	844.93
404.32	858.98
404.51	861.32
404.70	1025.15
404.89	819.19
405.09	933.87
405.28	950.26
405.47	1015.79
405.66	992.39
405.85	915.15
406.05	992.39
406.24	947.92
406.43	1025.15
406.62	987.71
406.81	1043.88
407.00	994.73
407.20	1034.52
407.39	1029.84
407.58	1097.71
407.77	1029.84
407.96	1060.26
408.15	1006.43
408.34	1128.14
408.54	1214.74
408.73	1062.60
408.92	1203.04
409.11	1179.63
409.30	1095.37
409.49	1184.31
409.68	1160.91
409.87	1231.12
410.07	1186.65
410.26	1116.44
410.45	1198.35
410.64	1135.16
410.83	1186.65
411.02	1329.42
411.21	1235.80
411.40	1177.29
411.59	1261.55
411.78	1240.48
411.98	1198.35
412.17	1348.15
412.36	1179.63
412.55	1273.25
412.74	1437.09
412.93	1327.08
413.12	1394.96
413.31	1418.36
413.50	1362.19
413.69	1387.94
413.88	1467.52
414.07	1385.60
414.26	1418.36
414.45	1465.18
414.64	1476.88
414.83	1551.78
415.02	1528.37
415.22	1451.13
415.41	1537.73
415.60	1558.80
415.79	1540.07
415.98	1561.14
416.17	1664.12
416.36	1593.90
416.55	1647.74
416.74	1600.93
416.93	1720.29
417.12	1696.89
417.31	1724.97
417.50	1661.78
417.69	1764.76
417.88	1767.10
418.07	1769.44
418.26	1776.47
418.45	1687.53
418.64	1809.23
418.83	1778.81
419.02	1856.04
419.21	1877.11
419.39	1837.32
419.58	1872.43
419.77	1830.30
419.96	1877.11
420.15	1874.77
420.34	1736.68
420.53	1879.45
420.72	1970.73
420.91	1804.55
421.10	2024.56
421.29	1947.33
421.48	1799.87
421.67	1940.30
421.86	1898.17
422.05	1963.71
422.24	1959.03
422.43	1996.48
422.61	2017.54
422.80	2003.50
422.99	1940.30
423.18	1952.01
423.37	1968.39
423.56	1989.46
423.75	2071.37
423.94	2029.24
424.13	1949.67
424.32	1905.20
424.50	2040.95
424.69	1895.83
424.88	2146.27
425.07	2005.84
425.26	1952.01
425.45	2059.67
425.64	2050.31
425.83	2026.90
426.01	2097.12
426.20	2059.67
426.39	2031.58
426.58	2064.35
426.77	2153.29
426.96	2078.40
427.15	2115.84
427.33	2050.31
427.52	2073.71
427.71	2172.02
427.90	2136.91
428.09	2237.55
428.28	2207.13
428.46	2120.53
428.65	2176.70
428.84	2167.34
429.03	2359.26
429.22	2019.88
429.40	2267.98
429.59	2310.11
429.78	2125.21
429.97	2108.82
430.16	2181.38
430.34	2342.88
430.53	2289.04
430.72	2363.94
430.91	2279.68
431.10	2270.32
431.28	2314.79
431.47	2441.18
431.66	2513.74
431.85	2345.22
432.03	2443.52
432.22	2476.29
432.41	2420.11
432.60	2480.97
432.79	2441.18
432.97	2541.82
433.16	2567.57
433.35	2469.27
433.54	2495.01
433.72	2480.97
433.91	2506.71
434.10	2485.65
434.28	2597.99
434.47	2576.93
434.66	2490.33
434.85	2511.39
435.03	2595.65
435.22	2562.89
435.41	2715.02
435.59	2593.31
435.78	2717.36
435.97	2614.38
436.16	2712.68
436.34	2567.57
436.53	2733.75
436.72	2801.62
436.90	2579.27
437.09	2691.62
437.28	2757.15
437.46	2759.49
437.65	2799.28
437.84	2862.48
438.02	2717.36
438.21	2724.38
438.40	2752.47
438.58	2881.20
438.77	2913.97
438.96	2759.49
439.14	2885.88
439.33	2860.13
439.52	2949.08
439.70	2960.78
439.89	3014.61
440.08	3218.24
440.26	3187.81
440.45	3019.29
440.63	3122.27
440.82	3122.27
441.01	3124.62
441.19	3110.57
441.38	3211.22
441.57	3243.98
441.75	3035.67
441.94	3206.53
442.12	3220.58
442.31	3246.32
442.50	3384.41
442.68	3342.28
442.87	3309.52
443.05	3304.84
443.24	3260.37
443.43	3454.63
443.61	3356.33
443.80	3400.80
443.98	3339.94
444.17	3311.86
444.35	3372.71
444.54	3515.48
444.73	3433.57
444.91	3597.40
445.10	3403.14
445.28	3405.48
445.47	3396.12
445.65	3447.61
445.84	3475.70
446.02	3665.28
446.21	3435.91
446.39	3421.86
446.58	3412.50
446.77	3581.02
446.95	3361.01
447.14	3552.93
447.32	3524.85
447.51	3520.17
447.69	3611.45
447.88	3578.68
448.06	3449.95
448.25	3513.14
448.43	3503.78
448.62	3485.06
448.80	3627.83
448.99	3609.11
449.17	3777.62
449.36	3585.70
449.54	3646.55
449.73	3693.37
449.91	3681.66
450.10	3817.41
450.28	3749.54
450.46	3653.58
450.65	3679.32
450.83	3826.78
451.02	3716.77
451.20	3770.60
451.39	3840.82
451.57	3796.35
451.76	3777.62
451.94	3798.69
452.13	3901.67
452.31	3904.01
452.49	3789.33
452.68	3899.33
452.86	3857.20
453.05	3948.48
453.23	3892.31
453.42	3831.46
453.60	3927.42
453.78	3990.61
453.97	3913.38
454.15	4077.21
454.34	3969.55
454.52	3964.87
454.70	3960.19
454.89	4072.53
455.07	4138.07
455.26	3960.19
455.44	4191.90
455.62	4168.49
455.81	4119.34
455.99	4194.24
456.17	4028.06
456.36	4004.66
456.54	4339.35
456.73	4187.22
456.91	4421.27
457.09	4283.18
457.28	4313.61
457.46	4318.29
457.64	4421.27
457.83	4320.63
458.01	4252.75
458.19	4367.44
458.38	4269.14
458.56	4374.46
458.74	4362.76
458.93	4386.16
459.11	4355.74
459.29	4355.74
459.48	4636.60
459.66	4526.60
459.84	4603.83
460.03	4650.64
460.21	4634.26
460.39	4437.66
460.57	4526.60
460.76	4444.68
460.94	4535.96
461.12	4472.76
461.31	4678.73
461.49	4601.49
461.67	4362.76
461.85	4643.62
462.04	4580.43
462.22	4704.48
462.40	4870.65
462.59	4802.78
462.77	4702.14
462.95	4826.18
463.13	4910.44
463.32	4858.95
463.50	4851.93
463.68	4978.32
463.86	4865.97
464.05	4730.22
464.23	4873.00
464.41	4961.94
464.59	4889.38
464.78	4924.49
464.96	4919.81
465.14	4966.62
465.32	4990.02
465.50	5020.45
465.69	5011.09
465.87	4975.98
466.05	5071.94
466.23	5083.64
466.41	5039.17
466.60	5184.29
466.78	5057.90
466.96	4961.94
467.14	4992.36
467.32	4966.62
467.51	5116.41
467.69	4919.81
467.87	5100.03
468.05	5172.58
468.23	5135.14
468.41	5107.05
468.60	5233.44
468.78	5341.10
468.96	5160.88
469.14	5123.43
469.32	5242.80
469.50	5291.95
469.69	5282.59
469.87	5469.83
470.05	5451.11
470.23	5467.49
470.41	5355.15
470.59	5551.75
470.77	5458.13
470.95	5446.43
471.14	5652.39
471.32	5427.70
471.50	5694.52
471.68	5568.13
471.86	5638.35
472.04	5657.07
472.22	5731.97
472.40	5790.49
472.58	5771.76
472.77	5696.86
472.95	5682.82
473.13	6064.33
473.31	5797.51
473.49	5846.66
473.67	5832.62
473.85	5783.46
474.03	5970.71
474.21	6054.97
474.39	6057.31
474.57	5923.90
474.75	6092.41
474.93	6249.23
475.12	6157.95
475.30	6225.82
475.48	6221.14
475.66	6235.19
475.84	6216.46
476.02	6310.08
476.20	6424.77
476.38	6492.65
476.56	6551.16
476.74	6445.84
476.92	6649.46
477.10	6621.38
477.28	6864.79
477.46	6623.72
477.64	6590.95
477.82	6750.10
478.00	6944.37
478.18	6853.09
478.36	7005.22
478.54	6970.12
478.72	7101.19
478.90	7274.38
479.08	7372.69
479.26	7335.24
479.44	7274.38
479.62	7351.62
479.80	7456.95
479.98	7510.78
480.16	7653.55
480.34	7538.87
480.52	7723.77
480.70	7618.44
480.88	7562.27
481.06	7721.43
481.24	7721.43
481.41	7845.48
481.59	7999.95
481.77	8126.34
481.95	8170.81
482.13	8102.93
482.31	8121.66
482.49	8294.86
482.67	8374.44
482.85	8287.84
483.03	8561.68
483.21	8503.17
483.39	8631.90
483.57	8510.19
483.74	8727.86
483.92	8561.68
484.10	8678.71
484.28	9004.04
484.46	9055.53
484.64	9137.45
484.82	9114.05
485.00	9235.75
485.18	9430.02
485.35	9390.23
485.53	9446.40
485.71	9432.36
485.89	9781.10
486.07	9907.49
486.25	9720.24
486.43	9755.35
486.61	9863.02
486.78	10296.02
486.96	9851.31
487.14	10111.11
487.32	10108.77
487.50	10146.22
487.68	10284.31
487.85	10511.35
488.03	10569.86
488.21	10658.80
488.39	10611.99
488.57	10766.46
488.75	10677.52
488.92	10904.56
489.10	10815.62
489.28	11131.59
489.46	11117.54
489.64	10986.47
489.81	11248.61
489.99	11197.12
490.17	11410.11
490.35	11644.17
490.53	11433.52
490.70	11838.43
490.88	11653.53
491.06	11866.52
491.24	11723.74
491.41	11887.58
491.59	11880.56
491.77	12093.55
491.95	12170.79
492.13	12241.00
492.30	12219.94
492.48	12353.35
492.66	12381.43
492.84	12353.35
493.01	12809.75
493.19	12622.51
493.37	12769.96
493.54	12713.79
493.72	12753.58
493.90	12924.44
494.08	12971.25
494.25	13284.88
494.43	13294.24
494.61	13509.57
494.79	13366.80
494.96	13387.86
495.14	13334.03
495.32	13451.06
495.49	13902.78
495.67	13570.43
495.85	13902.78
496.02	13912.14
496.20	13781.07
496.38	14118.11
496.55	13895.76
496.73	14398.98
496.91	14066.62
497.09	14314.72
497.26	14523.02
497.44	14359.19
497.62	14520.68
497.79	14684.52
497.97	14642.39
498.14	14476.21
498.32	15082.41
498.50	14696.22
498.67	14920.92
498.85	15000.49
499.03	15346.89
499.20	15140.93
499.38	15126.88
499.56	14949.00
499.73	15208.80
499.91	15262.63
500.08	15655.84
500.26	15367.96
500.44	15398.38
500.61	15454.56
500.79	15316.47
500.97	15571.58
501.14	16189.49
501.32	15957.77
501.49	15908.62
501.67	15985.86
501.84	15864.15
502.02	16297.15
502.20	16376.73
502.37	16280.77
502.55	16430.56
502.72	16266.72
502.90	16231.62
503.07	16107.57
503.25	16315.87
503.43	16435.24
503.60	16578.01
503.78	16620.14
503.95	16582.70
504.13	16699.72
504.30	16678.66
504.48	16629.51
504.65	16957.18
504.83	16814.41
505.01	17053.14
505.18	17060.16
505.36	16908.03
505.53	16753.55
505.71	17106.98
505.88	17233.36
506.06	17177.19
506.23	17249.75
506.41	17362.09
506.58	17233.36
506.76	17598.49
506.93	17476.78
507.11	17575.08
507.28	17589.13
507.46	17439.33
507.63	17947.23
507.81	17947.23
507.98	17919.14
508.16	17572.74
508.33	17816.16
508.50	17951.91
508.68	17841.90
508.85	18153.20
509.03	18223.41
509.20	18132.13
509.38	18197.67
509.55	18623.64
509.73	18434.06
509.90	18693.86
510.08	18375.55
510.25	18466.83
510.42	18618.96
510.60	18607.26
510.77	18934.93
510.95	18829.61
511.12	18520.66
511.30	18871.74
511.47	19037.92
511.64	19054.30
511.82	19428.79
511.99	18860.04
512.17	19164.31
512.34	18829.61
512.51	19222.82
512.69	19374.95
512.86	19463.90
513.04	19627.73
513.21	19328.14
513.38	19508.37
513.56	19723.69
513.73	19468.58
513.90	19838.38
514.08	19293.04
514.25	19906.26
514.43	19836.04
514.60	19651.14
514.77	19840.72
514.95	19892.21
515.12	19887.53
515.29	19793.91
515.47	20163.72
515.64	19932.00
515.81	20294.79
515.99	20407.13
516.16	20238.61
516.33	20559.27
516.51	20428.20
516.68	20086.48
516.85	20367.34
517.03	20575.65
517.20	20432.88
517.37	20915.03
517.54	20533.52
517.72	20514.80
517.89	20835.45
518.06	20716.08
518.24	20435.22
518.41	20561.61
518.58	20975.88
518.75	20882.26
518.93	21053.12
519.10	20854.17
519.27	21020.35
519.45	21193.55
519.62	21062.48
519.79	21191.21
519.96	21128.02
520.14	21525.91
520.31	21249.72
520.48	21600.80
520.65	21298.88
520.83	21546.97
521.00	21415.90
521.17	21495.48
521.34	21668.68
521.52	21605.49
521.69	21689.74
521.86	21771.66
522.03	21720.17
522.20	21989.33
522.38	21942.52
522.55	21736.56
522.72	21909.75
522.89	21764.64
523.07	22314.67
523.24	22115.72
523.41	22295.94
523.58	21898.05
523.75	22342.75
523.92	22033.80
524.10	22410.63
524.27	22073.59
524.44	22333.39
524.61	22801.50
524.78	22485.53
524.96	22834.27
525.13	22464.46
525.30	22649.36
525.47	22539.36
525.64	22696.17
525.81	22817.88
525.98	23000.44
526.16	22920.87
526.33	23035.55
526.50	23161.94
526.67	22768.73
526.84	22998.10
527.01	23037.89
527.18	22843.63
527.36	23019.17
527.53	23262.58
527.70	23136.20
527.87	23419.40
528.04	23255.56
528.21	23421.74
528.38	23204.07
528.55	23384.29
528.72	23295.35
528.89	23620.69
529.07	23475.57
529.24	23630.05
529.41	23370.25
529.58	23484.94
529.75	23597.28
529.92	23199.39
530.09	23494.30
530.26	23718.99
530.43	23922.62
530.60	23370.25
530.77	23740.05
530.94	23915.59
531.11	23864.10
531.28	23676.86
531.46	24032.62
531.63	23976.45
531.80	24037.30
531.97	24442.21
532.14	24159.01
532.31	24194.12
532.48	24112.20
532.65	24126.24
532.82	24077.09
532.99	24194.12
533.16	23992.83
533.33	24694.99
533.50	24718.40
533.67	24767.55
533.84	24425.83
534.01	24350.93
534.18	24243.27
534.35	24774.57
534.52	24341.57
534.69	24833.08
534.86	24854.15
535.03	24449.24
535.20	25163.10
535.37	25090.54
535.54	24858.83
535.71	24790.95
535.88	24549.88
536.05	25308.21
536.22	25092.88
536.38	25268.42
536.55	25319.92
536.72	25048.41
536.89	25418.22
537.06	24989.90
537.23	25223.95
537.40	25085.86
537.57	25062.46
537.74	25413.54
537.91	25303.53
538.08	25371.41
538.25	25413.54
538.42	25612.48
538.59	25837.17
538.75	25163.10
538.92	25310.55
539.09	25565.67
539.26	25165.44
539.43	25717.81
539.60	25769.30
539.77	25462.69
539.94	25825.47
540.11	25441.62
540.28	25752.91
540.44	25886.32
540.61	25638.23
540.78	25589.08
540.95	26178.89
541.12	25977.61
541.29	25855.90
541.46	25678.02
541.62	26134.42
541.79	25912.07
541.96	25853.56
542.13	25736.53
542.30	25902.71
542.47	26319.32
542.63	26389.54
542.80	26462.10
542.97	26394.22
543.14	26309.96
543.31	26520.61
543.48	26314.64
543.64	26487.84
543.81	26326.35
543.98	26539.33
544.15	26623.59
544.32	26904.46
544.48	26693.81
544.65	26789.77
544.82	26593.17
544.99	26398.90
545.16	26967.65
545.32	26717.22
545.49	27080.00
545.66	27065.96
545.83	26747.64
546.00	27145.53
546.16	26766.37
546.33	26639.98
546.50	26279.54
546.67	27194.68
546.83	26604.87
547.00	27136.17
547.17	26995.74
547.34	27108.08
547.50	26939.57
547.67	27154.90
547.84	26829.56
548.00	27386.61
548.17	27522.36
548.34	27264.90
548.51	27154.90
548.67	27365.54
548.84	27498.95
549.01	27461.51
549.18	27480.23
549.34	27154.90
549.51	27573.85
549.68	27468.53
549.84	27484.91
550.01	27428.74
550.18	26939.57
550.34	27665.13
550.51	27697.90
550.68	27604.28
550.84	27688.54
551.01	27835.99
551.18	27669.81
551.34	27534.06
551.51	27702.58
551.68	27342.14
551.84	27803.22
552.01	27538.74
552.18	27791.52
552.34	27660.45
552.51	28189.41
552.68	27906.21
552.84	27697.90
553.01	28093.45
553.18	27784.50
553.34	27955.36
553.51	28004.51
553.67	28250.27
553.84	27962.38
554.01	28304.10
554.17	28322.82
554.34	28116.86
554.51	28147.28
554.67	27988.13
554.84	28002.17
555.00	28245.58
555.17	28402.40
555.33	28481.98
555.50	28063.02
555.67	28610.71
555.83	28418.78
556.00	28093.45
556.16	28503.04
556.33	28437.51
556.50	28561.56
556.66	28432.83
556.83	28390.70
556.99	28687.95
557.16	28950.09
557.32	28634.11
557.49	28594.32
557.65	28505.38
557.82	28463.25
557.98	28582.62
558.15	28709.01
558.32	28943.06
558.48	28622.41
558.65	29046.05
558.81	28900.94
558.98	28748.80
559.14	29076.48
559.31	28503.04
559.47	28687.95
559.64	29036.69
559.80	28905.62
559.97	28491.34
560.13	28793.27
560.30	29216.91
560.46	29125.63
560.63	28659.86
560.79	28690.29
560.96	29338.62
561.12	28973.49
561.29	28793.27
561.45	28978.17
561.61	29060.09
561.78	29085.84
561.94	29132.65
562.11	28914.98
562.27	28985.19
562.44	28947.75
562.60	28821.36
562.77	29170.10
562.93	28957.11
563.10	29235.63
563.26	29401.81
563.42	29450.96
563.59	29172.44
563.75	28987.53
563.92	28966.47
564.08	29177.12
564.24	28952.43
564.41	28676.24
564.57	29244.99
564.74	29242.65
564.90	29633.52
565.07	29385.43
565.23	29357.34
565.39	29020.30
565.56	29212.23
565.72	29151.37
565.88	29214.57
566.05	28882.21
566.21	29542.24
566.38	29165.42
566.54	29296.49
566.70	29301.17
566.87	29869.92
567.03	29287.12
567.19	29895.66
567.36	29448.62
567.52	29591.39
567.68	29677.99
567.85	29308.19
568.01	29495.43
568.17	29280.10
568.34	29450.96
568.50	29198.18
568.66	29596.07
568.83	29570.33
568.99	29453.30
569.15	29626.50
569.32	29710.76
569.48	29839.49
569.64	29661.61
569.81	29949.50
569.97	29525.86
570.13	29495.43
570.30	29244.99
570.46	29914.39
570.62	29549.26
570.78	29357.34
570.95	29493.09
571.11	29511.81
571.27	29551.60
571.43	29523.52
571.60	29687.36
571.76	29778.64
571.92	29930.77
572.09	29759.91
572.25	29909.71
572.41	29523.52
572.57	29411.17
572.74	29905.02
572.90	29731.83
573.06	29483.73
573.22	29638.20
573.38	29921.41
573.55	29546.92
573.71	30017.37
573.87	30272.49
574.03	29865.24
574.20	29717.78
574.36	29748.21
574.52	29738.85
574.68	29383.09
574.84	29420.53
575.01	30036.09
575.17	29881.62
575.33	29853.53
575.49	29682.67
575.65	30071.20
575.82	30068.86
575.98	29500.11
576.14	30015.03
576.30	29579.69
576.46	30103.97
576.62	29846.51
576.79	30061.84
576.95	29647.57
577.11	29769.27
577.27	29462.66
577.43	29881.62
577.59	29914.39
577.75	30031.41
577.92	29881.62
578.08	29949.50
578.24	29853.53
578.40	29837.15
578.56	29905.02
578.72	29993.97
578.88	30185.89
579.04	30258.45
579.21	29869.92
579.37	30068.86
579.53	29809.06
579.69	29771.61
579.85	29886.30
580.01	29692.04
580.17	29752.89
580.33	29837.15
580.49	29797.36
580.65	30040.78
580.82	30122.69
580.98	30115.67
581.14	29876.94
581.30	30340.36
581.46	30253.76
581.62	29834.81
581.78	29923.75
581.94	30157.80
582.10	29832.47
582.26	29722.46
582.42	29909.71
582.58	30342.70
582.74	30075.88
582.90	29912.05
583.06	30157.80
583.22	30029.07
583.38	29729.48
583.54	30155.46
583.70	30038.44
583.86	30710.17
584.02	29956.52
584.18	30061.84
584.34	30272.49
584.50	30291.21
584.66	30022.05
584.82	29813.74
584.98	30504.20
585.14	29909.71
585.30	29762.25
585.46	29752.89
585.62	30127.38
585.78	30064.18
585.94	29949.50
586.10	30052.48
586.26	29862.90
586.42	30256.11
586.58	30064.18
586.74	30302.92
586.90	29802.04
587.06	30012.69
587.22	30192.91
587.38	29916.73
587.54	30038.44
587.70	30036.09
587.86	30068.86
588.02	30338.02
588.18	30469.09
588.34	29907.37
588.49	30118.01
588.65	30199.93
588.81	30061.84
588.97	30171.85
589.13	30235.04
589.29	30082.91
589.45	30445.69
589.61	30202.27
589.77	30630.59
589.93	30272.49
590.08	30668.04
590.24	30373.13
590.40	30792.09
590.56	30630.59
590.72	30157.80
590.88	30094.61
591.04	30345.05
591.20	30293.55
591.35	30438.67
591.51	30740.60
591.67	30417.60
591.83	30759.32
591.99	30293.55
592.15	30543.99
592.31	30326.32
592.46	30232.70
592.62	30384.83
592.78	30431.65
592.94	30532.29
593.10	30522.93
593.26	30705.49
593.41	30473.78
593.57	30354.41
593.73	30518.25
593.89	30560.37
594.05	30452.71
594.20	30536.97
594.36	30345.05
594.52	30415.26
594.68	30293.55
594.84	30426.96
594.99	30532.29
595.15	30506.54
595.31	30852.94
595.47	30501.86
595.62	30534.63
595.78	30623.57
595.94	30614.21
596.10	30843.58
596.25	30876.35
596.41	30405.90
596.57	30349.73
596.73	30513.56
596.88	30457.39
597.04	30677.40
597.20	30728.89
597.36	30698.47
597.51	30735.92
597.67	31065.93
597.83	30684.42
597.99	30384.83
598.14	30600.16
598.30	30609.53
598.46	30466.75
598.61	30562.72
598.77	30340.36
598.93	30539.31
599.09	30829.54
599.24	30986.35
599.40	30672.72
599.56	30778.04
599.71	30885.71
599.87	31016.78
600.03	30370.79
600.18	30546.33
600.34	30122.69
600.50	30831.88
600.65	30586.12
600.81	30986.35
600.97	30735.92
601.12	30759.32
601.28	30838.90
601.44	30761.66
601.59	30918.48
601.75	30923.16
601.91	31037.84
602.06	30244.40
602.22	30665.70
602.37	30431.65
602.53	30913.80
602.69	31094.02
602.84	30899.75
603.00	30682.08
603.16	30574.42
603.31	30904.43
603.47	30628.25
603.62	30536.97
603.78	30773.36
603.94	30759.32
604.09	30817.83
604.25	30654.00
604.40	30405.90
604.56	30700.81
604.71	31026.14
604.87	30916.14
605.03	30452.71
605.18	30623.57
605.34	30881.03
605.49	30174.19
605.65	30490.16
605.80	30340.36
605.96	30305.26
606.12	30618.89
606.27	30827.20
606.43	30551.01
606.58	31250.83
606.74	30876.35
606.89	30822.51
607.05	30719.53
607.20	30618.89
607.36	30951.24
607.51	30562.72
607.67	30501.86
607.82	30555.69
607.98	30478.46
608.13	30120.35
608.29	30567.40
608.44	30190.57
608.60	30431.65
608.75	30813.15
608.91	30843.58
609.06	30331.00
609.22	30300.58
609.37	30132.06
609.53	30487.82
609.68	30625.91
609.84	30160.14
609.99	30244.40
610.15	30342.70
610.30	30024.39
610.46	30164.82
610.61	30553.35
610.76	30106.31
610.92	30597.82
611.07	30740.60
611.23	30305.26
611.38	30394.20
611.54	30265.47
611.69	29867.58
611.84	29879.28
612.00	30232.70
612.15	30108.65
612.31	30263.13
612.46	30410.58
612.62	30225.68
612.77	30333.34
612.92	29834.81
613.08	30059.50
613.23	30033.75
613.39	30242.06
613.54	30057.16
613.69	30125.04
613.85	30321.64
614.00	29890.98
614.15	30157.80
614.31	29898.00
614.46	30546.33
614.62	29993.97
614.77	30572.08
614.92	30047.80
615.08	29909.71
615.23	30279.51
615.38	30265.47
615.54	29596.07
615.69	29729.48
615.84	29460.32
616.00	29811.40
616.15	29902.68
616.30	29968.22
616.46	29979.92
616.61	30185.89
616.76	29923.75
616.92	29764.59
617.07	30120.35
617.22	29717.78
617.37	29252.02
617.53	29898.00
617.68	29764.59
617.83	29575.01
617.99	29656.93
618.14	29640.54
618.29	29668.63
618.45	29539.90
618.60	29551.60
618.75	30129.72
618.90	30064.18
619.06	29525.86
619.21	29860.55
619.36	29633.52
619.51	29465.00
619.67	29233.29
619.82	29385.43
619.97	29481.39
620.12	29270.74
620.28	29420.53
620.43	29546.92
620.58	29912.05
620.73	29890.98
620.89	29741.19
621.04	29872.26
621.19	29476.71
621.34	29195.84
621.49	29181.80
621.65	29600.76
621.80	29200.52
621.95	29500.11
622.10	29336.27
622.25	29156.05
622.41	29219.25
622.56	29050.73
622.71	29593.73
622.86	29420.53
623.01	29165.42
623.16	29373.72
623.32	29158.39
623.47	29259.04
623.62	29200.52
623.77	29130.31
623.92	29291.80
624.07	28821.36
624.23	29130.31
624.38	29151.37
624.53	29193.50
624.68	29109.24
624.83	29350.32
624.98	29256.70
625.13	29076.48
625.29	28978.17
625.44	29078.82
625.59	28851.78
625.74	28982.85
625.89	28624.75
626.04	28952.43
626.19	28725.39
626.34	28701.99
626.49	28582.62
626.65	28594.32
626.80	28907.96
626.95	28723.05
627.10	28795.61
627.25	28610.71
627.40	28444.53
627.55	28514.75
627.70	28573.26
627.85	28725.39
628.00	28430.49
628.15	28620.07
628.30	28694.97
628.45	28559.22
628.60	28489.00
628.76	28294.74
628.91	28746.46
629.06	28510.07
629.21	28507.72
629.36	28732.42
629.51	28194.09
629.66	28416.44
629.81	28292.40
629.96	27955.36
630.11	28240.90
630.26	28268.99
630.41	28144.94
630.56	28388.36
630.71	28350.91
630.86	28390.70
631.01	28627.09
631.16	28484.32
631.31	28283.03
631.46	28128.56
631.61	28395.38
631.76	28217.50
631.91	28210.48
632.06	28058.34
632.21	27740.03
632.36	28067.70
632.51	27852.38
632.66	28238.56
632.81	27620.66
632.96	27950.68
633.10	28315.80
633.25	28013.87
633.40	27913.23
633.55	28013.87
633.70	27740.03
633.85	27929.61
634.00	27718.96
634.15	27828.97
634.30	27770.46
634.45	27555.13
634.60	28020.89
634.75	27742.37
634.90	27620.66
635.05	27782.16
635.19	27796.20
635.34	28114.52
635.49	28063.02
635.64	28002.17
635.79	27555.13
635.94	27889.82
636.09	27805.56
636.24	27658.11
636.39	27505.98
636.53	27590.24
636.68	27536.40
636.83	27669.81
636.98	28142.60
637.13	27522.36
637.28	27702.58
637.43	27892.16
637.57	27548.11
637.72	27505.98
637.87	27564.49
638.02	27370.22
638.17	27335.12
638.32	27597.26
638.46	26789.77
638.61	27316.39
638.76	27204.05
638.91	27405.33
639.06	27264.90
639.20	27374.91
639.35	27515.34
639.50	26995.74
639.65	27775.14
639.80	27779.82
639.94	27470.87
640.09	27480.23
640.24	27330.44
640.39	27316.39
640.54	27182.98
640.68	27140.85
640.83	27260.22
640.98	26995.74
641.13	26764.03
641.27	27515.34
641.42	27185.32
641.57	27108.08
641.72	27377.25
641.86	26902.12
642.01	26841.26
642.16	26747.64
642.31	26714.87
642.45	27075.32
642.60	26529.97
642.75	26515.93
642.90	26733.60
643.04	26792.11
643.19	26675.09
643.34	27136.17
643.48	26637.64
643.63	26754.66
643.78	26714.87
643.93	27058.93
644.07	26677.43
644.22	26953.61
644.37	26857.65
644.51	27037.87
644.66	26855.31
644.81	26452.73
644.95	26600.19
645.10	26555.72
645.25	26506.57
645.39	26443.37
645.54	26403.58
645.69	26513.59
645.83	26235.06
645.98	26656.36
646.13	26824.88
646.27	26773.39
646.42	26710.19
646.57	26574.44
646.71	26661.04
646.86	26799.13
647.00	26522.95
647.15	26796.79
647.30	26167.19
647.44	26258.47
647.59	26497.20
647.74	26450.39
647.88	26384.86
648.03	26410.60
648.17	26403.58
648.32	26485.50
648.47	26469.12
648.61	26295.92
648.76	26469.12
648.90	26342.73
649.05	26485.50
649.20	25984.63
649.34	26136.76
649.49	26050.16
649.63	25947.18
649.78	26244.43
649.92	25762.28
650.07	26256.13
650.21	26031.44
650.36	26345.07
650.51	25928.45
650.65	26242.09
650.80	25916.75
650.94	26094.63
651.09	26192.94
651.23	25958.88
651.38	25820.79
651.52	25855.90
651.67	25905.05
651.81	25678.02
651.96	25902.71
652.10	25951.86
652.25	26080.59
652.39	26176.55
652.54	26106.34
652.68	25860.58
652.83	25942.50
652.97	26225.70
653.12	26019.74
653.26	25788.02
653.41	26146.12
653.55	25811.43
653.70	25673.34
653.84	26052.50
653.99	25673.34
654.13	25661.63
654.27	25806.75
654.42	25582.06
654.56	25390.13
654.71	25862.92
654.85	25544.61
655.00	25851.22
655.14	25680.36
655.29	25797.38
655.43	25319.92
655.57	25408.86
655.72	25238.00
655.86	25174.80
656.01	25549.29
656.15	25502.48
656.30	25242.68
656.44	25149.06
656.58	25245.02
656.73	25696.74
656.87	25252.04
657.01	25476.73
657.16	25628.87
657.30	25462.69
657.45	25535.24
657.59	25191.19
657.73	25256.72
657.88	24989.90
658.02	24915.00
658.16	24982.88
658.31	25120.97
658.45	24903.30
658.60	24823.72
658.74	25193.53
658.88	25268.42
659.03	25046.07
659.17	24907.98
659.31	24987.56
659.46	24961.81
659.60	24961.81
659.74	24943.09
659.89	25041.39
660.03	24519.45
660.17	24746.48
660.32	24629.46
660.46	24673.93
660.60	24769.89
660.74	24432.85
660.89	24657.54
661.03	24486.68
661.17	24559.24
661.32	24580.31
661.46	24680.95
661.60	24519.45
661.74	24666.91
661.89	24465.62
662.03	24505.41
662.17	24175.39
662.31	24271.36
662.46	24517.11
662.60	24390.72
662.74	23997.51
662.88	23992.83
663.03	23999.85
663.17	24011.56
663.31	24217.52
663.45	24259.65
663.60	23747.08
663.74	23833.68
663.88	23913.25
664.02	23960.06
664.17	24154.33
664.31	23859.42
664.45	23875.80
664.59	23824.31
664.73	23931.98
664.88	23892.19
665.02	23407.70
665.16	23913.25
665.30	23508.34
665.44	23534.09
665.59	23557.49
665.73	23461.53
665.87	23342.16
666.01	23807.93
666.15	23506.00
666.29	23520.04
666.44	23543.45
666.58	23520.04
666.72	23129.17
666.86	23068.32
667.00	23765.80
667.14	23522.38
667.28	23082.36
667.43	23042.57
667.57	23325.78
667.71	22731.28
667.85	23498.98
667.99	22857.67
668.13	23138.54
668.27	22890.44
668.41	22829.59
668.56	22925.55
668.70	22965.34
668.84	22864.69
668.98	22721.92
669.12	22958.31
669.26	23175.98
669.40	22391.91
669.54	22565.10
669.68	23192.37
669.82	22551.06
669.96	22602.55
670.10	22256.15
670.25	22778.09
670.39	22174.24
670.53	22377.86
670.67	22286.58
670.81	22059.55
670.95	22214.02
671.09	21949.54
671.23	22686.81
671.37	22672.77
671.51	22647.02
671.65	22417.65
671.79	22513.61
671.93	22139.13
672.07	21954.22
672.21	22204.66
672.35	22066.57
672.49	21884.01
672.63	21884.01
672.77	21855.92
672.91	21919.12
673.05	21565.70
673.19	21783.37
673.33	21923.80
673.47	21656.98
673.61	21413.56
673.75	21600.80
673.89	21645.27
674.03	21207.59
674.17	21610.17
674.31	21266.11
674.45	21113.97
674.59	21497.82
674.73	21530.59
674.87	21315.26
675.01	21228.66
675.15	21235.68
675.29	20879.92
675.43	20924.39
675.56	20910.35
675.70	21003.97
675.84	21032.05
675.98	20645.87
676.12	20748.85
676.26	21301.22
676.40	20741.83
676.54	20940.77
676.68	20844.81
676.82	20510.11
676.96	20524.16
677.10	20437.56
677.23	20229.25
677.37	20152.01
677.51	20168.40
677.65	20212.87
677.79	20170.74
677.93	20065.41
678.07	19875.83
678.21	20100.52
678.34	19847.74
678.48	19917.96
678.62	19803.27
678.76	19852.42
678.90	19658.16
679.04	19908.60
679.18	19714.33
679.31	19372.61
679.45	19449.85
679.59	19407.72
679.73	19342.19
679.87	19328.14
680.00	19138.56
680.14	19204.10
680.28	19321.12
680.42	19145.58
680.56	19173.67
680.70	18906.85
680.83	19122.18
680.97	19084.73
681.11	18944.30
681.25	18717.26
681.39	18700.88
681.52	18775.78
681.66	18717.26
681.80	18391.93
681.94	18485.55
682.07	18616.62
682.21	18412.99
682.35	18080.64
682.49	18176.60
682.62	18031.49
682.76	18333.42
682.90	18192.98
683.04	18317.03
683.17	18375.55
683.31	18211.71
683.45	18253.84
683.59	18061.91
683.72	18099.36
683.86	17867.65
684.00	18075.96
684.13	17949.57
684.27	17568.06
684.41	17776.37
684.55	17226.34
684.68	17331.67
684.82	17303.58
684.96	17202.94
685.09	17369.12
685.23	17130.38
685.37	17296.56
685.50	17284.86
685.64	16996.97
685.78	16938.46
685.91	17174.85
686.05	17074.21
686.19	17144.42
686.32	16922.07
686.46	16699.72
686.60	16765.26
686.73	16648.23
686.87	16418.86
687.01	16725.47
687.14	16704.40
687.28	16100.55
687.42	16400.13
687.55	16374.39
687.69	16130.97
687.82	16472.69
687.96	16149.70
688.10	16196.51
688.23	16023.31
688.37	16147.36
688.50	15964.79
688.64	16063.10
688.78	15953.09
688.91	15655.84
689.05	15492.01
689.18	15524.77
689.32	15470.94
689.46	15536.48
689.59	15520.09
689.73	15466.26
689.86	15311.78
690.00	15389.02
690.13	15489.67
690.27	15309.44
690.41	15236.89
690.54	15035.60
690.68	15232.21
690.81	14951.34
690.95	15300.08
691.08	15154.97
691.22	15030.92
691.35	14724.31
691.49	15047.30
691.62	15178.37
691.76	14890.49
691.89	14684.52
692.03	14579.20
692.16	14410.68
692.30	14441.11
692.43	13947.25
692.57	14420.04
692.70	14389.61
692.84	14214.07
692.97	14300.67
693.11	14178.97
693.24	14019.81
693.38	14291.31
693.51	13865.33
693.65	14251.52
693.78	13762.35
693.92	13963.64
694.05	13902.78
694.19	13706.18
694.32	13645.32
694.45	13593.83
694.59	13156.15
694.72	13315.31
694.86	13586.81
694.99	13116.36
695.13	13427.65
695.26	13327.01
695.39	13312.97
695.53	13263.82
695.66	13245.09
695.80	13114.02
695.93	13032.10
696.07	13053.17
696.20	13266.16
696.33	12858.90
696.47	12704.43
696.60	12861.24
696.73	13001.68
696.87	12683.36
697.00	12582.72
697.14	12657.62
697.27	12386.12
697.40	12496.12
697.54	12505.48
697.67	12379.09
697.80	12676.34
697.94	12390.80
698.07	12217.60
698.21	12119.29
698.34	12526.55
698.47	12065.46
698.61	12058.44
698.74	12109.93
698.87	12166.10
699.01	11852.47
699.14	11840.77
699.27	11894.60
699.40	11915.67
699.54	11808.00
699.67	11609.06
699.80	11489.69
699.94	11683.95
700.07	11529.48
700.20	11459.26
700.34	11421.81
700.47	11337.56
700.60	11463.94
700.73	11426.50
700.87	11405.43
701.00	11246.27
701.13	11229.89
701.26	11276.70
701.40	11272.02
701.53	11119.89
701.66	11077.76
701.79	10984.13
701.93	10778.17
702.06	10724.33
702.19	10904.56
702.32	10778.17
702.46	10911.58
702.59	10595.61
702.72	10509.01
702.85	10595.61
702.99	10593.26
703.12	10396.66
703.25	10153.24
703.38	10366.23
703.51	10511.35
703.65	10289.00
703.78	10590.92
703.91	10284.31
704.04	10279.63
704.17	10207.08
704.31	10125.16
704.44	10104.09
704.57	9895.78
704.70	9839.61
704.83	9790.46
704.96	9973.02
705.10	9919.19
705.23	9682.80
>>>>>End Processed Spectral Data<<<<<
