SpectraSuite Data File
++++++++++++++++++++++++++++++++++++
Date: Fri Oct 18 13:58:06 GMT-05:00 2013
User: bianchi
Dark Spectrum Present: No
Reference Spectrum Present: No
Number of Sampled Component Spectra: 1
Spectrometers: USB2+H05261
Integration Time (usec): 50000 (USB2+H05261)
Spectra Averaged: 1 (USB2+H05261)
Boxcar Smoothing: 0 (USB2+H05261)
Correct for Electrical Dark: No (USB2+H05261)
Strobe/Lamp Enabled: No (USB2+H05261)
Correct for Detector Non-linearity: No (USB2+H05261)
Correct for Stray Light: No (USB2+H05261)
Number of Pixels in Processed Spectrum: 2048
>>>>>Begin Processed Spectral Data<<<<<
365.73	9.36
365.92	9.36
366.12	9.36
366.32	0.00
366.52	0.00
366.72	0.00
366.91	0.00
367.11	0.00
367.31	0.00
367.51	0.00
367.70	0.00
367.90	0.00
368.10	0.00
368.30	0.00
368.49	0.00
368.69	0.00
368.89	0.00
369.09	0.00
369.28	0.00
369.48	0.00
369.68	0.00
369.87	0.00
370.07	0.00
370.27	0.00
370.47	0.00
370.66	95.96
370.86	84.26
371.06	91.28
371.25	173.20
371.45	58.51
371.65	145.11
371.84	180.22
372.04	161.50
372.24	70.22
372.44	107.66
372.63	168.52
372.83	229.37
373.03	215.33
373.22	205.97
373.42	210.65
373.62	189.58
373.81	271.50
374.01	205.97
374.21	227.03
374.40	189.58
374.60	201.29
374.79	287.89
374.99	203.63
375.19	210.65
375.38	238.73
375.58	252.78
375.78	280.86
375.97	269.16
376.17	259.80
376.37	266.82
376.56	271.50
376.76	236.39
376.95	311.29
377.15	292.57
377.35	269.16
377.54	304.27
377.74	241.08
377.93	271.50
378.13	276.18
378.33	299.59
378.52	311.29
378.72	241.08
378.91	276.18
379.11	301.93
379.31	322.99
379.50	177.88
379.70	322.99
379.89	344.06
380.09	337.04
380.28	299.59
380.48	308.95
380.68	358.10
380.87	386.19
381.07	248.10
381.26	322.99
381.46	327.68
381.65	362.78
381.85	374.49
382.04	425.98
382.24	355.76
382.43	304.27
382.63	388.53
382.83	358.10
383.02	325.33
383.22	301.93
383.41	269.16
383.61	362.78
383.80	423.64
384.00	341.72
384.19	369.80
384.39	430.66
384.58	374.49
384.78	346.40
384.97	346.40
385.17	388.53
385.36	465.77
385.56	475.13
385.75	437.68
385.95	383.85
386.14	409.59
386.34	404.91
386.53	470.45
386.72	395.55
386.92	425.98
387.11	482.15
387.31	390.87
387.50	355.76
387.70	395.55
387.89	456.40
388.09	500.87
388.28	505.56
388.48	447.04
388.67	484.49
388.86	362.78
389.06	493.85
389.25	540.66
389.45	510.24
389.64	400.23
389.84	496.19
390.03	531.30
390.22	489.17
390.42	437.68
390.61	437.68
390.81	533.64
391.00	477.47
391.19	456.40
391.39	514.92
391.58	458.74
391.78	496.19
391.97	505.56
392.16	592.16
392.36	507.90
392.55	566.41
392.75	557.05
392.94	543.00
393.13	580.45
393.33	580.45
393.52	519.60
393.71	631.94
393.91	547.69
394.10	655.35
394.29	594.50
394.49	587.47
394.68	568.75
394.88	622.58
395.07	596.84
395.26	634.29
395.46	606.20
395.65	641.31
395.84	695.14
396.04	610.88
396.23	631.94
396.42	596.84
396.62	624.92
396.81	615.56
397.00	725.57
397.19	641.31
397.39	655.35
397.58	727.91
397.77	664.71
397.97	664.71
398.16	575.77
398.35	748.97
398.55	739.61
398.74	720.88
398.93	753.65
399.12	798.12
399.32	706.84
399.51	727.91
399.70	772.38
399.90	763.01
400.09	781.74
400.28	772.38
400.47	781.74
400.67	788.76
400.86	788.76
401.05	819.19
401.24	697.48
401.44	805.14
401.63	868.34
401.82	807.48
402.01	767.70
402.21	835.57
402.40	901.11
402.59	896.43
402.78	875.36
402.97	863.66
403.17	959.62
403.36	896.43
403.55	983.02
403.74	959.62
403.93	910.47
404.13	987.71
404.32	875.36
404.51	959.62
404.70	945.58
404.89	971.32
405.09	912.81
405.28	922.17
405.47	994.73
405.66	933.87
405.85	985.37
406.05	945.58
406.24	997.07
406.43	938.55
406.62	1032.18
406.81	1069.62
407.00	1004.09
407.20	1055.58
407.39	997.07
407.58	1043.88
407.77	1032.18
407.96	1158.57
408.15	1137.50
408.34	1043.88
408.54	1032.18
408.73	1050.90
408.92	1121.12
409.11	1186.65
409.30	1041.54
409.49	1177.29
409.68	1177.29
409.87	1181.97
410.07	1198.35
410.26	1254.53
410.45	1181.97
410.64	1224.10
410.83	1203.04
411.02	1184.31
411.21	1268.57
411.40	1242.82
411.59	1198.35
411.78	1219.42
411.98	1254.53
412.17	1359.85
412.36	1291.98
412.55	1387.94
412.74	1334.11
412.93	1362.19
413.12	1434.75
413.31	1439.43
413.50	1486.24
413.69	1430.07
413.88	1385.60
414.07	1430.07
414.26	1481.56
414.45	1460.49
414.64	1460.49
414.83	1458.15
415.02	1547.09
415.22	1490.92
415.41	1565.82
415.60	1659.44
415.79	1554.12
415.98	1671.14
416.17	1596.25
416.36	1640.72
416.55	1612.63
416.74	1689.87
416.93	1591.56
417.12	1722.63
417.31	1781.15
417.50	1666.46
417.69	1713.27
417.88	1734.34
418.07	1762.42
418.26	1710.93
418.45	1837.32
418.64	1806.89
418.83	1813.92
419.02	1884.13
419.21	1909.88
419.39	1825.62
419.58	1858.39
419.77	1956.69
419.96	1799.87
420.15	1888.81
420.34	1916.90
420.53	1905.20
420.72	2008.18
420.91	1923.92
421.10	1970.73
421.29	2012.86
421.48	1923.92
421.67	1998.82
421.86	1933.28
422.05	2019.88
422.24	2045.63
422.43	2029.24
422.61	2022.22
422.80	2071.37
422.99	2204.78
423.18	2001.16
423.37	2064.35
423.56	1994.14
423.75	2071.37
423.94	2073.71
424.13	1856.04
424.32	1928.60
424.50	2073.71
424.69	2104.14
424.88	2155.63
425.07	2071.37
425.26	2017.54
425.45	2162.66
425.64	2008.18
425.83	2001.16
426.01	2101.80
426.20	2022.22
426.39	2064.35
426.58	2108.82
426.77	2012.86
426.96	2195.42
427.15	2062.01
427.33	2230.53
427.52	2129.89
427.71	2190.74
427.90	2162.66
428.09	2270.32
428.28	2188.40
428.46	2202.44
428.65	2202.44
428.84	2251.60
429.03	2328.83
429.22	2221.17
429.40	2317.13
429.59	2267.98
429.78	2172.02
429.97	2275.00
430.16	2209.47
430.34	2265.64
430.53	2438.84
430.72	2321.81
430.91	2272.66
431.10	2370.96
431.28	2333.51
431.47	2485.65
431.66	2513.74
431.85	2333.51
432.03	2511.39
432.22	2499.69
432.41	2466.92
432.60	2518.42
432.79	2347.56
432.97	2455.22
433.16	2527.78
433.35	2495.01
433.54	2558.21
433.72	2600.34
433.91	2443.52
434.10	2422.45
434.28	2579.27
434.47	2672.89
434.66	2715.02
434.85	2576.93
435.03	2511.39
435.22	2565.23
435.41	2654.17
435.59	2731.41
435.78	2597.99
435.97	2644.81
436.16	2808.64
436.34	2785.24
436.53	2761.83
436.72	2764.17
436.90	2691.62
437.09	2822.69
437.28	2708.00
437.46	2724.38
437.65	2682.25
437.84	2820.35
438.02	2834.39
438.21	2883.54
438.40	2761.83
438.58	2965.46
438.77	2953.76
438.96	2871.84
439.14	2920.99
439.33	2932.69
439.52	2850.77
439.70	3124.62
439.89	2979.50
440.08	3007.59
440.26	3080.14
440.45	3054.40
440.63	3187.81
440.82	3190.15
441.01	3185.47
441.19	3157.38
441.38	3173.77
441.57	3241.64
441.75	3248.66
441.94	3412.50
442.12	3424.20
442.31	3323.56
442.50	3468.67
442.68	3342.28
442.87	3442.93
443.05	3300.16
443.24	3243.98
443.43	3440.59
443.61	3346.97
443.80	3571.66
443.98	3363.35
444.17	3220.58
444.35	3456.97
444.54	3499.10
444.73	3419.52
444.91	3379.73
445.10	3368.03
445.28	3461.65
445.47	3431.23
445.65	3398.46
445.84	3637.19
446.02	3583.36
446.21	3529.53
446.39	3426.54
446.58	3609.11
446.77	3625.49
446.95	3433.57
447.14	3496.76
447.32	3517.83
447.51	3522.51
447.69	3339.94
447.88	3595.06
448.06	3487.40
448.25	3527.19
448.43	3583.36
448.62	3602.08
448.80	3559.95
448.99	3548.25
449.17	3768.26
449.36	3639.53
449.54	3641.87
449.73	3705.07
449.91	3831.46
450.10	3850.18
450.28	3786.99
450.46	3808.05
450.65	3763.58
450.83	3742.52
451.02	3915.72
451.20	3925.08
451.39	3772.94
451.57	3775.28
451.76	3730.81
451.94	3904.01
452.13	3735.50
452.31	3880.61
452.49	3906.35
452.68	3967.21
452.86	3852.52
453.05	4028.06
453.23	4018.70
453.42	3896.99
453.60	4025.72
453.78	4025.72
453.97	3918.06
454.15	3999.98
454.34	4046.79
454.52	4173.18
454.70	4014.02
454.89	4154.45
455.07	4056.15
455.26	4114.66
455.44	4245.73
455.62	4091.26
455.81	4121.68
455.99	4177.86
456.17	4170.83
456.36	4215.30
456.54	4348.72
456.73	4411.91
456.91	4428.29
457.09	4479.79
457.28	4432.97
457.46	4423.61
457.64	4440.00
457.83	4327.65
458.01	4447.02
458.19	4362.76
458.38	4507.87
458.56	4498.51
458.74	4500.85
458.93	4442.34
459.11	4564.04
459.29	4395.53
459.48	4353.40
459.66	4491.49
459.84	4697.46
460.03	4751.29
460.21	4622.56
460.39	4664.69
460.57	4582.77
460.76	4547.66
460.94	4697.46
461.12	4671.71
461.31	4606.17
461.49	4730.22
461.67	4758.31
461.85	4807.46
462.04	4685.75
462.22	5046.20
462.40	4924.49
462.59	4887.04
462.77	4940.87
462.95	4889.38
463.13	4744.27
463.32	4887.04
463.50	5006.41
463.68	4992.36
463.86	4980.66
464.05	4938.53
464.23	4933.85
464.41	4903.42
464.59	4746.61
464.78	4947.89
464.96	5008.75
465.14	4973.64
465.32	5064.92
465.50	5104.71
465.69	5137.48
465.87	5032.15
466.05	4957.25
466.23	5142.16
466.41	5280.25
466.60	5317.70
466.78	5137.48
466.96	5116.41
467.14	5069.60
467.32	5125.77
467.51	5313.02
467.69	5172.58
467.87	5228.76
468.05	5317.70
468.23	5219.39
468.41	5289.61
468.60	5423.02
468.78	5315.36
468.96	5151.52
469.14	5287.27
469.32	5352.81
469.50	5324.72
469.69	5425.36
469.87	5561.11
470.05	5385.57
470.23	5462.81
470.41	5495.58
470.59	5633.67
470.77	5427.70
470.95	5394.93
471.14	5678.14
471.32	5558.77
471.50	5678.14
471.68	5628.99
471.86	5837.30
472.04	5724.95
472.22	5856.02
472.40	5703.89
472.58	5736.65
472.77	5823.25
472.95	5966.03
473.13	6015.18
473.31	5935.60
473.49	6085.39
473.67	6050.28
473.85	5973.05
474.03	6146.25
474.21	6132.20
474.39	6321.79
474.57	6218.80
474.75	6417.75
474.93	6174.33
475.12	6160.29
475.30	6363.92
475.48	6195.40
475.66	6361.58
475.84	6436.47
476.02	6569.88
476.20	6525.41
476.38	6499.67
476.56	6565.20
476.74	6588.61
476.92	6684.57
477.10	6560.52
477.28	6717.34
477.46	6663.51
477.64	6913.94
477.82	6853.09
478.00	7103.53
478.18	6876.49
478.36	7082.46
478.54	7117.57
478.72	7208.85
478.90	7304.81
479.08	7267.36
479.26	7183.10
479.44	7344.60
479.62	7346.94
479.80	7414.82
479.98	7637.17
480.16	7765.90
480.34	7595.04
480.52	7803.35
480.70	7707.38
480.88	7466.31
481.06	7655.89
481.24	7873.56
481.41	7777.60
481.59	7861.86
481.77	8032.72
481.95	8161.45
482.13	8437.63
482.31	8215.28
482.49	8442.31
482.67	8374.44
482.85	8528.91
483.03	8732.54
483.21	8657.64
483.39	8725.52
483.57	8674.03
483.74	8908.08
483.92	9027.45
484.10	8814.46
484.28	9034.47
484.46	9296.61
484.64	9392.57
484.82	9245.12
485.00	9238.09
485.18	9565.77
485.35	9542.36
485.53	9479.17
485.71	9682.80
485.89	9589.17
486.07	9694.50
486.25	9638.33
486.43	9654.71
486.61	9867.70
486.78	10127.50
486.96	10106.43
487.14	10127.50
487.32	10127.50
487.50	10235.16
487.68	10279.63
487.85	10537.09
488.03	10658.80
488.21	10576.88
488.39	10808.59
488.57	10822.64
488.75	10806.25
488.92	11164.36
489.10	11059.03
489.28	11124.57
489.46	11208.83
489.64	11056.69
489.81	11438.20
489.99	11426.50
490.17	11445.22
490.35	11676.93
490.53	11555.22
490.70	11920.35
490.88	11620.76
491.06	11920.35
491.24	11981.20
491.41	12161.42
491.59	12182.49
491.77	12044.40
491.95	12283.13
492.13	12236.32
492.30	12439.95
492.48	12542.93
492.66	12468.03
492.84	12451.65
493.01	12739.54
493.19	12671.66
493.37	12901.03
493.54	13139.77
493.72	13163.17
493.90	13132.75
494.08	13167.85
494.25	13296.58
494.43	13429.99
494.61	13413.61
494.79	13579.79
494.96	13612.56
495.14	13441.70
495.32	13799.80
495.49	13439.36
495.67	13919.17
495.85	14057.26
496.02	14211.73
496.20	14207.05
496.38	14106.41
496.55	14061.94
496.73	14562.81
496.91	14434.08
497.09	14696.22
497.26	14501.96
497.44	14455.15
497.62	14675.16
497.79	14813.25
497.97	14773.46
498.14	14958.36
498.32	15105.82
498.50	15091.77
498.67	15061.35
498.85	15096.46
499.03	15356.25
499.20	15344.55
499.38	15269.66
499.56	15363.28
499.73	15721.38
499.91	15796.28
500.08	15709.68
500.26	15496.69
500.44	15665.21
500.61	15576.27
500.79	15728.40
500.97	16009.26
501.14	16107.57
501.32	16250.34
501.49	16374.39
501.67	16063.10
501.84	16154.38
502.02	16280.77
502.20	16379.07
502.37	16524.18
502.55	16416.52
502.72	16486.73
502.90	16395.45
503.07	16514.82
503.25	16561.63
503.43	16301.83
503.60	16575.67
503.78	16891.65
503.95	16830.79
504.13	17165.49
504.30	16828.45
504.48	16926.75
504.65	16910.37
504.83	17062.51
505.01	17219.32
505.18	17259.11
505.36	17326.99
505.53	17256.77
505.71	17397.20
505.88	17462.74
506.06	17542.32
506.23	17539.97
506.41	17434.65
506.58	17439.33
506.76	17834.88
506.93	17659.34
507.11	17673.39
507.28	17696.79
507.46	17767.01
507.63	17785.73
507.81	18218.73
507.98	18075.96
508.16	18305.33
508.33	18342.78
508.50	18270.22
508.68	18134.47
508.85	18602.58
509.03	18581.51
509.20	18574.49
509.38	18712.58
509.55	18754.71
509.73	18888.12
509.90	18604.92
510.08	18792.16
510.25	18675.13
510.42	18836.63
510.60	18855.36
510.77	19115.16
510.95	19087.07
511.12	19063.66
511.30	19096.43
511.47	19271.97
511.64	19152.60
511.82	19384.32
511.99	19536.45
512.17	19358.57
512.34	19377.30
512.51	19613.69
512.69	19559.86
512.86	19506.02
513.04	19789.23
513.21	19847.74
513.38	19824.34
513.56	20240.95
513.73	19697.95
513.90	19800.93
514.08	19611.35
514.25	20152.01
514.43	19995.20
514.60	20156.69
514.77	20170.74
514.95	20678.63
515.12	20276.06
515.29	20196.48
515.47	20407.13
515.64	20622.46
515.81	20416.49
515.99	20765.23
516.16	20603.74
516.33	20652.89
516.51	21010.99
516.68	20587.35
516.85	20552.24
517.03	20664.59
517.20	20943.11
517.37	21130.36
517.54	21245.04
517.72	21174.83
517.89	20903.32
518.06	20912.69
518.24	21120.99
518.41	21106.95
518.58	21090.57
518.75	21034.39
518.93	21312.92
519.10	21458.03
519.27	21509.52
519.45	21628.89
519.62	21336.32
519.79	21579.74
519.96	21631.23
520.14	21586.76
520.31	21474.42
520.48	21516.54
520.65	21645.27
520.83	21891.03
521.00	21933.16
521.17	21956.57
521.34	21865.28
521.52	22008.06
521.69	22356.80
521.86	21715.49
522.03	22253.81
522.20	22094.66
522.38	22387.22
522.55	22097.00
522.72	22242.11
522.89	22548.72
523.07	22684.47
523.24	22618.94
523.41	22693.83
523.58	22342.75
523.75	22513.61
523.92	22574.47
524.10	22618.94
524.27	22642.34
524.44	22993.42
524.61	22932.57
524.78	23342.16
524.96	22991.08
525.13	22874.06
525.30	23119.81
525.47	22630.64
525.64	23180.67
525.81	23183.01
525.98	23257.90
526.16	23346.84
526.33	23166.62
526.50	23559.83
526.67	23264.92
526.84	22960.66
527.01	23267.27
527.18	23543.45
527.36	23400.68
527.53	23655.79
527.70	23660.48
527.87	23709.63
528.04	23807.93
528.21	23786.86
528.38	23751.76
528.55	24191.78
528.72	23754.10
528.89	24044.32
529.07	23744.73
529.24	23566.85
529.41	24084.11
529.58	23805.59
529.75	23978.79
529.92	24126.24
530.09	23941.34
530.26	24114.54
530.43	24299.44
530.60	24041.98
530.77	24194.12
530.94	24346.25
531.11	24166.03
531.28	24135.60
531.46	24233.91
531.63	24673.93
531.80	24655.20
531.97	24671.59
532.14	24718.40
532.31	24271.36
532.48	24435.19
532.65	24886.92
532.82	24538.18
532.99	24610.73
533.16	24526.47
533.33	24542.86
533.50	25081.18
533.67	25057.78
533.84	24964.15
534.01	24847.13
534.18	24587.33
534.35	25228.63
534.52	24936.07
534.69	25418.22
534.86	25111.61
535.03	24879.89
535.20	25502.48
535.37	25434.60
535.54	25560.99
535.71	25357.36
535.88	25200.55
536.05	25612.48
536.22	25179.48
536.38	25685.04
536.55	25352.68
536.72	25329.28
536.89	25219.27
537.06	25666.31
537.23	25745.89
537.40	25603.12
537.57	25577.37
537.74	25785.68
537.91	25823.13
538.08	26270.17
538.25	25799.73
538.42	25914.41
538.59	25895.69
538.75	25383.11
538.92	25769.30
539.09	25869.94
539.26	26223.36
539.43	25759.94
539.60	26361.45
539.77	26010.37
539.94	26267.83
540.11	26232.72
540.28	26150.81
540.44	26171.87
540.61	25916.75
540.78	25874.62
540.95	26162.51
541.12	26157.83
541.29	26288.90
541.46	26094.63
541.62	26125.06
541.79	26366.13
541.96	25970.58
542.13	26221.02
542.30	27021.48
542.47	26300.60
542.63	26492.52
542.80	26834.24
542.97	27016.80
543.14	26778.07
543.31	27154.90
543.48	26595.51
543.64	26948.93
543.81	27091.70
543.98	27358.52
544.15	27283.62
544.32	27257.88
544.48	27161.92
544.65	27208.73
544.82	27386.61
544.99	26946.59
545.16	26906.80
545.32	26850.63
545.49	27529.38
545.66	27051.91
545.83	27728.33
546.00	27686.20
546.16	27402.99
546.33	27159.58
546.50	27147.87
546.67	26881.05
546.83	27154.90
547.00	27234.47
547.17	27166.60
547.34	27257.88
547.50	28063.02
547.67	27964.72
547.84	27505.98
548.00	27878.12
548.17	27805.56
548.34	27630.02
548.51	27903.87
548.67	27756.41
548.84	27920.25
549.01	27988.13
549.18	27665.13
549.34	27599.60
549.51	27751.73
549.68	28081.75
549.84	27740.03
550.01	27737.69
550.18	28023.23
550.34	27571.51
550.51	28306.44
550.68	28095.79
550.84	28320.48
551.01	28350.91
551.18	28006.85
551.34	27749.39
551.51	28084.09
551.68	28226.86
551.84	28486.66
552.01	28290.06
552.18	28432.83
552.34	28144.94
552.51	28226.86
552.68	28261.97
552.84	28664.54
553.01	28418.78
553.18	28231.54
553.34	28933.70
553.51	28257.29
553.67	28645.82
553.84	28804.97
554.01	28699.65
554.17	28755.82
554.34	28524.11
554.51	28444.53
554.67	28680.92
554.84	28599.01
555.00	28556.88
555.17	28755.82
555.33	28840.08
555.50	28463.25
555.67	28577.94
555.83	29010.94
556.00	29078.82
556.16	28919.66
556.33	28851.78
556.50	29099.88
556.66	29230.95
556.83	28940.72
556.99	29071.79
557.16	29223.93
557.32	29280.10
557.49	29006.26
557.65	28802.63
557.82	28919.66
557.98	28760.50
558.15	28907.96
558.32	28765.18
558.48	28985.19
558.65	29551.60
558.81	29259.04
558.98	29369.04
559.14	29015.62
559.31	29359.68
559.47	29099.88
559.64	29525.86
559.80	29301.17
559.97	29624.16
560.13	29167.76
560.30	29139.67
560.46	29369.04
560.63	29591.39
560.79	29425.22
560.96	29661.61
561.12	29259.04
561.29	29586.71
561.45	29502.45
561.61	29549.26
561.78	29500.11
561.94	29783.32
562.11	29790.34
562.27	29399.47
562.44	29582.03
562.60	29563.31
562.77	29624.16
562.93	29493.09
563.10	30036.09
563.26	29933.11
563.42	29514.16
563.59	29780.98
563.75	29411.17
563.92	29589.05
564.08	29586.71
564.24	29472.03
564.41	29572.67
564.57	29696.72
564.74	29551.60
564.90	30359.09
565.07	30015.03
565.23	29708.42
565.39	30054.82
565.56	29972.90
565.72	29621.82
565.88	29759.91
566.05	29741.19
566.21	30068.86
566.38	29706.08
566.54	29802.04
566.70	30213.98
566.87	30316.96
567.03	30169.51
567.19	30419.94
567.36	30249.08
567.52	30232.70
567.68	30157.80
567.85	30125.04
568.01	29799.70
568.17	29949.50
568.34	30031.41
568.50	30127.38
568.66	29979.92
568.83	30394.20
568.99	30057.16
569.15	30251.42
569.32	30139.08
569.48	30185.89
569.64	29919.07
569.81	30347.39
569.97	30253.76
570.13	30389.52
570.30	29949.50
570.46	29998.65
570.62	30190.57
570.78	30141.42
570.95	29986.94
571.11	30064.18
571.27	29645.23
571.43	30377.81
571.60	30331.00
571.76	29893.32
571.92	30295.89
572.09	30270.15
572.25	30321.64
572.41	30485.48
572.57	30066.52
572.74	30331.00
572.90	30331.00
573.06	30499.52
573.22	30139.08
573.38	30272.49
573.55	30361.43
573.71	30328.66
573.87	30572.08
574.03	30412.92
574.20	30628.25
574.36	30277.17
574.52	30487.82
574.68	30485.48
574.84	30551.01
575.01	30279.51
575.17	30433.99
575.33	30326.32
575.49	30314.62
575.65	30188.23
575.82	30892.73
575.98	30272.49
576.14	30625.91
576.30	30553.35
576.46	30232.70
576.62	30417.60
576.79	30478.46
576.95	30597.82
577.11	30822.51
577.27	30850.60
577.43	30426.96
577.59	30733.57
577.75	30511.22
577.92	30270.15
578.08	30590.80
578.24	30281.85
578.40	30543.99
578.56	30602.50
578.72	30532.29
578.88	30536.97
579.04	30752.30
579.21	30361.43
579.37	30326.32
579.53	30632.93
579.69	30197.59
579.85	30614.21
580.01	30714.85
580.17	30375.47
580.33	30424.62
580.49	30377.81
580.65	30639.95
580.82	30794.43
580.98	30855.28
581.14	30714.85
581.30	30799.11
581.46	30448.03
581.62	30593.14
581.78	30136.74
581.94	30562.72
582.10	30567.40
582.26	30195.25
582.42	30824.86
582.58	30508.88
582.74	30745.28
582.90	30651.66
583.06	30726.55
583.22	30485.48
583.38	30607.19
583.54	30501.86
583.70	30726.55
583.86	30600.16
584.02	30366.11
584.18	30693.79
584.34	31185.30
584.50	31241.47
584.66	30668.04
584.82	30515.90
584.98	30904.43
585.14	30813.15
585.30	30586.12
585.46	30609.53
585.62	30611.87
585.78	30850.60
585.94	30277.17
586.10	30951.24
586.26	30707.83
586.42	31094.02
586.58	30913.80
586.74	30621.23
586.90	30560.37
587.06	30654.00
587.22	30639.95
587.38	30543.99
587.54	31063.59
587.70	30951.24
587.86	30787.41
588.02	31194.66
588.18	31154.87
588.34	31150.19
588.49	30637.61
588.65	30426.96
588.81	30672.72
588.97	30934.86
589.13	30902.09
589.29	31012.10
589.45	30862.30
589.61	30918.48
589.77	31171.25
589.93	31372.54
590.08	31344.45
590.24	30850.60
590.40	31496.59
590.56	31147.85
590.72	30958.27
590.88	30932.52
591.04	31159.55
591.20	30878.69
591.35	31798.52
591.51	31234.45
591.67	31295.30
591.83	31161.89
591.99	31241.47
592.15	31089.34
592.31	31152.53
592.46	31218.07
592.62	31201.68
592.78	31257.85
592.94	30869.33
593.10	30986.35
593.26	31241.47
593.41	31037.84
593.57	31115.08
593.73	31157.21
593.89	31246.15
594.05	31033.16
594.20	31274.24
594.36	31426.37
594.52	31386.58
594.68	31157.21
594.84	31189.98
594.99	31236.79
595.15	31054.23
595.31	31512.97
595.47	31384.24
595.62	31702.56
595.78	31398.29
595.94	31126.78
596.10	31171.25
596.25	31007.42
596.41	30838.90
596.57	31047.21
596.73	30651.66
596.88	30974.65
597.04	31061.25
597.20	31304.67
597.36	31248.49
597.51	31620.64
597.67	31548.08
597.83	31667.45
597.99	31173.60
598.14	31363.18
598.30	31281.26
598.46	31637.02
598.61	31271.90
598.77	31206.36
598.93	31220.41
599.09	31604.25
599.24	31992.78
599.40	31400.63
599.56	31220.41
599.71	31915.54
599.87	31744.69
600.03	31229.77
600.18	31274.24
600.34	31269.56
600.50	31267.22
600.65	31426.37
600.81	31454.46
600.97	31494.25
601.12	31857.03
601.28	31477.86
601.44	31501.27
601.59	31693.19
601.75	30895.07
601.91	31267.22
602.06	31365.52
602.22	31257.85
602.37	31302.32
602.53	31197.00
602.69	31527.02
602.84	31248.49
603.00	31850.01
603.16	31412.33
603.31	31627.66
603.47	31515.31
603.62	31283.60
603.78	31564.46
603.94	31028.48
604.09	31222.75
604.25	31386.58
604.40	31225.09
604.56	31122.10
604.71	31889.80
604.87	31676.81
605.03	31550.42
605.18	31608.93
605.34	31711.92
605.49	31274.24
605.65	31398.29
605.80	30906.77
605.96	31262.54
606.12	31419.35
606.27	31335.09
606.43	30909.11
606.58	31742.35
606.74	31494.25
606.89	31473.18
607.05	31447.44
607.20	31234.45
607.36	31599.57
607.51	31314.03
607.67	31171.25
607.82	30780.39
607.98	30937.20
608.13	31145.51
608.29	31332.75
608.44	31463.82
608.60	31377.22
608.75	31728.30
608.91	30995.71
609.06	30883.37
609.22	31281.26
609.37	30906.77
609.53	31119.76
609.68	31140.83
609.84	30958.27
609.99	31044.87
610.15	31091.68
610.30	31232.11
610.46	30794.43
610.61	31328.07
610.76	31388.92
610.92	30817.83
611.07	31377.22
611.23	31103.38
611.38	31007.42
611.54	30984.01
611.69	30888.05
611.84	30698.47
612.00	31079.97
612.15	30749.96
612.31	30911.46
612.46	31005.08
612.62	31187.64
612.77	30969.97
612.92	31150.19
613.08	30951.24
613.23	30852.94
613.39	30934.86
613.54	30473.78
613.69	30904.43
613.85	30307.60
614.00	30684.42
614.15	31065.93
614.31	30703.15
614.46	30677.40
614.62	30806.13
614.77	31105.72
614.92	30822.51
615.08	30892.73
615.23	30700.81
615.38	31136.15
615.54	30532.29
615.69	30232.70
615.84	30464.41
616.00	30511.22
616.15	30452.71
616.30	30597.82
616.46	30672.72
616.61	30508.88
616.76	30630.59
616.92	30597.82
617.07	30347.39
617.22	30244.40
617.37	29900.34
617.53	30316.96
617.68	30508.88
617.83	30637.61
617.99	30246.74
618.14	30314.62
618.29	30281.85
618.45	30253.76
618.60	30424.62
618.75	30370.79
618.90	30204.61
619.06	30698.47
619.21	30256.11
619.36	30396.54
619.51	30464.41
619.67	30103.97
619.82	29961.20
619.97	30340.36
620.12	29984.60
620.28	30078.22
620.43	30316.96
620.58	30511.22
620.73	30199.93
620.89	30508.88
621.04	30707.83
621.19	30288.87
621.34	30185.89
621.49	30019.71
621.65	29993.97
621.80	30120.35
621.95	29984.60
622.10	30328.66
622.25	30122.69
622.41	29982.26
622.56	29727.14
622.71	30176.53
622.86	30167.16
623.01	29923.75
623.16	30087.59
623.32	29771.61
623.47	29596.07
623.62	30005.67
623.77	29832.47
623.92	29593.73
624.07	29848.85
624.23	30087.59
624.38	29872.26
624.53	29993.97
624.68	29806.72
624.83	29825.45
624.98	29813.74
625.13	29261.38
625.29	29813.74
625.44	29926.09
625.59	29546.92
625.74	29869.92
625.89	29572.67
626.04	29439.26
626.19	29441.60
626.34	29399.47
626.49	29364.36
626.65	29830.13
626.80	29364.36
626.95	29539.90
627.10	29308.19
627.25	29233.29
627.40	29450.96
627.55	29235.63
627.70	29287.12
627.85	29507.13
628.00	29010.94
628.15	29095.20
628.30	29078.82
628.45	29282.44
628.60	29027.32
628.76	29139.67
628.91	29387.77
629.06	29282.44
629.21	29301.17
629.36	29085.84
629.51	29310.53
629.66	28711.35
629.81	28713.69
629.96	28849.44
630.11	28907.96
630.26	29041.37
630.41	28844.76
630.56	29226.27
630.71	28774.55
630.86	29104.56
631.01	29146.69
631.16	29195.84
631.31	28563.90
631.46	28734.76
631.61	28837.74
631.76	29104.56
631.91	28652.84
632.06	28697.31
632.21	28772.21
632.36	28861.15
632.51	28570.92
632.66	29153.71
632.81	28959.45
632.96	28753.48
633.10	28732.42
633.25	28716.03
633.40	28580.28
633.55	28662.20
633.70	28395.38
633.85	28477.30
634.00	28472.62
634.15	28531.13
634.30	28467.94
634.45	28421.13
634.60	28554.54
634.75	28477.30
634.90	28271.33
635.05	28786.25
635.19	28591.98
635.34	28655.18
635.49	28978.17
635.64	28407.08
635.79	28404.74
635.94	28411.76
636.09	28512.41
636.24	28313.46
636.39	28268.99
636.53	28252.61
636.68	27978.76
636.83	28479.64
636.98	28266.65
637.13	28395.38
637.28	28336.87
637.43	28610.71
637.57	28222.18
637.72	27793.86
637.87	28247.93
638.02	28371.97
638.17	28034.94
638.32	28013.87
638.46	27880.46
638.61	27845.35
638.76	28039.62
638.91	27718.96
639.06	27625.34
639.20	28222.18
639.35	27854.72
639.50	28144.94
639.65	28535.81
639.80	28151.96
639.94	27948.34
640.09	27950.68
640.24	27747.05
640.39	27630.02
640.54	27847.69
640.68	27833.65
640.83	27679.18
640.98	27604.28
641.13	27632.36
641.27	28168.35
641.42	27887.48
641.57	27545.76
641.72	27850.03
641.86	27498.95
642.01	27363.20
642.16	28011.53
642.31	27571.51
642.45	27681.52
642.60	27372.57
642.75	27030.85
642.90	27300.01
643.04	27379.59
643.19	27505.98
643.34	27529.38
643.48	27410.01
643.63	27218.09
643.78	27475.55
643.93	27346.82
644.07	27358.52
644.22	27248.52
644.37	27129.15
644.51	27442.78
644.66	27452.14
644.81	27274.26
644.95	27470.87
645.10	27311.71
645.25	27232.13
645.39	27431.08
645.54	27278.94
645.69	27180.64
645.83	27297.67
645.98	27190.00
646.13	27255.54
646.27	27091.70
646.42	27328.10
646.57	26993.40
646.71	27321.07
646.86	26944.25
647.00	27157.24
647.15	27040.21
647.30	27021.48
647.44	27253.20
647.59	27159.58
647.74	26890.41
647.88	27147.87
648.03	27171.28
648.17	27220.43
648.32	26789.77
648.47	27555.13
648.61	27072.98
648.76	26881.05
648.90	27194.68
649.05	26962.97
649.20	26780.41
649.34	26501.89
649.49	26930.20
649.63	26473.80
649.78	26974.67
649.92	26536.99
650.07	26939.57
650.21	26705.51
650.36	26565.08
650.51	26752.32
650.65	26930.20
650.80	26532.31
650.94	26569.76
651.09	26707.85
651.23	26328.69
651.38	26422.31
651.52	26478.48
651.67	26567.42
651.81	26050.16
651.96	26415.29
652.10	26532.31
652.25	26546.36
652.39	26558.06
652.54	26635.30
652.68	26705.51
652.83	26607.21
652.97	27035.53
653.12	26497.20
653.26	26206.98
653.41	26349.75
653.55	26113.36
653.70	26221.02
653.84	26499.55
653.99	26197.62
654.13	26515.93
654.27	26597.85
654.42	26106.34
654.56	26160.17
654.71	26527.63
654.85	26686.79
655.00	26457.42
655.14	26148.46
655.29	26010.37
655.43	26387.20
655.57	26085.27
655.72	26188.25
655.86	26228.04
656.01	26204.64
656.15	26211.66
656.30	26043.14
656.44	25699.08
656.58	25703.76
656.73	25916.75
656.87	25907.39
657.01	25909.73
657.16	25530.56
657.30	26293.58
657.45	26045.48
657.59	25937.82
657.73	25633.55
657.88	25659.29
658.02	25776.32
658.16	25633.55
658.31	25748.23
658.45	25701.42
658.60	25748.23
658.74	25666.31
658.88	25511.84
659.03	25647.59
659.17	25825.47
659.31	25619.50
659.46	25439.28
659.60	25689.72
659.74	25575.03
659.89	25252.04
660.03	25640.57
660.17	25390.13
660.32	25401.83
660.46	25085.86
660.60	25607.80
660.74	24999.26
660.89	25202.89
661.03	25263.74
661.17	25195.87
661.32	25577.37
661.46	25331.62
661.60	25245.02
661.74	25376.09
661.89	24924.36
662.03	25172.46
662.17	24891.60
662.31	24877.55
662.46	24868.19
662.60	25032.03
662.74	24755.85
662.88	24690.31
663.03	24772.23
663.17	24900.96
663.31	24531.15
663.45	24549.88
663.60	24538.18
663.74	24381.36
663.88	24758.19
664.02	24304.12
664.17	24844.79
664.31	24393.06
664.45	24264.33
664.59	24709.04
664.73	24187.10
664.88	24844.79
665.02	24507.75
665.16	24236.25
665.30	24397.74
665.44	24388.38
665.59	24194.12
665.73	24379.02
665.87	24009.22
666.01	24205.82
666.15	24512.43
666.29	24238.59
666.44	24159.01
666.58	24044.32
666.72	23810.27
666.86	24079.43
667.00	24341.57
667.14	24039.64
667.28	23754.10
667.43	23899.21
667.57	23770.48
667.71	23836.02
667.85	23831.33
667.99	23744.73
668.13	23733.03
668.27	23892.19
668.41	23447.49
668.56	23358.55
668.70	23569.19
668.84	24011.56
668.98	23307.05
669.12	23695.58
669.26	23550.47
669.40	23374.93
669.54	23356.21
669.68	23047.26
669.82	23307.05
669.96	23140.88
670.10	23103.43
670.25	23164.28
670.39	22913.84
670.53	22817.88
670.67	22689.15
670.81	22752.35
670.95	23058.96
671.09	23091.73
671.23	23236.84
671.37	23049.60
671.51	22794.48
671.65	23129.17
671.79	22640.00
671.93	22911.50
672.07	22768.73
672.21	22775.75
672.35	22249.13
672.49	22249.13
672.63	22387.22
672.77	22363.82
672.91	22239.77
673.05	22642.34
673.19	22359.14
673.33	22331.05
673.47	22199.98
673.61	22389.56
673.75	22246.79
673.89	22178.92
674.03	22370.84
674.17	21757.62
674.31	22036.14
674.45	22022.10
674.59	21898.05
674.73	21909.75
674.87	21848.90
675.01	21795.07
675.15	21537.61
675.29	21558.67
675.43	21497.82
675.56	21668.68
675.70	21575.06
675.84	21734.21
675.98	20922.05
676.12	21495.48
676.26	21628.89
676.40	21338.66
676.54	21343.35
676.68	20835.45
676.82	20891.62
676.96	21076.52
677.10	21291.85
677.23	20872.90
677.37	20805.02
677.51	20908.01
677.65	20676.29
677.79	20716.08
677.93	20486.71
678.07	20219.89
678.21	20397.77
678.34	20568.63
678.48	20154.35
678.62	20273.72
678.76	20372.02
678.90	20084.14
679.04	20283.08
679.18	20290.10
679.31	19896.89
679.45	20100.52
679.59	20004.56
679.73	19714.33
679.87	19950.73
680.00	19452.19
680.14	19623.05
680.28	19506.02
680.42	19641.78
680.56	19639.44
680.70	19620.71
680.83	19358.57
680.97	19506.02
681.11	19569.22
681.25	19435.81
681.39	19239.20
681.52	19183.03
681.66	19171.33
681.80	19040.26
681.94	19019.19
682.07	18916.21
682.21	19138.56
682.35	18860.04
682.49	18721.95
682.62	18462.15
682.76	18408.31
682.90	18881.10
683.04	18815.57
683.17	18300.65
683.31	18600.24
683.45	18649.39
683.59	18471.51
683.72	18377.89
683.86	18230.43
684.00	18090.00
684.13	18099.36
684.27	18356.82
684.41	17909.78
684.55	17774.03
684.68	17954.25
684.82	17579.76
684.96	17701.47
685.09	17657.00
685.23	17893.40
685.37	17909.78
685.50	17724.88
685.64	17582.10
685.78	17675.73
685.91	17736.58
686.05	17767.01
686.19	17575.08
686.32	17631.26
686.46	17092.93
686.60	16851.86
686.73	17132.72
686.87	17123.36
687.01	16704.40
687.14	16772.28
687.28	16695.04
687.42	16489.07
687.55	16816.75
687.69	16739.51
687.82	16748.87
687.96	16695.04
688.10	16545.25
688.23	16510.14
688.37	16692.70
688.50	16374.39
688.64	16465.67
688.78	16217.57
688.91	16238.64
689.05	16229.27
689.18	16004.58
689.32	15831.38
689.46	16079.48
689.59	15955.43
689.73	16013.95
689.86	15901.60
690.00	16037.35
690.13	15552.86
690.27	15566.90
690.41	15988.20
690.54	15651.16
690.68	15702.65
690.81	15709.68
690.95	15297.74
691.08	15700.31
691.22	15648.82
691.35	15492.01
691.49	15267.31
691.62	15241.57
691.76	15105.82
691.89	14726.65
692.03	15166.67
692.16	15021.56
692.30	14738.35
692.43	14717.29
692.57	14696.22
692.70	14600.26
692.84	14438.76
692.97	14757.08
693.11	14443.45
693.24	14431.74
693.38	14436.42
693.51	14616.65
693.65	14555.79
693.78	14015.13
693.92	14324.08
694.05	14031.51
694.19	14106.41
694.32	14146.20
694.45	13909.80
694.59	13844.27
694.72	13710.86
694.86	13764.69
694.99	13528.30
695.13	13682.77
695.26	13685.11
695.39	13671.07
695.53	13619.58
695.66	13589.15
695.80	13582.13
695.93	13324.67
696.07	13406.59
696.20	13390.20
696.33	13420.63
696.47	13226.37
696.60	13132.75
696.73	13174.88
696.87	13139.77
697.00	13081.25
697.14	12924.44
697.27	12870.61
697.40	12886.99
697.54	12922.10
697.67	12837.84
697.80	12585.06
697.94	12582.72
698.07	12622.51
698.21	12306.54
698.34	12578.04
698.47	12437.61
698.61	12439.95
698.74	12545.27
698.87	12201.21
699.01	12273.77
699.14	12152.06
699.27	11929.71
699.40	12140.36
699.54	12084.19
699.67	12109.93
699.80	12098.23
699.94	11667.57
700.07	11943.75
700.20	11632.46
700.34	11485.01
700.47	11665.23
700.60	11826.73
700.73	11679.27
700.87	11562.25
701.00	11410.11
701.13	11592.67
701.26	11534.16
701.40	11534.16
701.53	11463.94
701.66	11367.98
701.79	11433.52
701.93	11150.31
702.06	11276.70
702.19	11077.76
702.32	11030.94
702.46	10946.69
702.59	10759.44
702.72	10967.75
702.85	10946.69
702.99	10729.02
703.12	10644.76
703.25	10537.09
703.38	10635.39
703.51	10841.36
703.65	10839.02
703.78	10551.14
703.91	10396.66
704.04	10429.43
704.17	10544.11
704.31	10289.00
704.44	10356.87
704.57	10164.95
704.70	10164.95
704.83	10061.96
704.96	10228.14
705.10	10073.67
705.23	10125.16
>>>>>End Processed Spectral Data<<<<<
