SpectraSuite Data File
++++++++++++++++++++++++++++++++++++
Date: Fri Oct 18 13:58:11 GMT-05:00 2013
User: bianchi
Dark Spectrum Present: No
Reference Spectrum Present: No
Number of Sampled Component Spectra: 1
Spectrometers: USB2+H05261
Integration Time (usec): 50000 (USB2+H05261)
Spectra Averaged: 1 (USB2+H05261)
Boxcar Smoothing: 0 (USB2+H05261)
Correct for Electrical Dark: No (USB2+H05261)
Strobe/Lamp Enabled: No (USB2+H05261)
Correct for Detector Non-linearity: No (USB2+H05261)
Correct for Stray Light: No (USB2+H05261)
Number of Pixels in Processed Spectrum: 2048
>>>>>Begin Processed Spectral Data<<<<<
365.73	0.00
365.92	0.00
366.12	0.00
366.32	0.00
366.52	0.00
366.72	0.00
366.91	0.00
367.11	0.00
367.31	0.00
367.51	0.00
367.70	0.00
367.90	0.00
368.10	0.00
368.30	0.00
368.49	0.00
368.69	0.00
368.89	0.00
369.09	0.00
369.28	0.00
369.48	0.00
369.68	0.00
369.87	0.00
370.07	0.00
370.27	0.00
370.47	0.00
370.66	163.84
370.86	152.13
371.06	121.71
371.25	98.30
371.45	91.28
371.65	184.90
371.84	119.37
372.04	152.13
372.24	180.22
372.44	215.33
372.63	152.13
372.83	220.01
373.03	220.01
373.22	191.92
373.42	198.95
373.62	168.52
373.81	287.89
374.01	266.82
374.21	227.03
374.40	234.05
374.60	224.69
374.79	215.33
374.99	236.39
375.19	252.78
375.38	215.33
375.58	304.27
375.78	238.73
375.97	299.59
376.17	325.33
376.37	283.20
376.56	280.86
376.76	182.56
376.95	285.55
377.15	255.12
377.35	234.05
377.54	308.95
377.74	224.69
377.93	229.37
378.13	283.20
378.33	330.02
378.52	266.82
378.72	306.61
378.91	243.42
379.11	308.95
379.31	283.20
379.50	334.70
379.70	404.91
379.89	386.19
380.09	255.12
380.28	337.04
380.48	365.12
380.68	346.40
380.87	311.29
381.07	292.57
381.26	388.53
381.46	276.18
381.65	337.04
381.85	280.86
382.04	348.74
382.24	351.08
382.43	299.59
382.63	306.61
382.83	360.44
383.02	318.31
383.22	330.02
383.41	381.51
383.61	276.18
383.80	465.77
384.00	423.64
384.19	425.98
384.39	418.96
384.58	395.55
384.78	407.25
384.97	381.51
385.17	386.19
385.36	390.87
385.56	388.53
385.75	416.62
385.95	315.97
386.14	440.02
386.34	433.00
386.53	435.34
386.72	416.62
386.92	341.72
387.11	454.06
387.31	475.13
387.50	414.27
387.70	416.62
387.89	449.38
388.09	395.55
388.28	395.55
388.48	454.06
388.67	470.45
388.86	409.59
389.06	531.30
389.25	447.04
389.45	416.62
389.64	435.34
389.84	447.04
390.03	449.38
390.22	564.07
390.42	486.83
390.61	484.49
390.81	531.30
391.00	533.64
391.19	482.15
391.39	465.77
391.58	475.13
391.78	557.05
391.97	571.09
392.16	528.96
392.36	524.28
392.55	631.94
392.75	472.79
392.94	566.41
393.13	566.41
393.33	545.34
393.52	519.60
393.71	505.56
393.91	557.05
394.10	582.79
394.29	512.58
394.49	489.17
394.68	585.13
394.88	641.31
395.07	554.71
395.26	688.12
395.46	676.41
395.65	653.01
395.84	622.58
396.04	671.73
396.23	531.30
396.42	676.41
396.62	662.37
396.81	711.52
397.00	704.50
397.19	711.52
397.39	681.10
397.58	774.72
397.77	711.52
397.97	784.08
398.16	777.06
398.35	716.20
398.55	627.26
398.74	709.18
398.93	727.91
399.12	718.54
399.32	758.33
399.51	772.38
399.70	716.20
399.90	711.52
400.09	777.06
400.28	786.42
400.47	814.51
400.67	821.53
400.86	858.98
401.05	758.33
401.24	823.87
401.44	798.12
401.63	926.85
401.82	894.08
402.01	833.23
402.21	755.99
402.40	777.06
402.59	858.98
402.78	882.38
402.97	807.48
403.17	786.42
403.36	826.21
403.55	851.96
403.74	926.85
403.93	931.53
404.13	957.28
404.32	917.49
404.51	866.00
404.70	973.66
404.89	976.00
405.09	1022.81
405.28	997.07
405.47	973.66
405.66	961.96
405.85	978.34
406.05	908.13
406.24	1053.24
406.43	1008.77
406.62	1062.60
406.81	1025.15
407.00	1055.58
407.20	1057.92
407.39	1004.09
407.58	985.37
407.77	987.71
407.96	1074.31
408.15	1034.52
408.34	1083.67
408.54	994.73
408.73	1160.91
408.92	1128.14
409.11	1116.44
409.30	1132.82
409.49	1128.14
409.68	1118.78
409.87	1247.51
410.07	1233.46
410.26	1277.93
410.45	1221.76
410.64	1221.76
410.83	1191.33
411.02	1205.38
411.21	1270.91
411.40	1240.48
411.59	1245.16
411.78	1174.95
411.98	1254.53
412.17	1317.72
412.36	1308.36
412.55	1392.62
412.74	1308.36
412.93	1394.96
413.12	1453.47
413.31	1521.35
413.50	1441.77
413.69	1378.58
413.88	1469.86
414.07	1324.74
414.26	1423.05
414.45	1423.05
414.64	1467.52
414.83	1535.39
415.02	1544.75
415.22	1619.65
415.41	1540.07
415.60	1554.12
415.79	1633.69
415.98	1577.52
416.17	1596.25
416.36	1579.86
416.55	1650.08
416.74	1682.85
416.93	1671.14
417.12	1636.03
417.31	1753.06
417.50	1706.25
417.69	1715.61
417.88	1764.76
418.07	1729.66
418.26	1830.30
418.45	1853.70
418.64	1872.43
418.83	1837.32
419.02	1750.72
419.21	1842.00
419.39	1898.17
419.58	1928.60
419.77	1884.13
419.96	1874.77
420.15	1937.96
420.34	1860.73
420.53	1895.83
420.72	1956.69
420.91	1996.48
421.10	1998.82
421.29	1989.46
421.48	1956.69
421.67	2134.57
421.86	1989.46
422.05	1989.46
422.24	2129.89
422.43	2050.31
422.61	2012.86
422.80	2087.76
422.99	2090.10
423.18	1998.82
423.37	2052.65
423.56	1989.46
423.75	2083.08
423.94	2078.40
424.13	1935.62
424.32	1947.33
424.50	2132.23
424.69	2160.31
424.88	2083.08
425.07	1994.14
425.26	2118.18
425.45	2069.03
425.64	2106.48
425.83	2179.04
426.01	2064.35
426.20	2062.01
426.39	2150.95
426.58	2113.50
426.77	2134.57
426.96	2167.34
427.15	2129.89
427.33	2139.25
427.52	2155.63
427.71	2228.19
427.90	2134.57
428.09	2195.42
428.28	2310.11
428.46	2289.04
428.65	2141.59
428.84	2237.55
429.03	2370.96
429.22	2354.58
429.40	2333.51
429.59	2237.55
429.78	2275.00
429.97	2193.08
430.16	2207.13
430.34	2335.85
430.53	2319.47
430.72	2277.34
430.91	2363.94
431.10	2340.54
431.28	2352.24
431.47	2431.82
431.66	2373.30
431.85	2333.51
432.03	2431.82
432.22	2506.71
432.41	2448.20
432.60	2530.12
432.79	2499.69
432.97	2490.33
433.16	2476.29
433.35	2436.50
433.54	2490.33
433.72	2583.95
433.91	2597.99
434.10	2663.53
434.28	2675.23
434.47	2651.83
434.66	2572.25
434.85	2712.68
435.03	2675.23
435.22	2712.68
435.41	2738.43
435.59	2562.89
435.78	2691.62
435.97	2609.70
436.16	2703.32
436.34	2724.38
436.53	2722.04
436.72	2846.09
436.90	2724.38
437.09	2712.68
437.28	2644.81
437.46	2782.90
437.65	2747.79
437.84	2832.05
438.02	2813.32
438.21	2761.83
438.40	2932.69
438.58	2967.80
438.77	2995.89
438.96	2949.08
439.14	2986.52
439.33	3063.76
439.52	3070.78
439.70	3054.40
439.89	3035.67
440.08	3028.65
440.26	3192.49
440.45	3073.12
440.63	2998.23
440.82	3213.56
441.01	3133.98
441.19	3206.53
441.38	3197.17
441.57	3159.72
441.75	3246.32
441.94	3225.26
442.12	3295.47
442.31	3332.92
442.50	3318.88
442.68	3407.82
442.87	3456.97
443.05	3461.65
443.24	3358.67
443.43	3506.12
443.61	3496.76
443.80	3531.87
443.98	3330.58
444.17	3346.97
444.35	3447.61
444.54	3487.40
444.73	3492.08
444.91	3562.30
445.10	3433.57
445.28	3506.12
445.47	3363.35
445.65	3578.68
445.84	3648.90
446.02	3634.85
446.21	3531.87
446.39	3520.17
446.58	3574.00
446.77	3513.14
446.95	3456.97
447.14	3679.32
447.32	3620.81
447.51	3557.61
447.69	3658.26
447.88	3541.23
448.06	3534.21
448.25	3566.98
448.43	3538.89
448.62	3651.24
448.80	3646.55
448.99	3637.19
449.17	3651.24
449.36	3660.60
449.54	3538.89
449.73	3796.35
449.91	3829.12
450.10	3824.44
450.28	3789.33
450.46	3798.69
450.65	3754.22
450.83	3735.50
451.02	3833.80
451.20	3896.99
451.39	3932.10
451.57	3756.56
451.76	3836.14
451.94	3850.18
452.13	3894.65
452.31	3978.91
452.49	3843.16
452.68	3904.01
452.86	3819.75
453.05	3969.55
453.23	4056.15
453.42	3913.38
453.60	3955.51
453.78	4014.02
453.97	3819.75
454.15	3864.22
454.34	4042.11
454.52	4077.21
454.70	4163.81
454.89	4109.98
455.07	4018.70
455.26	4051.47
455.44	4191.90
455.62	4105.30
455.81	4224.67
455.99	4285.52
456.17	4177.86
456.36	4205.94
456.54	4201.26
456.73	4337.01
456.91	4278.50
457.09	4374.46
457.28	4524.26
457.46	4306.59
457.64	4400.21
457.83	4346.37
458.01	4428.29
458.19	4437.66
458.38	4454.04
458.56	4531.28
458.74	4461.06
458.93	4566.39
459.11	4486.81
459.29	4552.34
459.48	4648.30
459.66	4676.39
459.84	4652.98
460.03	4589.79
460.21	4608.51
460.39	4657.67
460.57	4592.13
460.76	4678.73
460.94	4947.89
461.12	4765.33
461.31	4643.62
461.49	4744.27
461.67	4683.41
461.85	4748.95
462.04	4814.48
462.22	5158.54
462.40	4774.69
462.59	4770.01
462.77	4873.00
462.95	4924.49
463.13	4805.12
463.32	4870.65
463.50	4936.19
463.68	4861.29
463.86	4894.06
464.05	4767.67
464.23	4830.87
464.41	5151.52
464.59	5027.47
464.78	5130.45
464.96	4910.44
465.14	5095.35
465.32	5139.82
465.50	4929.17
465.69	5284.93
465.87	5060.24
466.05	5081.30
466.23	5093.01
466.41	5301.31
466.60	5277.91
466.78	5104.71
466.96	5130.45
467.14	5011.09
467.32	5291.95
467.51	5188.97
467.69	5125.77
467.87	5238.12
468.05	5214.71
468.23	5259.18
468.41	5252.16
468.60	5329.40
468.78	5551.75
468.96	5348.12
469.14	5446.43
469.32	5280.25
469.50	5376.21
469.69	5331.74
469.87	5385.57
470.05	5598.56
470.23	5434.72
470.41	5462.81
470.59	5593.88
470.77	5640.69
470.95	5603.24
471.14	5605.58
471.32	5593.88
471.50	5809.21
471.68	5715.59
471.86	5570.48
472.04	5753.04
472.22	6001.13
472.40	5781.12
472.58	5865.38
472.77	5579.84
472.95	5959.00
473.13	6106.46
473.31	5823.25
473.49	5961.34
473.67	5877.09
473.85	6066.67
474.03	6061.99
474.21	6036.24
474.39	6043.26
474.57	6143.91
474.75	6181.35
474.93	6277.32
475.12	6300.72
475.30	6216.46
475.48	6375.62
475.66	6279.66
475.84	6382.64
476.02	6314.77
476.20	6572.22
476.38	6525.41
476.56	6775.85
476.74	6518.39
476.92	6712.66
477.10	6691.59
477.28	6759.47
477.46	6771.17
477.64	6794.58
477.82	6801.60
478.00	6993.52
478.18	7063.74
478.36	7140.97
478.54	7283.75
478.72	7204.17
478.90	7143.32
479.08	7344.60
479.26	7396.09
479.44	7438.22
479.62	7527.16
479.80	7632.49
479.98	7599.72
480.16	7768.24
480.34	7768.24
480.52	7896.97
480.70	7719.09
480.88	7733.13
481.06	7866.54
481.24	7932.08
481.41	7889.95
481.59	8187.19
481.77	8166.13
481.95	8072.51
482.13	8407.20
482.31	8138.04
482.49	8407.20
482.67	8519.55
482.85	8683.39
483.03	8498.49
483.21	8669.34
483.39	8741.90
483.57	8819.14
483.74	8720.84
483.92	8964.25
484.10	8812.12
484.28	9011.06
484.46	8987.66
484.64	9364.48
484.82	9165.54
485.00	9455.76
485.18	9523.64
485.35	9563.43
485.53	9617.26
485.71	9614.92
485.89	10061.96
486.07	9856.00
486.25	9755.35
486.43	9940.26
486.61	9912.17
486.78	10211.76
486.96	10263.25
487.14	10501.98
487.32	10033.88
487.50	10349.85
487.68	10499.64
487.85	10611.99
488.03	10731.36
488.21	10850.72
488.39	10965.41
488.57	10937.32
488.75	10855.40
488.92	11042.65
489.10	11342.24
489.28	11185.42
489.46	11417.13
489.64	11295.43
489.81	11459.26
489.99	11639.48
490.17	11627.78
490.35	11602.04
490.53	11679.27
490.70	12039.72
490.88	11887.58
491.06	12095.89
491.24	11819.71
491.41	11964.82
491.59	12353.35
491.77	12170.79
491.95	12313.56
492.13	12407.18
492.30	12500.80
492.48	12568.68
492.66	12582.72
492.84	12531.23
493.01	12791.03
493.19	12812.09
493.37	12940.82
493.54	13067.21
493.72	13053.17
493.90	13121.04
494.08	13249.77
494.25	13568.09
494.43	13633.62
494.61	13710.86
494.79	13455.74
494.96	13467.44
495.14	13806.82
495.32	13811.50
495.49	13898.10
495.67	13785.76
495.85	13998.74
496.02	14115.77
496.20	14218.75
496.38	14160.24
496.55	14019.81
496.73	14534.73
496.91	14328.76
497.09	14839.00
497.26	14808.57
497.44	14743.03
497.62	14520.68
497.79	15019.22
497.97	14651.75
498.14	15262.63
498.32	15400.72
498.50	15222.84
498.67	15236.89
498.85	15222.84
499.03	15176.03
499.20	15435.83
499.38	15410.09
499.56	15543.50
499.73	15534.14
499.91	15946.07
500.08	15667.55
500.26	15653.50
500.44	15793.94
500.61	15885.22
500.79	15749.46
500.97	15875.85
501.14	16444.60
501.32	16030.33
501.49	16121.61
501.67	16086.50
501.84	16451.63
502.02	16056.08
502.20	16594.40
502.37	16613.12
502.55	16519.50
502.72	16496.10
502.90	16732.49
503.07	16428.22
503.25	16535.88
503.43	16627.17
503.60	16917.39
503.78	16912.71
503.95	16872.92
504.13	16961.86
504.30	17003.99
504.48	17195.92
504.65	17097.61
504.83	17167.83
505.01	17579.76
505.18	17549.34
505.36	17420.61
505.53	17348.05
505.71	17172.51
505.88	17081.23
506.06	17362.09
506.23	17668.70
506.41	17741.26
506.58	17844.24
506.76	17984.68
506.93	17965.95
507.11	17823.18
507.28	17523.59
507.46	17745.94
507.63	18195.32
507.81	18354.48
507.98	18066.60
508.16	18221.07
508.33	18302.99
508.50	18127.45
508.68	18483.21
508.85	18717.26
509.03	18682.16
509.20	18820.25
509.38	18752.37
509.55	18806.20
509.73	19084.73
509.90	18778.12
510.08	18752.37
510.25	18537.04
510.42	19026.21
510.60	19070.68
510.77	19293.04
510.95	18946.64
511.12	19049.62
511.30	19030.90
511.47	19047.28
511.64	19084.73
511.82	19414.74
511.99	19304.74
512.17	19758.80
512.34	19651.14
512.51	19646.46
512.69	19676.88
512.86	19557.52
513.04	19997.54
513.21	19878.17
513.38	19859.45
513.56	20025.62
513.73	20121.59
513.90	19861.79
514.08	20027.96
514.25	20058.39
514.43	20231.59
514.60	20006.90
514.77	20416.49
514.95	20250.32
515.12	20245.63
515.29	20264.36
515.47	20208.19
515.64	20531.18
515.81	20711.40
515.99	20552.24
516.16	21074.18
516.33	20699.70
516.51	20699.70
516.68	20790.98
516.85	20629.48
517.03	21029.71
517.20	20837.79
517.37	20950.14
517.54	21102.27
517.72	21310.58
517.89	20805.02
518.06	21252.06
518.24	21326.96
518.41	21128.02
518.58	21245.04
518.75	21441.65
518.93	21511.86
519.10	21638.25
519.27	21537.61
519.45	21343.35
519.62	21696.77
519.79	21380.79
519.96	21675.70
520.14	21771.66
520.31	21788.05
520.48	21694.43
520.65	21774.00
520.83	21862.94
521.00	21680.38
521.17	22050.19
521.34	22043.17
521.52	21879.33
521.69	22188.28
521.86	22204.66
522.03	22207.00
522.20	22527.66
522.38	22595.53
522.55	22391.91
522.72	22434.03
522.89	22375.52
523.07	22630.64
523.24	22780.43
523.41	22691.49
523.58	22363.82
523.75	22780.43
523.92	22391.91
524.10	22717.24
524.27	22789.80
524.44	23016.83
524.61	22946.61
524.78	23199.39
524.96	23028.53
525.13	23262.58
525.30	23159.60
525.47	22780.43
525.64	23136.20
525.81	23290.67
525.98	23222.80
526.16	23466.21
526.33	23496.64
526.50	23587.92
526.67	23379.61
526.84	23487.28
527.01	23129.17
527.18	23508.34
527.36	23508.34
527.53	23616.01
527.70	24020.92
527.87	24109.86
528.04	23779.84
528.21	23508.34
528.38	23946.02
528.55	23931.98
528.72	23976.45
528.89	23969.43
529.07	23608.98
529.24	23683.88
529.41	24151.99
529.58	24009.22
529.75	24116.88
529.92	24271.36
530.09	24400.08
530.26	24278.38
530.43	24058.37
530.60	24130.92
530.77	24367.32
530.94	24524.13
531.11	24322.85
531.28	24470.30
531.46	24446.90
531.63	24844.79
531.80	24414.13
531.97	24854.15
532.14	24819.04
532.31	24554.56
532.48	24723.08
532.65	24664.57
532.82	24547.54
532.99	24870.53
533.16	24381.36
533.33	25142.03
533.50	25249.70
533.67	25025.01
533.84	24793.29
534.01	24793.29
534.18	24760.53
534.35	24985.22
534.52	24709.04
534.69	24910.32
534.86	25326.94
535.03	25036.71
535.20	25261.40
535.37	25366.73
535.54	25621.84
535.71	25022.67
535.88	25163.10
536.05	25392.47
536.22	25584.40
536.38	25710.78
536.55	25673.34
536.72	25633.55
536.89	25729.51
537.06	25446.30
537.23	25544.61
537.40	25593.76
537.57	25818.45
537.74	25647.59
537.91	25795.04
538.08	25832.49
538.25	25401.83
538.42	25825.47
538.59	26204.64
538.75	25792.70
538.92	26134.42
539.09	25619.50
539.26	26099.31
539.43	26431.67
539.60	26199.96
539.77	26103.99
539.94	26342.73
540.11	26125.06
540.28	26096.97
540.44	26377.84
540.61	26326.35
540.78	26366.13
540.95	26476.14
541.12	26520.61
541.29	26401.24
541.46	26541.68
541.62	26356.77
541.79	26181.23
541.96	26352.09
542.13	26501.89
542.30	26544.02
542.47	26588.49
542.63	26991.06
542.80	27157.24
542.97	27201.71
543.14	27007.44
543.31	26972.33
543.48	26721.90
543.64	27187.66
543.81	27166.60
543.98	27178.30
544.15	26841.26
544.32	27260.22
544.48	27307.03
544.65	27421.72
544.82	27047.23
544.99	26890.41
545.16	27545.76
545.32	27342.14
545.49	27648.75
545.66	27370.22
545.83	27868.76
546.00	27697.90
546.16	27651.09
546.33	27297.67
546.50	27180.64
546.67	27398.31
546.83	27056.59
547.00	27735.35
547.17	27735.35
547.34	27489.59
547.50	27763.43
547.67	27601.94
547.84	27412.35
548.00	27754.07
548.17	27917.91
548.34	27807.90
548.51	28027.92
548.67	27985.79
548.84	27824.29
549.01	28156.64
549.18	27557.47
549.34	27803.22
549.51	28011.53
549.68	27690.88
549.84	27854.72
550.01	28041.96
550.18	27707.26
550.34	28470.28
550.51	28048.98
550.68	28414.10
550.84	27964.72
551.01	28297.08
551.18	28259.63
551.34	28247.93
551.51	28451.55
551.68	28290.06
551.84	28175.37
552.01	28205.80
552.18	28556.88
552.34	28549.85
552.51	28247.93
552.68	28276.01
552.84	28435.17
553.01	28542.83
553.18	28767.52
553.34	28872.85
553.51	28620.07
553.67	28697.31
553.84	29010.94
554.01	28987.53
554.17	28844.76
554.34	28919.66
554.51	28648.16
554.67	29118.60
554.84	28299.42
555.00	28606.03
555.17	29315.21
555.33	29137.33
555.50	29142.01
555.67	29055.41
555.83	28730.08
556.00	28924.34
556.16	29039.03
556.33	28872.85
556.50	29298.83
556.66	29134.99
556.83	29017.96
556.99	29544.58
557.16	28971.15
557.32	29242.65
557.49	29462.66
557.65	29144.35
557.82	29235.63
557.98	29296.49
558.15	28975.83
558.32	29425.22
558.48	29134.99
558.65	29586.71
558.81	29575.01
558.98	29010.94
559.14	29219.25
559.31	29252.02
559.47	29230.95
559.64	29216.91
559.80	29406.49
559.97	29429.90
560.13	29729.48
560.30	29729.48
560.46	29614.80
560.63	29668.63
560.79	29795.02
560.96	29647.57
561.12	29832.47
561.29	29275.42
561.45	29523.52
561.61	29919.07
561.78	29493.09
561.94	29472.03
562.11	30031.41
562.27	29633.52
562.44	29546.92
562.60	29673.31
562.77	29619.48
562.93	29677.99
563.10	29656.93
563.26	29764.59
563.42	30279.51
563.59	29610.12
563.75	29750.55
563.92	29874.60
564.08	29816.08
564.24	30251.42
564.41	30204.61
564.57	29902.68
564.74	30010.35
564.90	29923.75
565.07	30242.06
565.23	30136.74
565.39	29670.97
565.56	30232.70
565.72	29818.42
565.88	30181.21
566.05	29612.46
566.21	29631.18
566.38	30412.92
566.54	29961.20
566.70	30122.69
566.87	30125.04
567.03	30113.33
567.19	30656.34
567.36	30211.64
567.52	30024.39
567.68	30370.79
567.85	30125.04
568.01	30354.41
568.17	29996.31
568.34	30171.85
568.50	30169.51
568.66	30188.23
568.83	30534.63
568.99	30492.50
569.15	30333.34
569.32	29947.15
569.48	30139.08
569.64	29942.47
569.81	30085.25
569.97	30506.54
570.13	30579.10
570.30	30314.62
570.46	30520.59
570.62	30658.68
570.78	30405.90
570.95	30335.68
571.11	30258.45
571.27	30071.20
571.43	29951.84
571.60	30082.91
571.76	30452.71
571.92	30155.46
572.09	30466.75
572.25	30466.75
572.41	30436.33
572.57	30206.95
572.74	30377.81
572.90	30380.15
573.06	30284.19
573.22	30174.19
573.38	30450.37
573.55	30539.31
573.71	30822.51
573.87	30562.72
574.03	30848.26
574.20	30834.22
574.36	30272.49
574.52	30543.99
574.68	30286.53
574.84	30698.47
575.01	30307.60
575.17	30279.51
575.33	30312.28
575.49	30192.91
575.65	30277.17
575.82	30665.70
575.98	30614.21
576.14	30576.76
576.30	30536.97
576.46	30742.94
576.62	30525.27
576.79	30799.11
576.95	30700.81
577.11	30628.25
577.27	30948.90
577.43	30562.72
577.59	31068.27
577.75	30349.73
577.92	30321.64
578.08	30370.79
578.24	30471.43
578.40	30167.16
578.56	30419.94
578.72	30522.93
578.88	31009.76
579.04	30866.98
579.21	30478.46
579.37	30630.59
579.53	30803.79
579.69	30333.34
579.85	30775.70
580.01	30501.86
580.17	30061.84
580.33	30707.83
580.49	30672.72
580.65	30785.07
580.82	30611.87
580.98	30778.04
581.14	30616.55
581.30	30752.30
581.46	30520.59
581.62	30253.76
581.78	30384.83
581.94	30754.64
582.10	30644.63
582.26	30546.33
582.42	30553.35
582.58	30871.67
582.74	30742.94
582.90	30976.99
583.06	30576.76
583.22	30527.61
583.38	30565.06
583.54	30689.10
583.70	30885.71
583.86	30721.87
584.02	30249.08
584.18	31522.34
584.34	30976.99
584.50	30890.39
584.66	30338.02
584.82	30663.36
584.98	30920.82
585.14	30717.19
585.30	30426.96
585.46	30824.86
585.62	30927.84
585.78	30998.06
585.94	30642.29
586.10	30881.03
586.26	30799.11
586.42	30974.65
586.58	31115.08
586.74	30632.93
586.90	30742.94
587.06	30717.19
587.22	30661.02
587.38	30675.06
587.54	30836.56
587.70	31206.36
587.86	30993.37
588.02	30897.41
588.18	31456.80
588.34	31012.10
588.49	31175.94
588.65	30532.29
588.81	30895.07
588.97	30752.30
589.13	30824.86
589.29	30988.69
589.45	30878.69
589.61	31126.78
589.77	31475.52
589.93	31199.34
590.08	31332.75
590.24	31473.18
590.40	31182.96
590.56	31447.44
590.72	30888.05
590.88	31103.38
591.04	30857.62
591.20	31061.25
591.35	31374.88
591.51	31910.86
591.67	31351.48
591.83	31468.50
591.99	31353.82
592.15	31431.05
592.31	31309.35
592.46	30817.83
592.62	31065.93
592.78	31407.65
592.94	31082.31
593.10	31180.62
593.26	31325.73
593.41	31096.36
593.57	30974.65
593.73	31370.20
593.89	30855.28
594.05	31269.56
594.20	31068.27
594.36	31290.62
594.52	31185.30
594.68	31402.97
594.84	30969.97
594.99	31201.68
595.15	31208.70
595.31	31583.19
595.47	31641.70
595.62	31077.63
595.78	31360.84
595.94	31452.12
596.10	31103.38
596.25	31168.91
596.41	31395.95
596.57	30937.20
596.73	31110.40
596.88	31014.44
597.04	31625.32
597.20	31784.48
597.36	31812.56
597.51	32016.19
597.67	31248.49
597.83	31356.16
597.99	31440.42
598.14	31622.98
598.30	31550.42
598.46	31325.73
598.61	31157.21
598.77	31522.34
598.93	31468.50
599.09	31201.68
599.24	31440.42
599.40	31613.62
599.56	31615.96
599.71	31613.62
599.87	31393.61
600.03	31426.37
600.18	30962.95
600.34	31227.43
600.50	31260.20
600.65	31194.66
600.81	31662.77
600.97	31681.49
601.12	31545.74
601.28	31714.26
601.44	31754.05
601.59	31613.62
601.75	31470.84
601.91	31290.62
602.06	31522.34
602.22	31232.11
602.37	31295.30
602.53	31754.05
602.69	31644.04
602.84	31962.36
603.00	31592.55
603.16	31508.29
603.31	31873.42
603.47	31885.12
603.62	31398.29
603.78	31569.15
603.94	31311.69
604.09	31440.42
604.25	31449.78
604.40	31477.86
604.56	31435.74
604.71	31812.56
604.87	31880.44
605.03	31749.37
605.18	31484.89
605.34	31648.72
605.49	31126.78
605.65	31407.65
605.80	30958.27
605.96	31164.23
606.12	31386.58
606.27	31232.11
606.43	31297.64
606.58	31175.94
606.74	31400.63
606.89	31562.12
607.05	31129.12
607.20	31700.22
607.36	31297.64
607.51	31021.46
607.67	31447.44
607.82	31323.39
607.98	31185.30
608.13	31185.30
608.29	31152.53
608.44	31716.60
608.60	31498.93
608.75	31412.33
608.91	31295.30
609.06	31627.66
609.22	31592.55
609.37	30843.58
609.53	30831.88
609.68	31295.30
609.84	31131.47
609.99	31056.57
610.15	30998.06
610.30	31030.82
610.46	30829.54
610.61	31213.38
610.76	31618.30
610.92	31445.10
611.07	31103.38
611.23	31232.11
611.38	30930.18
611.54	30541.65
611.69	31070.61
611.84	30710.17
612.00	30965.29
612.15	30771.02
612.31	31143.17
612.46	30562.72
612.62	31089.34
612.77	31309.35
612.92	30981.67
613.08	30895.07
613.23	30810.81
613.39	30960.61
613.54	30857.62
613.69	31115.08
613.85	30422.28
614.00	30654.00
614.15	30862.30
614.31	30831.88
614.46	31037.84
614.62	31220.41
614.77	30789.75
614.92	31260.20
615.08	31077.63
615.23	30979.33
615.38	30871.67
615.54	30625.91
615.69	30639.95
615.84	30742.94
616.00	30827.20
616.15	30356.75
616.30	30918.48
616.46	30895.07
616.61	31028.48
616.76	30752.30
616.92	30515.90
617.07	30726.55
617.22	30735.92
617.37	30511.22
617.53	30712.51
617.68	30485.48
617.83	30672.72
617.99	30691.44
618.14	30319.30
618.29	30831.88
618.45	30710.17
618.60	30536.97
618.75	30370.79
618.90	30876.35
619.06	30459.73
619.21	30426.96
619.36	30412.92
619.51	30307.60
619.67	29965.88
619.82	30146.10
619.97	30129.72
620.12	30267.81
620.28	30501.86
620.43	30705.49
620.58	30415.26
620.73	30398.88
620.89	30766.34
621.04	30644.63
621.19	30555.69
621.34	29851.19
621.49	30106.31
621.65	30096.95
621.80	30433.99
621.95	30045.46
622.10	30267.81
622.25	29979.92
622.41	29947.15
622.56	30134.40
622.71	30529.95
622.86	30155.46
623.01	30181.21
623.16	29963.54
623.32	29998.65
623.47	29907.37
623.62	30103.97
623.77	29930.77
623.92	29708.42
624.07	29663.95
624.23	30075.88
624.38	29886.30
624.53	29940.13
624.68	30225.68
624.83	29893.32
624.98	29947.15
625.13	29755.23
625.29	30120.35
625.44	29893.32
625.59	29156.05
625.74	29546.92
625.89	30010.35
626.04	29699.06
626.19	29806.72
626.34	29397.13
626.49	29312.87
626.65	29703.74
626.80	29455.64
626.95	29647.57
627.10	29455.64
627.25	29390.11
627.40	29680.33
627.55	29457.98
627.70	29818.42
627.85	29724.80
628.00	29385.43
628.15	29149.03
628.30	29329.25
628.45	29151.37
628.60	29186.48
628.76	29479.05
628.91	29280.10
629.06	29322.23
629.21	29301.17
629.36	29507.13
629.51	29474.37
629.66	29345.64
629.81	29167.76
629.96	29310.53
630.11	29273.08
630.26	29193.50
630.41	29029.66
630.56	28907.96
630.71	29076.48
630.86	29268.40
631.01	29132.65
631.16	28987.53
631.31	29347.98
631.46	28947.75
631.61	28711.35
631.76	28931.36
631.91	28828.38
632.06	28547.51
632.21	28570.92
632.36	28919.66
632.51	28418.78
632.66	29067.11
632.81	28762.84
632.96	29219.25
633.10	28790.93
633.25	28760.50
633.40	28779.23
633.55	29125.63
633.70	28622.41
633.85	28505.38
634.00	28353.25
634.15	28842.42
634.30	28683.27
634.45	28428.15
634.60	28418.78
634.75	28381.34
634.90	28847.10
635.05	28709.01
635.19	28650.50
635.34	28840.08
635.49	28779.23
635.64	28849.44
635.79	28627.09
635.94	28627.09
636.09	28608.37
636.24	28184.73
636.39	28161.33
636.53	28432.83
636.68	28168.35
636.83	28304.10
636.98	28594.32
637.13	28350.91
637.28	28631.77
637.43	28449.21
637.57	28386.02
637.72	27899.19
637.87	28187.07
638.02	28395.38
638.17	28039.62
638.32	28194.09
638.46	28250.27
638.61	28072.39
638.76	28039.62
638.91	27843.01
639.06	28215.16
639.20	28367.29
639.35	28166.01
639.50	28334.53
639.65	27800.88
639.80	28233.88
639.94	28189.41
640.09	28016.21
640.24	27960.04
640.39	28046.64
640.54	27714.28
640.68	27737.69
640.83	27854.72
640.98	27924.93
641.13	27796.20
641.27	28133.24
641.42	28170.69
641.57	28224.52
641.72	28133.24
641.86	27913.23
642.01	27828.97
642.16	27747.05
642.31	28018.55
642.45	27613.64
642.60	27702.58
642.75	27545.76
642.90	27683.86
643.04	27431.08
643.19	27332.78
643.34	27725.99
643.48	27711.94
643.63	27686.20
643.78	27721.30
643.93	27896.85
644.07	27623.00
644.22	27456.82
644.37	27557.47
644.51	27777.48
644.66	27480.23
644.81	27454.48
644.95	27477.89
645.10	27489.59
645.25	27789.18
645.39	27569.17
645.54	27400.65
645.69	27281.28
645.83	27384.27
645.98	27688.54
646.13	27323.41
646.27	27365.54
646.42	27421.72
646.57	27297.67
646.71	27559.81
646.86	27285.97
647.00	27356.18
647.15	27438.10
647.30	27077.66
647.44	27157.24
647.59	27330.44
647.74	27075.32
647.88	26965.31
648.03	26890.41
648.17	27199.37
648.32	27096.38
648.47	27520.02
648.61	27227.45
648.76	27192.34
648.90	27211.07
649.05	26916.16
649.20	26576.78
649.34	26794.45
649.49	26527.63
649.63	26955.95
649.78	26719.56
649.92	27019.14
650.07	26932.54
650.21	26813.18
650.36	26768.71
650.51	26892.76
650.65	27157.24
650.80	26862.33
650.94	26742.96
651.09	26759.34
651.23	26841.26
651.38	26962.97
651.52	26663.38
651.67	26700.83
651.81	26476.14
651.96	27091.70
652.10	26635.30
652.25	26508.91
652.39	26670.40
652.54	26965.31
652.68	26913.82
652.83	26616.57
652.97	26799.13
653.12	26745.30
653.26	26515.93
653.41	26340.39
653.55	26363.79
653.70	26108.68
653.84	26572.10
653.99	26263.15
654.13	26546.36
654.27	26349.75
654.42	26204.64
654.56	26771.05
654.71	26398.90
654.85	26569.76
655.00	26331.03
655.14	26670.40
655.29	26405.92
655.43	26742.96
655.57	25881.64
655.72	26033.78
655.86	26115.70
656.01	26438.69
656.15	26204.64
656.30	26277.19
656.44	26251.45
656.58	25923.77
656.73	26209.32
656.87	26190.59
657.01	25982.29
657.16	26253.79
657.30	26190.59
657.45	26356.77
657.59	26206.98
657.73	26057.18
657.88	25949.52
658.02	25694.40
658.16	25823.13
658.31	25919.09
658.45	25706.10
658.60	25432.26
658.74	25986.97
658.88	25935.48
659.03	25713.13
659.17	25699.08
659.31	25776.32
659.46	25888.67
659.60	25916.75
659.74	25954.20
659.89	25357.36
660.03	25439.28
660.17	25357.36
660.32	25565.67
660.46	25186.50
660.60	25233.32
660.74	25287.15
660.89	25266.08
661.03	25034.37
661.17	25287.15
661.32	25067.14
661.46	25851.22
661.60	25434.60
661.74	25645.25
661.89	25563.33
662.03	25399.49
662.17	25392.47
662.31	25263.74
662.46	25329.28
662.60	24886.92
662.74	25167.78
662.88	24854.15
663.03	24790.95
663.17	24828.40
663.31	24966.49
663.45	24776.91
663.60	24657.54
663.74	24793.29
663.88	24711.38
664.02	24858.83
664.17	24971.18
664.31	24893.94
664.45	24709.04
664.59	24676.27
664.73	24489.03
664.88	24617.75
665.02	24315.83
665.16	24037.30
665.30	24376.68
665.44	24414.13
665.59	24439.87
665.73	24489.03
665.87	23882.83
666.01	24128.58
666.15	24231.57
666.29	24034.96
666.44	23955.38
666.58	23843.04
666.72	23964.75
666.86	24280.72
667.00	24161.35
667.14	24259.65
667.28	24336.89
667.43	23807.93
667.57	23885.17
667.71	23777.50
667.85	23960.06
667.99	23700.26
668.13	23730.69
668.27	23510.68
668.41	23648.77
668.56	23159.60
668.70	23777.50
668.84	23655.79
668.98	23480.25
669.12	23503.66
669.26	23569.19
669.40	23601.96
669.54	23503.66
669.68	23241.52
669.82	23028.53
669.96	23105.77
670.10	23103.43
670.25	23410.04
670.39	22991.08
670.53	23274.29
670.67	23112.79
670.81	23012.15
670.95	22899.80
671.09	22920.87
671.23	22970.02
671.37	23124.49
671.51	23398.34
671.65	23070.66
671.79	22838.95
671.93	22979.38
672.07	22483.19
672.21	22759.37
672.35	22286.58
672.49	22717.24
672.63	22314.67
672.77	22457.44
672.91	22558.08
673.05	22501.91
673.19	22429.35
673.33	22403.61
673.47	22354.46
673.61	22532.34
673.75	22565.10
673.89	22738.30
674.03	22073.59
674.17	22340.41
674.31	22071.25
674.45	21923.80
674.59	21914.44
674.73	22038.48
674.87	21998.70
675.01	21820.81
675.15	21514.20
675.29	21652.30
675.43	21624.21
675.56	21764.64
675.70	21832.52
675.84	21804.43
675.98	20826.09
676.12	21881.67
676.26	21830.18
676.40	21245.04
676.54	21256.75
676.68	21378.45
676.82	20762.89
676.96	21013.33
677.10	20985.24
677.23	21099.93
677.37	20936.09
677.51	20994.61
677.65	20711.40
677.79	20620.12
677.93	20823.75
678.07	20608.42
678.21	20723.10
678.34	20498.41
678.48	20369.68
678.62	20372.02
678.76	20215.21
678.90	20332.23
679.04	20444.58
679.18	20030.30
679.31	20039.67
679.45	20025.62
679.59	20030.30
679.73	19859.45
679.87	19747.10
680.00	19714.33
680.14	19770.51
680.28	19763.48
680.42	19831.36
680.56	20056.05
680.70	19744.76
680.83	19644.12
680.97	19601.99
681.11	19618.37
681.25	19297.72
681.39	19475.60
681.52	19269.63
681.66	19225.16
681.80	18918.55
681.94	19344.53
682.07	18766.42
682.21	18890.46
682.35	18586.19
682.49	18845.99
682.62	19026.21
682.76	18803.86
682.90	18831.95
683.04	18867.06
683.17	18633.00
683.31	18317.03
683.45	18445.76
683.59	18670.45
683.72	18356.82
683.86	18387.25
684.00	18469.17
684.13	18443.42
684.27	18061.91
684.41	17797.43
684.55	18244.48
684.68	18029.15
684.82	18003.40
684.96	17458.06
685.09	17905.10
685.23	17619.55
685.37	17752.96
685.50	17710.83
685.64	17832.54
685.78	17523.59
685.91	17500.19
686.05	17638.28
686.19	17413.59
686.32	17635.94
686.46	17455.72
686.60	17273.15
686.73	17151.45
686.87	17214.64
687.01	17427.63
687.14	16863.56
687.28	16840.15
687.42	16753.55
687.55	16800.37
687.69	16882.28
687.82	16692.70
687.96	16732.49
688.10	16666.95
688.23	16788.66
688.37	16982.93
688.50	16545.25
688.64	16437.58
688.78	16329.92
688.91	16142.67
689.05	15969.48
689.18	16081.82
689.32	15761.17
689.46	15690.95
689.59	15660.52
689.73	15974.16
689.86	15630.10
690.00	15948.41
690.13	15597.33
690.27	15735.42
690.41	15913.30
690.54	15747.12
690.68	15763.51
690.81	15597.33
690.95	15683.93
691.08	15501.37
691.22	15384.34
691.35	15405.41
691.49	15314.13
691.62	15082.41
691.76	15199.44
691.89	15164.33
692.03	15026.24
692.16	15068.37
692.30	14988.79
692.43	15150.29
692.57	14714.95
692.70	14459.83
692.84	14897.51
692.97	14562.81
693.11	14719.63
693.24	14523.02
693.38	14579.20
693.51	14310.04
693.65	14464.51
693.78	14235.14
693.92	14293.65
694.05	14384.93
694.19	14214.07
694.32	14300.67
694.45	14073.64
694.59	14012.79
694.72	13762.35
694.86	13846.61
694.99	13612.56
695.13	13965.98
695.26	13694.47
695.39	13678.09
695.53	13671.07
695.66	13696.82
695.80	13689.79
695.93	13563.40
696.07	13605.53
696.20	13612.56
696.33	13298.92
696.47	13334.03
696.60	13362.12
696.73	13277.86
696.87	13315.31
697.00	13018.06
697.14	12835.50
697.27	12882.31
697.40	12835.50
697.54	12798.05
697.67	12571.02
697.80	12779.32
697.94	12594.42
698.07	12547.61
698.21	12606.13
698.34	12606.13
698.47	12519.53
698.61	12587.40
698.74	12409.52
698.87	12327.60
699.01	12355.69
699.14	12028.01
699.27	12175.47
699.40	12053.76
699.54	12119.29
699.67	12077.16
699.80	11910.99
699.94	11955.46
700.07	11852.47
700.20	11602.04
700.34	11850.13
700.47	11784.60
700.60	11822.05
700.73	11824.39
700.87	11592.67
701.00	11578.63
701.13	11541.18
701.26	11452.24
701.40	11527.14
701.53	11293.08
701.66	11356.28
701.79	11414.79
701.93	11468.62
702.06	11344.58
702.19	11215.85
702.32	11220.53
702.46	10923.28
702.59	10972.43
702.72	10846.04
702.85	10995.84
702.99	10630.71
703.12	10684.55
703.25	10740.72
703.38	10972.43
703.51	10501.98
703.65	10801.57
703.78	10600.29
703.91	10544.11
704.04	10476.24
704.17	10492.62
704.31	10431.77
704.44	10380.28
704.57	10377.94
704.70	10263.25
704.83	10181.33
704.96	10331.12
705.10	10066.64
705.23	10026.86
>>>>>End Processed Spectral Data<<<<<
