SpectraSuite Data File
++++++++++++++++++++++++++++++++++++
Date: Fri Oct 18 13:57:59 GMT-05:00 2013
User: bianchi
Dark Spectrum Present: No
Reference Spectrum Present: No
Number of Sampled Component Spectra: 1
Spectrometers: USB2+H05261
Integration Time (usec): 50000 (USB2+H05261)
Spectra Averaged: 1 (USB2+H05261)
Boxcar Smoothing: 0 (USB2+H05261)
Correct for Electrical Dark: No (USB2+H05261)
Strobe/Lamp Enabled: No (USB2+H05261)
Correct for Detector Non-linearity: No (USB2+H05261)
Correct for Stray Light: No (USB2+H05261)
Number of Pixels in Processed Spectrum: 2048
>>>>>Begin Processed Spectral Data<<<<<
365.73	0.00
365.92	0.00
366.12	0.00
366.32	0.00
366.52	0.00
366.72	0.00
366.91	0.00
367.11	0.00
367.31	0.00
367.51	0.00
367.70	0.00
367.90	0.00
368.10	0.00
368.30	0.00
368.49	0.00
368.69	0.00
368.89	0.00
369.09	0.00
369.28	0.00
369.48	0.00
369.68	0.00
369.87	0.00
370.07	0.00
370.27	0.00
370.47	0.00
370.66	81.92
370.86	51.49
371.06	145.11
371.25	102.98
371.45	135.75
371.65	145.11
371.84	159.16
372.04	67.88
372.24	163.84
372.44	184.90
372.63	194.26
372.83	142.77
373.03	147.45
373.22	259.80
373.42	222.35
373.62	198.95
373.81	175.54
374.01	212.99
374.21	290.23
374.40	229.37
374.60	276.18
374.79	273.84
374.99	234.05
375.19	208.31
375.38	231.71
375.58	227.03
375.78	231.71
375.97	271.50
376.17	355.76
376.37	243.42
376.56	280.86
376.76	243.42
376.95	297.25
377.15	285.55
377.35	322.99
377.54	318.31
377.74	315.97
377.93	285.55
378.13	280.86
378.33	262.14
378.52	245.76
378.72	259.80
378.91	271.50
379.11	315.97
379.31	308.95
379.50	341.72
379.70	355.76
379.89	269.16
380.09	358.10
380.28	322.99
380.48	290.23
380.68	278.52
380.87	294.91
381.07	386.19
381.26	306.61
381.46	330.02
381.65	278.52
381.85	358.10
382.04	379.17
382.24	367.46
382.43	388.53
382.63	386.19
382.83	292.57
383.02	311.29
383.22	351.08
383.41	308.95
383.61	404.91
383.80	383.85
384.00	456.40
384.19	365.12
384.39	365.12
384.58	374.49
384.78	430.66
384.97	388.53
385.17	299.59
385.36	425.98
385.56	355.76
385.75	423.64
385.95	433.00
386.14	402.57
386.34	416.62
386.53	374.49
386.72	395.55
386.92	442.36
387.11	402.57
387.31	465.77
387.50	491.51
387.70	388.53
387.89	451.72
388.09	421.30
388.28	500.87
388.48	454.06
388.67	458.74
388.86	458.74
389.06	428.32
389.25	449.38
389.45	458.74
389.64	409.59
389.84	521.94
390.03	451.72
390.22	550.03
390.42	456.40
390.61	507.90
390.81	489.17
391.00	456.40
391.19	388.53
391.39	470.45
391.58	587.47
391.78	557.05
391.97	519.60
392.16	521.94
392.36	608.54
392.55	489.17
392.75	603.86
392.94	655.35
393.13	557.05
393.33	575.77
393.52	580.45
393.71	578.11
393.91	594.50
394.10	690.46
394.29	603.86
394.49	617.90
394.68	624.92
394.88	568.75
395.07	723.23
395.26	697.48
395.46	734.93
395.65	681.10
395.84	636.63
396.04	716.20
396.23	683.44
396.42	678.76
396.62	603.86
396.81	636.63
397.00	653.01
397.19	683.44
397.39	713.86
397.58	645.99
397.77	582.79
397.97	599.18
398.16	692.80
398.35	786.42
398.55	667.05
398.74	770.04
398.93	730.25
399.12	716.20
399.32	711.52
399.51	713.86
399.70	849.61
399.90	821.53
400.09	788.76
400.28	826.21
400.47	826.21
400.67	746.63
400.86	753.65
401.05	791.10
401.24	763.01
401.44	828.55
401.63	866.00
401.82	863.66
402.01	819.19
402.21	826.21
402.40	880.04
402.59	835.57
402.78	830.89
402.97	830.89
403.17	828.55
403.36	826.21
403.55	889.40
403.74	837.91
403.93	922.17
404.13	873.02
404.32	950.26
404.51	936.21
404.70	1029.84
404.89	959.62
405.09	898.77
405.28	887.06
405.47	961.96
405.66	1013.45
405.85	983.02
406.05	976.00
406.24	1107.07
406.43	1050.90
406.62	1018.13
406.81	1043.88
407.00	1006.43
407.20	990.05
407.39	1039.20
407.58	1053.24
407.77	1100.05
407.96	1153.88
408.15	1156.22
408.34	1008.77
408.54	1081.33
408.73	1015.79
408.92	1071.97
409.11	1137.50
409.30	1170.27
409.49	1135.16
409.68	1146.86
409.87	1100.05
410.07	1273.25
410.26	1193.67
410.45	1217.08
410.64	1245.16
410.83	1313.04
411.02	1261.55
411.21	1401.98
411.40	1158.57
411.59	1277.93
411.78	1259.21
411.98	1217.08
412.17	1261.55
412.36	1350.49
412.55	1409.00
412.74	1390.28
412.93	1423.05
413.12	1439.43
413.31	1462.83
413.50	1387.94
413.69	1348.15
413.88	1460.49
414.07	1502.62
414.26	1488.58
414.45	1416.02
414.64	1446.45
414.83	1558.80
415.02	1497.94
415.22	1577.52
415.41	1526.03
415.60	1633.69
415.79	1530.71
415.98	1673.48
416.17	1654.76
416.36	1610.29
416.55	1579.86
416.74	1607.95
416.93	1689.87
417.12	1612.63
417.31	1748.38
417.50	1666.46
417.69	1757.74
417.88	1757.74
418.07	1633.69
418.26	1834.98
418.45	1750.72
418.64	1771.79
418.83	1820.94
419.02	1778.81
419.21	1996.48
419.39	1898.17
419.58	1881.79
419.77	1785.83
419.96	1914.56
420.15	1851.36
420.34	1832.64
420.53	1952.01
420.72	2005.84
420.91	1942.64
421.10	2047.97
421.29	2017.54
421.48	2012.86
421.67	2019.88
421.86	1942.64
422.05	1984.77
422.24	1952.01
422.43	2113.50
422.61	2066.69
422.80	2129.89
422.99	2172.02
423.18	2045.63
423.37	2097.12
423.56	2099.46
423.75	2143.93
423.94	2043.29
424.13	1818.60
424.32	1944.99
424.50	2033.93
424.69	2111.16
424.88	2167.34
425.07	1991.80
425.26	2012.86
425.45	2090.10
425.64	2167.34
425.83	2087.76
426.01	2008.18
426.20	2052.65
426.39	2101.80
426.58	2071.37
426.77	2115.84
426.96	2129.89
427.15	2197.76
427.33	2106.48
427.52	2141.59
427.71	2204.78
427.90	2134.57
428.09	2066.69
428.28	2249.25
428.46	2204.78
428.65	2300.75
428.84	2312.45
429.03	2218.83
429.22	2197.76
429.40	2277.34
429.59	2230.53
429.78	2242.23
429.97	2328.83
430.16	2239.89
430.34	2235.21
430.53	2401.39
430.72	2338.20
430.91	2272.66
431.10	2349.90
431.28	2410.75
431.47	2375.64
431.66	2469.27
431.85	2464.58
432.03	2452.88
432.22	2473.95
432.41	2495.01
432.60	2466.92
432.79	2476.29
432.97	2527.78
433.16	2553.52
433.35	2527.78
433.54	2630.76
433.72	2633.10
433.91	2509.05
434.10	2612.04
434.28	2616.72
434.47	2703.32
434.66	2534.80
434.85	2675.23
435.03	2654.17
435.22	2576.93
435.41	2733.75
435.59	2747.79
435.78	2693.96
435.97	2822.69
436.16	2712.68
436.34	2693.96
436.53	2731.41
436.72	2850.77
436.90	2619.06
437.09	2715.02
437.28	2717.36
437.46	2843.75
437.65	2803.96
437.84	2773.53
438.02	2939.71
438.21	2890.56
438.40	2717.36
438.58	2745.45
438.77	2965.46
438.96	2825.03
439.14	3068.44
439.33	3173.77
439.52	2984.18
439.70	2993.55
439.89	2937.37
440.08	3122.27
440.26	3030.99
440.45	3253.34
440.63	3082.49
440.82	3227.60
441.01	3358.67
441.19	3234.62
441.38	3152.70
441.57	3337.60
441.75	3255.69
441.94	3384.41
442.12	3332.92
442.31	3361.01
442.50	3424.20
442.68	3330.58
442.87	3300.16
443.05	3302.50
443.24	3595.06
443.43	3442.93
443.61	3529.53
443.80	3508.46
443.98	3440.59
444.17	3255.69
444.35	3487.40
444.54	3574.00
444.73	3641.87
444.91	3522.51
445.10	3517.83
445.28	3571.66
445.47	3508.46
445.65	3548.25
445.84	3538.89
446.02	3597.40
446.21	3552.93
446.39	3599.74
446.58	3625.49
446.77	3529.53
446.95	3506.12
447.14	3482.72
447.32	3524.85
447.51	3681.66
447.69	3576.34
447.88	3665.28
448.06	3707.41
448.25	3545.91
448.43	3609.11
448.62	3574.00
448.80	3513.14
448.99	3644.21
449.17	3782.31
449.36	3588.04
449.54	3735.50
449.73	3817.41
449.91	3700.39
450.10	3782.31
450.28	3719.11
450.46	3791.67
450.65	3775.28
450.83	3843.16
451.02	3796.35
451.20	3871.25
451.39	3960.19
451.57	3833.80
451.76	3880.61
451.94	3887.63
452.13	3922.74
452.31	4037.42
452.49	3707.41
452.68	3887.63
452.86	3985.93
453.05	4018.70
453.23	3911.04
453.42	4053.81
453.60	3852.52
453.78	4149.77
453.97	3925.08
454.15	4138.07
454.34	3859.54
454.52	4065.51
454.70	4168.49
454.89	4255.09
455.07	4152.11
455.26	4086.58
455.44	4191.90
455.62	4196.58
455.81	4149.77
455.99	4217.65
456.17	4327.65
456.36	4170.83
456.54	4243.39
456.73	4257.43
456.91	4461.06
457.09	4318.29
457.28	4505.53
457.46	4376.80
457.64	4444.68
457.83	4418.93
458.01	4477.44
458.19	4320.63
458.38	4407.23
458.56	4393.19
458.74	4493.83
458.93	4477.44
459.11	4395.53
459.29	4596.81
459.48	4641.28
459.66	4566.39
459.84	4606.17
460.03	4489.15
460.21	4489.15
460.39	4559.36
460.57	4557.02
460.76	4844.91
460.94	4697.46
461.12	4571.07
461.31	4650.64
461.49	4725.54
461.67	4737.24
461.85	4964.28
462.04	4791.08
462.22	5160.88
462.40	4933.85
462.59	4748.95
462.77	4894.06
462.95	4957.25
463.13	4901.08
463.32	4957.25
463.50	4905.76
463.68	4992.36
463.86	4950.23
464.05	4800.44
464.23	4992.36
464.41	5078.96
464.59	4868.31
464.78	5018.11
464.96	5055.56
465.14	5118.75
465.32	5022.79
465.50	4990.02
465.69	5029.81
465.87	5135.14
466.05	5172.58
466.23	5064.92
466.41	5036.83
466.60	5249.82
466.78	5135.14
466.96	5210.03
467.14	5338.76
467.32	5231.10
467.51	5268.55
467.69	5041.51
467.87	5221.74
468.05	5350.46
468.23	5364.51
468.41	5343.44
468.60	5305.99
468.78	5301.31
468.96	5296.63
469.14	5460.47
469.32	5406.64
469.50	5217.05
469.69	5383.23
469.87	5542.39
470.05	5605.58
470.23	5528.35
470.41	5514.30
470.59	5558.77
470.77	5490.90
470.95	5687.50
471.14	5753.04
471.32	5612.60
471.50	5760.06
471.68	5666.44
471.86	5769.42
472.04	5767.08
472.22	5926.24
472.40	5687.50
472.58	5692.18
472.77	5930.92
472.95	5879.43
473.13	5977.73
473.31	6076.03
473.49	6083.05
473.67	5755.38
473.85	6008.16
474.03	6164.97
474.21	6221.14
474.39	6256.25
474.57	6305.40
474.75	6270.30
474.93	6347.53
475.12	6167.31
475.30	6300.72
475.48	6335.83
475.66	6340.51
475.84	6279.66
476.02	6258.59
476.20	6541.80
476.38	6799.26
476.56	6703.29
476.74	6647.12
476.92	6654.14
477.10	6480.94
477.28	6822.66
477.46	6740.74
477.64	6738.40
477.82	6881.18
478.00	7311.83
478.18	7145.66
478.36	7307.15
478.54	7206.51
478.72	7082.46
478.90	7363.33
479.08	7403.11
479.26	7588.02
479.44	7485.03
479.62	7550.57
479.80	7534.18
479.98	7719.09
480.16	7922.71
480.34	7728.45
480.52	7805.69
480.70	7672.28
480.88	7733.13
481.06	8035.06
481.24	7829.09
481.41	7971.86
481.59	8072.51
481.77	8248.05
481.95	8170.81
482.13	8271.45
482.31	8290.18
482.49	8477.42
482.67	8315.92
482.85	8561.68
483.03	8674.03
483.21	8762.97
483.39	8882.33
483.57	8606.15
483.74	8861.27
483.92	8791.05
484.10	8856.59
484.28	9034.47
484.46	9341.08
484.64	9383.21
484.82	8999.36
485.00	9177.24
485.18	9556.41
485.35	9586.83
485.53	9432.36
485.71	9748.33
485.89	9809.19
486.07	9703.86
486.25	9750.67
486.43	9776.42
486.61	10040.90
486.78	10230.48
486.96	10162.61
487.14	10246.87
487.32	10164.95
487.50	10476.24
487.68	10366.23
487.85	10516.03
488.03	10698.59
488.21	10827.32
488.39	10759.44
488.57	10932.64
488.75	10890.51
488.92	11012.22
489.10	11201.80
489.28	11054.35
489.46	11325.85
489.64	11162.01
489.81	11421.81
489.99	11552.88
490.17	11499.05
490.35	11573.95
490.53	11705.02
490.70	11950.78
490.88	12051.42
491.06	12126.32
491.24	11772.89
491.41	12088.87
491.59	12121.63
491.77	12241.00
491.95	12475.06
492.13	12737.20
492.30	12425.90
492.48	12482.08
492.66	12781.67
492.84	12720.81
493.01	13069.55
493.19	12784.01
493.37	13099.98
493.54	13142.11
493.72	13125.72
493.90	12950.18
494.08	13319.99
494.25	13233.39
494.43	13540.00
494.61	13633.62
494.79	13738.94
494.96	13806.82
495.14	13671.07
495.32	13762.35
495.49	13832.57
495.67	13970.66
495.85	14190.67
496.02	14256.20
496.20	14307.69
496.38	14377.91
496.55	14380.25
496.73	14623.67
496.91	14530.05
497.09	14736.01
497.26	14607.28
497.44	14586.22
497.62	14569.83
497.79	14885.81
497.97	14682.18
498.14	15222.84
498.32	15192.42
498.50	15250.93
498.67	15232.21
498.85	15159.65
499.03	15389.02
499.20	15332.85
499.38	15255.61
499.56	15374.98
499.73	15587.97
499.91	15704.99
500.08	15894.58
500.26	15917.98
500.44	15864.15
500.61	15943.73
500.79	16163.74
500.97	16154.38
501.14	16175.44
501.32	16329.92
501.49	16100.55
501.67	16123.95
501.84	16432.90
502.02	16411.84
502.20	16292.47
502.37	16304.17
502.55	16631.85
502.72	16570.99
502.90	16723.13
503.07	16561.63
503.25	16407.16
503.43	16718.45
503.60	17018.04
503.78	17245.07
503.95	16875.26
504.13	16917.39
504.30	17006.33
504.48	17125.70
504.65	17167.83
504.83	17235.70
505.01	17373.80
505.18	17441.67
505.36	17504.87
505.53	17319.96
505.71	17280.18
505.88	17717.86
506.06	17362.09
506.23	17738.92
506.41	17764.67
506.58	17678.07
506.76	18141.49
506.93	17544.66
507.11	17781.05
507.28	17935.53
507.46	17839.56
507.63	18216.39
507.81	17851.27
507.98	18148.51
508.16	18155.54
508.33	18532.36
508.50	18335.76
508.68	18930.25
508.85	18530.02
509.03	18452.78
509.20	18546.40
509.38	18897.49
509.55	18640.03
509.73	18822.59
509.90	18700.88
510.08	18637.69
510.25	18843.65
510.42	18841.31
510.60	19400.70
510.77	18967.70
510.95	19255.59
511.12	19087.07
511.30	19126.86
511.47	19152.60
511.64	19541.13
511.82	19215.80
511.99	19328.14
512.17	19433.47
512.34	19374.95
512.51	19751.78
512.69	19660.50
512.86	19442.83
513.04	20039.67
513.21	20240.95
513.38	20137.97
513.56	19852.42
513.73	19756.46
513.90	19901.58
514.08	19859.45
514.25	20430.54
514.43	19861.79
514.60	20147.33
514.77	20322.87
514.95	20418.83
515.12	20318.19
515.29	20341.60
515.47	20549.90
515.64	20542.88
515.81	20657.57
515.99	20465.64
516.16	20842.47
516.33	20713.74
516.51	20807.36
516.68	20678.63
516.85	20507.77
517.03	21006.31
517.20	20889.28
517.37	21041.42
517.54	21191.21
517.72	20940.77
517.89	21050.78
518.06	21020.35
518.24	21392.50
518.41	21212.28
518.58	21235.68
518.75	21216.96
518.93	21582.08
519.10	21542.29
519.27	21504.84
519.45	21443.99
519.62	21453.35
519.79	21549.31
519.96	21813.79
520.14	21556.33
520.31	21652.30
520.48	21933.16
520.65	21790.39
520.83	21827.84
521.00	21778.68
521.17	21668.68
521.34	21666.34
521.52	21607.83
521.69	22078.27
521.86	22347.44
522.03	22593.19
522.20	22221.05
522.38	22490.21
522.55	22492.55
522.72	22073.59
522.89	22401.27
523.07	22876.40
523.24	22581.49
523.41	22691.49
523.58	22434.03
523.75	22710.22
523.92	22944.27
524.10	22852.99
524.27	22803.84
524.44	22757.03
524.61	22855.33
524.78	23192.37
524.96	22878.74
525.13	22934.91
525.30	23087.04
525.47	22728.94
525.64	22820.22
525.81	23323.44
525.98	23232.16
526.16	23435.78
526.33	23065.98
526.50	23405.36
526.67	23080.02
526.84	23452.17
527.01	23428.76
527.18	23721.33
527.36	23903.89
527.53	23866.44
527.70	23817.29
527.87	23948.36
528.04	23960.06
528.21	24032.62
528.38	23601.96
528.55	23946.02
528.72	23887.51
528.89	24006.87
529.07	23910.91
529.24	23861.76
529.41	24421.15
529.58	24081.77
529.75	24294.76
529.92	23880.49
530.09	24381.36
530.26	24372.00
530.43	24287.74
530.60	24357.96
530.77	24053.69
530.94	24437.53
531.11	24278.38
531.28	24402.43
531.46	24243.27
531.63	24746.48
531.80	24484.34
531.97	24563.92
532.14	24694.99
532.31	24828.40
532.48	24643.50
532.65	24833.08
532.82	24362.64
532.99	24858.83
533.16	25034.37
533.33	25013.31
533.50	25074.16
533.67	24954.79
533.84	24907.98
534.01	25116.29
534.18	24950.11
534.35	25137.35
534.52	25174.80
534.69	25053.09
534.86	25432.26
535.03	25383.11
535.20	25324.60
535.37	25254.38
535.54	25338.64
535.71	25219.27
535.88	25453.33
536.05	25142.03
536.22	25619.50
536.38	25500.14
536.55	26003.35
536.72	25654.61
536.89	25322.26
537.06	25748.23
537.23	25509.50
537.40	25745.89
537.57	25617.16
537.74	25802.07
537.91	25806.75
538.08	26043.14
538.25	25743.55
538.42	25759.94
538.59	26010.37
538.75	25898.03
538.92	25680.36
539.09	26078.25
539.26	26197.62
539.43	26008.03
539.60	26263.15
539.77	26260.81
539.94	26370.82
540.11	26258.47
540.28	26597.85
540.44	26017.40
540.61	26214.00
540.78	26108.68
540.95	26307.62
541.12	26008.03
541.29	26342.73
541.46	26478.48
541.62	25972.92
541.79	26642.32
541.96	26225.70
542.13	26356.77
542.30	26684.45
542.47	26382.52
542.63	26574.44
542.80	26878.71
542.97	26728.92
543.14	27056.59
543.31	26808.50
543.48	26647.00
543.64	27328.10
543.81	26953.61
543.98	27257.88
544.15	27388.95
544.32	27391.29
544.48	27571.51
544.65	27232.13
544.82	27133.83
544.99	26902.12
545.16	27171.28
545.32	27309.37
545.49	27278.94
545.66	27667.47
545.83	27496.61
546.00	27810.25
546.16	27351.50
546.33	27449.80
546.50	27115.11
546.67	27248.52
546.83	27253.20
547.00	27412.35
547.17	27311.71
547.34	27608.96
547.50	27653.43
547.67	27950.68
547.84	27613.64
548.00	27749.39
548.17	27924.93
548.34	28123.88
548.51	28168.35
548.67	27936.63
548.84	27880.46
549.01	28006.85
549.18	28091.11
549.34	28224.52
549.51	28058.34
549.68	28154.30
549.84	27838.33
550.01	27805.56
550.18	27913.23
550.34	27936.63
550.51	28163.67
550.68	28341.55
550.84	28058.34
551.01	28088.77
551.18	27896.85
551.34	28053.66
551.51	28369.63
551.68	28451.55
551.84	28332.18
552.01	28112.17
552.18	28617.73
552.34	27885.14
552.51	28196.43
552.68	28271.33
552.84	28137.92
553.01	28158.99
553.18	28357.93
553.34	28903.28
553.51	28622.41
553.67	28732.42
553.84	29160.73
554.01	28589.64
554.17	28542.83
554.34	28339.21
554.51	28863.49
554.67	28643.48
554.84	28903.28
555.00	28734.76
555.17	29347.98
555.33	28341.55
555.50	28914.98
555.67	28968.81
555.83	29310.53
556.00	29139.67
556.16	28992.22
556.33	28587.30
556.50	28847.10
556.66	28952.43
556.83	28975.83
556.99	28964.13
557.16	29134.99
557.32	29364.36
557.49	29261.38
557.65	28734.76
557.82	29212.23
557.98	28870.51
558.15	29048.39
558.32	29453.30
558.48	29078.82
558.65	29120.95
558.81	29303.51
558.98	29404.15
559.14	29495.43
559.31	29034.35
559.47	29355.00
559.64	29514.16
559.80	29259.04
559.97	29427.56
560.13	29457.98
560.30	29764.59
560.46	29511.81
560.63	29244.99
560.79	29579.69
560.96	29619.48
561.12	29392.45
561.29	29144.35
561.45	29724.80
561.61	29610.12
561.78	29788.00
561.94	29680.33
562.11	29890.98
562.27	30066.52
562.44	29923.75
562.60	29436.92
562.77	29553.94
562.93	29886.30
563.10	30024.39
563.26	29696.72
563.42	29745.87
563.59	29780.98
563.75	29879.28
563.92	29811.40
564.08	29518.84
564.24	29434.58
564.41	29867.58
564.57	29696.72
564.74	29991.62
564.90	30181.21
565.07	29888.64
565.23	29998.65
565.39	30286.53
565.56	30281.85
565.72	29977.58
565.88	29682.67
566.05	29766.93
566.21	29680.33
566.38	29930.77
566.54	29738.85
566.70	30373.13
566.87	30103.97
567.03	30078.22
567.19	30635.27
567.36	30221.00
567.52	30288.87
567.68	30054.82
567.85	30120.35
568.01	30417.60
568.17	29989.28
568.34	30146.10
568.50	30136.74
568.66	30487.82
568.83	30246.74
568.99	30132.06
569.15	29923.75
569.32	30110.99
569.48	29979.92
569.64	30359.09
569.81	30118.01
569.97	30263.13
570.13	30431.65
570.30	30522.93
570.46	30361.43
570.62	29989.28
570.78	30199.93
570.95	30188.23
571.11	30527.61
571.27	30047.80
571.43	30185.89
571.60	30508.88
571.76	30340.36
571.92	30462.07
572.09	30651.66
572.25	30394.20
572.41	30323.98
572.57	30356.75
572.74	30778.04
572.90	30305.26
573.06	30501.86
573.22	30415.26
573.38	30422.28
573.55	30338.02
573.71	30555.69
573.87	30211.64
574.03	30646.97
574.20	30265.47
574.36	30209.29
574.52	30628.25
574.68	30326.32
574.84	30572.08
575.01	30459.73
575.17	30113.33
575.33	30639.95
575.49	30169.51
575.65	30260.79
575.82	30527.61
575.98	30206.95
576.14	30824.86
576.30	30497.18
576.46	30487.82
576.62	30307.60
576.79	30824.86
576.95	30478.46
577.11	30501.86
577.27	30607.19
577.43	30747.62
577.59	30794.43
577.75	30766.34
577.92	30373.13
578.08	30508.88
578.24	30377.81
578.40	30181.21
578.56	30288.87
578.72	30221.00
578.88	31164.23
579.04	30981.67
579.21	30426.96
579.37	30546.33
579.53	30527.61
579.69	30555.69
579.85	30859.96
580.01	30691.44
580.17	30368.45
580.33	30394.20
580.49	30583.78
580.65	31110.40
580.82	30623.57
580.98	31014.44
581.14	30387.18
581.30	31054.23
581.46	30579.10
581.62	30773.36
581.78	30398.88
581.94	30726.55
582.10	30771.02
582.26	30747.62
582.42	31035.50
582.58	30862.30
582.74	30504.20
582.90	30927.84
583.06	30595.48
583.22	30728.89
583.38	30621.23
583.54	30934.86
583.70	30726.55
583.86	31068.27
584.02	30553.35
584.18	30806.13
584.34	31077.63
584.50	30815.49
584.66	30590.80
584.82	30569.74
584.98	30583.78
585.14	30792.09
585.30	30705.49
585.46	30373.13
585.62	30490.16
585.78	30525.27
585.94	30445.69
586.10	30522.93
586.26	31110.40
586.42	30749.96
586.58	30986.35
586.74	30604.84
586.90	30679.74
587.06	30401.22
587.22	30759.32
587.38	30417.60
587.54	31070.61
587.70	30986.35
587.86	31014.44
588.02	31323.39
588.18	31250.83
588.34	31505.95
588.49	30984.01
588.65	30719.53
588.81	30656.34
588.97	30937.20
589.13	31112.74
589.29	31208.70
589.45	30827.20
589.61	30951.24
589.77	31442.76
589.93	31358.50
590.08	31571.49
590.24	31171.25
590.40	31019.12
590.56	31260.20
590.72	30946.56
590.88	30848.26
591.04	31138.49
591.20	31449.78
591.35	30991.03
591.51	31573.83
591.67	31339.77
591.83	31470.84
591.99	31187.64
592.15	31288.28
592.31	31077.63
592.46	30885.71
592.62	30850.60
592.78	31229.77
592.94	30923.16
593.10	30916.14
593.26	31269.56
593.41	31402.97
593.57	31227.43
593.73	31442.76
593.89	31145.51
594.05	31424.03
594.20	31082.31
594.36	31260.20
594.52	30813.15
594.68	31611.28
594.84	31218.07
594.99	31356.16
595.15	31227.43
595.31	31730.64
595.47	31000.40
595.62	31342.11
595.78	31360.84
595.94	31145.51
596.10	31655.75
596.25	31117.42
596.41	30995.71
596.57	31281.26
596.73	31257.85
596.88	31049.55
597.04	31234.45
597.20	31292.96
597.36	31522.34
597.51	31789.16
597.67	31351.48
597.83	31019.12
597.99	31365.52
598.14	31119.76
598.30	31232.11
598.46	31257.85
598.61	31009.76
598.77	31351.48
598.93	31714.26
599.09	31290.62
599.24	31721.28
599.40	31754.05
599.56	31445.10
599.71	31271.90
599.87	31449.78
600.03	31164.23
600.18	31173.60
600.34	31522.34
600.50	31297.64
600.65	31456.80
600.81	31321.05
600.97	31501.27
601.12	31646.38
601.28	31332.75
601.44	31555.10
601.59	31452.12
601.75	31534.04
601.91	31225.09
602.06	31599.57
602.22	31594.89
602.37	31379.56
602.53	31267.22
602.69	31590.21
602.84	31044.87
603.00	31456.80
603.16	31435.74
603.31	31335.09
603.47	31328.07
603.62	31501.27
603.78	31344.45
603.94	31522.34
604.09	31295.30
604.25	31204.02
604.40	31218.07
604.56	31452.12
604.71	31634.68
604.87	31538.72
605.03	31452.12
605.18	31683.83
605.34	31454.46
605.49	31030.82
605.65	31257.85
605.80	31187.64
605.96	31459.14
606.12	31384.24
606.27	31814.90
606.43	31831.29
606.58	31297.64
606.74	31400.63
606.89	31505.95
607.05	31538.72
607.20	31566.81
607.36	31597.23
607.51	31487.23
607.67	31412.33
607.82	30916.14
607.98	31328.07
608.13	31388.92
608.29	31527.02
608.44	31000.40
608.60	31115.08
608.75	31707.24
608.91	31805.54
609.06	31056.57
609.22	31182.96
609.37	30988.69
609.53	30848.26
609.68	31058.91
609.84	30909.11
609.99	31178.28
610.15	30705.49
610.30	30979.33
610.46	30829.54
610.61	31222.75
610.76	31103.38
610.92	31204.02
611.07	30972.31
611.23	31051.89
611.38	30976.99
611.54	30773.36
611.69	30492.50
611.84	30850.60
612.00	30862.30
612.15	31009.76
612.31	31468.50
612.46	30817.83
612.62	31325.73
612.77	30923.16
612.92	31178.28
613.08	31002.74
613.23	31264.88
613.39	30874.01
613.54	30843.58
613.69	30803.79
613.85	30618.89
614.00	30909.11
614.15	30897.41
614.31	30876.35
614.46	30974.65
614.62	30396.54
614.77	30740.60
614.92	30883.37
615.08	31070.61
615.23	30611.87
615.38	30859.96
615.54	30785.07
615.69	30820.17
615.84	30394.20
616.00	30562.72
616.15	30951.24
616.30	30845.92
616.46	30398.88
616.61	30616.55
616.76	30820.17
616.92	30656.34
617.07	30543.99
617.22	30679.74
617.37	30288.87
617.53	30668.04
617.68	30356.75
617.83	30213.98
617.99	30518.25
618.14	30462.07
618.29	30513.56
618.45	30366.11
618.60	30820.17
618.75	30396.54
618.90	30295.89
619.06	30408.24
619.21	30555.69
619.36	30309.94
619.51	30202.27
619.67	30572.08
619.82	29673.31
619.97	30347.39
620.12	29916.73
620.28	30237.38
620.43	30167.16
620.58	30553.35
620.73	30611.87
620.89	30335.68
621.04	30422.28
621.19	30188.23
621.34	30089.93
621.49	29970.56
621.65	30160.14
621.80	29890.98
621.95	30029.07
622.10	30265.47
622.25	30087.59
622.41	29933.11
622.56	30302.92
622.71	30246.74
622.86	30150.78
623.01	30237.38
623.16	29680.33
623.32	29848.85
623.47	29984.60
623.62	29869.92
623.77	29830.13
623.92	29909.71
624.07	29853.53
624.23	30211.64
624.38	29972.90
624.53	30036.09
624.68	30075.88
624.83	30085.25
624.98	29717.78
625.13	29853.53
625.29	30096.95
625.44	29713.10
625.59	29855.87
625.74	29486.07
625.89	29546.92
626.04	29755.23
626.19	29579.69
626.34	29319.89
626.49	29652.25
626.65	29322.23
626.80	29951.84
626.95	29764.59
627.10	29619.48
627.25	29294.14
627.40	29951.84
627.55	29434.58
627.70	29242.65
627.85	29029.66
628.00	28814.34
628.15	29469.69
628.30	29130.31
628.45	29041.37
628.60	29214.57
628.76	29235.63
628.91	29254.36
629.06	29153.71
629.21	29200.52
629.36	29240.31
629.51	29284.78
629.66	29261.38
629.81	29003.92
629.96	29067.11
630.11	29179.46
630.26	28980.51
630.41	29095.20
630.56	29041.37
630.71	29149.03
630.86	29186.48
631.01	29305.85
631.16	29338.62
631.31	28823.70
631.46	29027.32
631.61	28903.28
631.76	29050.73
631.91	28819.02
632.06	28952.43
632.21	28907.96
632.36	28926.68
632.51	28804.97
632.66	28779.23
632.81	28680.92
632.96	28685.61
633.10	28800.29
633.25	28411.76
633.40	28652.84
633.55	29036.69
633.70	28346.23
633.85	28304.10
634.00	28603.69
634.15	28622.41
634.30	28423.47
634.45	28470.28
634.60	28247.93
634.75	28421.13
634.90	28418.78
635.05	28402.40
635.19	28538.15
635.34	28556.88
635.49	28624.75
635.64	28680.92
635.79	28376.66
635.94	28250.27
636.09	28353.25
636.24	28243.24
636.39	28510.07
636.53	28308.78
636.68	28168.35
636.83	28273.67
636.98	28397.72
637.13	28105.15
637.28	28463.25
637.43	28463.25
637.57	28322.82
637.72	28486.66
637.87	28577.94
638.02	28479.64
638.17	28252.61
638.32	28011.53
638.46	28088.77
638.61	27695.56
638.76	27960.04
638.91	28060.68
639.06	28067.70
639.20	27847.69
639.35	27807.90
639.50	27969.40
639.65	28451.55
639.80	28084.09
639.94	27859.40
640.09	28386.02
640.24	27857.06
640.39	28107.49
640.54	27798.54
640.68	27660.45
640.83	28002.17
640.98	27648.75
641.13	27435.76
641.27	27672.15
641.42	27903.87
641.57	27601.94
641.72	28086.43
641.86	27697.90
642.01	27496.61
642.16	27468.53
642.31	27517.68
642.45	27688.54
642.60	27321.07
642.75	27154.90
642.90	27669.81
643.04	27400.65
643.19	27185.32
643.34	27262.56
643.48	27489.59
643.63	27496.61
643.78	27618.32
643.93	27557.47
644.07	27538.74
644.22	27388.95
644.37	27592.58
644.51	27681.52
644.66	27452.14
644.81	27197.02
644.95	27552.79
645.10	27225.11
645.25	27590.24
645.39	27487.25
645.54	26993.40
645.69	27325.75
645.83	27023.83
645.98	27381.93
646.13	27206.39
646.27	27335.12
646.42	27061.27
646.57	27571.51
646.71	27056.59
646.86	26995.74
647.00	26895.10
647.15	27138.51
647.30	26754.66
647.44	27105.74
647.59	27185.32
647.74	27021.48
647.88	27164.26
648.03	26984.04
648.17	27241.50
648.32	27208.73
648.47	27206.39
648.61	26864.67
648.76	26967.65
648.90	27037.87
649.05	26899.78
649.20	26902.12
649.34	26899.78
649.49	26911.48
649.63	26799.13
649.78	26499.55
649.92	26466.78
650.07	26740.62
650.21	26649.34
650.36	26572.10
650.51	26616.57
650.65	26754.66
650.80	27028.51
650.94	26883.39
651.09	26946.59
651.23	26391.88
651.38	26759.34
651.52	26881.05
651.67	26361.45
651.81	26354.43
651.96	26726.58
652.10	26520.61
652.25	26759.34
652.39	26728.92
652.54	26232.72
652.68	26735.94
652.83	26679.77
652.97	26803.82
653.12	26824.88
653.26	26813.18
653.41	26593.17
653.55	26139.10
653.70	26122.72
653.84	26408.26
653.99	26015.05
654.13	26106.34
654.27	26352.09
654.42	26164.85
654.56	26394.22
654.71	26485.50
654.85	26614.23
655.00	26405.92
655.14	26511.25
655.29	26101.65
655.43	26211.66
655.57	25914.41
655.72	25965.90
655.86	26314.64
656.01	26115.70
656.15	25984.63
656.30	26214.00
656.44	26122.72
656.58	25820.79
656.73	25858.24
656.87	26096.97
657.01	25923.77
657.16	26167.19
657.30	26068.89
657.45	25972.92
657.59	25472.05
657.73	26047.82
657.88	25766.96
658.02	26206.98
658.16	25755.26
658.31	25778.66
658.45	25795.04
658.60	25804.41
658.74	25696.74
658.88	25687.38
659.03	25797.38
659.17	25469.71
659.31	25685.04
659.46	25537.59
659.60	25757.60
659.74	25635.89
659.89	25851.22
660.03	25600.78
660.17	25755.26
660.32	25032.03
660.46	25177.14
660.60	25025.01
660.74	25055.43
660.89	25256.72
661.03	25245.02
661.17	25010.96
661.32	25013.31
661.46	25352.68
661.60	25355.02
661.74	25034.37
661.89	25415.88
662.03	25062.46
662.17	25046.07
662.31	24641.16
662.46	24980.54
662.60	24727.76
662.74	25233.32
662.88	24542.86
663.03	24486.68
663.17	24690.31
663.31	24428.17
663.45	24580.31
663.60	24446.90
663.74	24414.13
663.88	24608.39
664.02	24589.67
664.17	24783.93
664.31	24680.95
664.45	24547.54
664.59	24629.46
664.73	24650.52
664.88	24421.15
665.02	24315.83
665.16	24362.64
665.30	24505.41
665.44	24390.72
665.59	24060.71
665.73	24137.94
665.87	24217.52
666.01	24079.43
666.15	24463.28
666.29	24479.66
666.44	24350.93
666.58	24002.19
666.72	23908.57
666.86	23903.89
667.00	24189.44
667.14	23969.43
667.28	23812.61
667.43	24051.34
667.57	23861.76
667.71	23772.82
667.85	23618.35
667.99	23906.23
668.13	23772.82
668.27	23496.64
668.41	23658.14
668.56	23639.41
668.70	23592.60
668.84	23475.57
668.98	23716.65
669.12	23662.82
669.26	23616.01
669.40	23459.19
669.54	23452.17
669.68	23344.50
669.82	23262.58
669.96	23281.31
670.10	22869.37
670.25	22991.08
670.39	23367.91
670.53	22881.08
670.67	22801.50
670.81	22939.59
670.95	22986.40
671.09	23073.00
671.23	22867.03
671.37	23133.86
671.51	22948.95
671.65	23063.64
671.79	22841.29
671.93	22939.59
672.07	22747.67
672.21	22644.68
672.35	22609.58
672.49	22424.67
672.63	22389.56
672.77	22480.85
672.91	22391.91
673.05	22494.89
673.19	22476.16
673.33	22366.16
673.47	22363.82
673.61	22272.54
673.75	22478.50
673.89	22532.34
674.03	22085.30
674.17	22338.07
674.31	21930.82
674.45	21926.14
674.59	21954.22
674.73	22003.38
674.87	21834.86
675.01	21647.61
675.15	21750.60
675.29	21441.65
675.43	21593.78
675.56	21483.78
675.70	21724.85
675.84	21490.80
675.98	20816.72
676.12	21509.52
676.26	21628.89
676.40	21528.25
676.54	21673.36
676.68	21191.21
676.82	20849.49
676.96	21015.67
677.10	20805.02
677.23	20776.94
677.37	20943.11
677.51	20872.90
677.65	20856.51
677.79	20730.12
677.93	20346.28
678.07	20285.42
678.21	20538.20
678.34	20388.41
678.48	20498.41
678.62	20210.53
678.76	20013.92
678.90	20306.49
679.04	19985.83
679.18	20369.68
679.31	19999.88
679.45	19864.13
679.59	19953.07
679.73	19719.01
679.87	19578.58
680.00	19583.26
680.14	19672.20
680.28	19716.67
680.42	19831.36
680.56	19496.66
680.70	19515.39
680.83	19566.88
680.97	19611.35
681.11	19644.12
681.25	19630.07
681.39	19248.57
681.52	19391.34
681.66	19002.81
681.80	19122.18
681.94	18995.79
682.07	18913.87
682.21	18845.99
682.35	18633.00
682.49	18654.07
682.62	18546.40
682.76	18263.20
682.90	18937.27
683.04	18675.13
683.17	18761.73
683.31	18391.93
683.45	18677.48
683.59	18731.31
683.72	18480.87
683.86	18340.44
684.00	18223.41
684.13	18190.64
684.27	17907.44
684.41	18022.12
684.55	17834.88
684.68	17900.42
684.82	17500.19
684.96	17776.37
685.09	17504.87
685.23	17687.43
685.37	17909.78
685.50	17862.97
685.64	17678.07
685.78	17708.49
685.91	17532.95
686.05	17614.87
686.19	17310.60
686.32	17460.40
686.46	17191.23
686.60	17132.72
686.73	16957.18
686.87	16999.31
687.01	17142.08
687.14	16854.20
687.28	16959.52
687.42	16922.07
687.55	16795.68
687.69	16776.96
687.82	16463.33
687.96	16573.33
688.10	16575.67
688.23	16835.47
688.37	16535.88
688.50	16751.21
688.64	16276.09
688.78	16226.93
688.91	16030.33
689.05	16198.85
689.18	16271.40
689.32	15819.68
689.46	15948.41
689.59	16152.04
689.73	15651.16
689.86	16049.05
690.00	16002.24
690.13	15625.42
690.27	15597.33
690.41	15641.80
690.54	15791.59
690.68	15627.76
690.81	15602.01
690.95	15639.46
691.08	15637.12
691.22	15410.09
691.35	15318.81
691.49	15330.51
691.62	15204.12
691.76	14993.47
691.89	14970.07
692.03	14867.08
692.16	14757.08
692.30	14827.29
692.43	14747.72
692.57	15016.88
692.70	14618.99
692.84	14796.87
692.97	14640.05
693.11	14410.68
693.24	14551.11
693.38	14443.45
693.51	14314.72
693.65	14548.77
693.78	14469.19
693.92	14347.48
694.05	14300.67
694.19	14181.31
694.32	14148.54
694.45	14031.51
694.59	13916.83
694.72	13928.53
694.86	13598.51
694.99	13586.81
695.13	13586.81
695.26	13855.97
695.39	13839.59
695.53	13542.34
695.66	13710.86
695.80	13535.32
695.93	13642.98
696.07	13408.93
696.20	13458.08
696.33	13298.92
696.47	13327.01
696.60	13280.20
696.73	13256.79
696.87	13130.41
697.00	13209.98
697.14	13036.78
697.27	12905.71
697.40	12666.98
697.54	12868.27
697.67	12610.81
697.80	12498.46
697.94	12739.54
698.07	12620.17
698.21	12390.80
698.34	12589.74
698.47	12571.02
698.61	12461.01
698.74	12500.80
698.87	12617.83
699.01	12236.32
699.14	12283.13
699.27	12255.04
699.40	12114.61
699.54	12013.97
699.67	12133.34
699.80	11880.56
699.94	11873.54
700.07	11892.26
700.20	11646.51
700.34	11494.37
700.47	11646.51
700.60	11707.36
700.73	11791.62
700.87	11562.25
701.00	11442.88
701.13	11482.67
701.26	11403.09
701.40	11538.84
701.53	11527.14
701.66	11578.63
701.79	11440.54
701.93	11218.19
702.06	11164.36
702.19	11096.48
702.32	10939.66
702.46	11169.04
702.59	10925.62
702.72	10757.10
702.85	10888.17
702.99	10719.65
703.12	10721.99
703.25	10743.06
703.38	10647.10
703.51	10480.92
703.65	10523.05
703.78	10609.65
703.91	10438.79
704.04	10609.65
704.17	10637.73
704.31	10270.27
704.44	10326.44
704.57	10303.04
704.70	10108.77
704.83	10274.95
704.96	10076.01
705.10	9914.51
705.23	10097.07
>>>>>End Processed Spectral Data<<<<<
