SpectraSuite Data File
++++++++++++++++++++++++++++++++++++
Date: Fri Oct 18 13:58:33 GMT-05:00 2013
User: bianchi
Dark Spectrum Present: No
Reference Spectrum Present: No
Number of Sampled Component Spectra: 1
Spectrometers: USB2+H05261
Integration Time (usec): 50000 (USB2+H05261)
Spectra Averaged: 1 (USB2+H05261)
Boxcar Smoothing: 0 (USB2+H05261)
Correct for Electrical Dark: No (USB2+H05261)
Strobe/Lamp Enabled: No (USB2+H05261)
Correct for Detector Non-linearity: No (USB2+H05261)
Correct for Stray Light: No (USB2+H05261)
Number of Pixels in Processed Spectrum: 2048
>>>>>Begin Processed Spectral Data<<<<<
365.73	0.00
365.92	0.00
366.12	0.00
366.32	0.00
366.52	0.00
366.72	0.00
366.91	0.00
367.11	0.00
367.31	0.00
367.51	0.00
367.70	0.00
367.90	0.00
368.10	0.00
368.30	0.00
368.49	0.00
368.69	0.00
368.89	0.00
369.09	0.00
369.28	0.00
369.48	0.00
369.68	0.00
369.87	0.00
370.07	0.00
370.27	0.00
370.47	0.00
370.66	65.54
370.86	74.90
371.06	156.82
371.25	180.22
371.45	133.41
371.65	175.54
371.84	145.11
372.04	81.92
372.24	184.90
372.44	100.64
372.63	187.24
372.83	224.69
373.03	177.88
373.22	133.41
373.42	222.35
373.62	227.03
373.81	241.08
374.01	227.03
374.21	161.50
374.40	203.63
374.60	245.76
374.79	327.68
374.99	255.12
375.19	287.89
375.38	205.97
375.58	294.91
375.78	222.35
375.97	205.97
376.17	252.78
376.37	241.08
376.56	243.42
376.76	189.58
376.95	212.99
377.15	259.80
377.35	273.84
377.54	311.29
377.74	259.80
377.93	248.10
378.13	173.20
378.33	334.70
378.52	313.63
378.72	339.38
378.91	278.52
379.11	285.55
379.31	351.08
379.50	327.68
379.70	360.44
379.89	278.52
380.09	290.23
380.28	229.37
380.48	248.10
380.68	287.89
380.87	327.68
381.07	339.38
381.26	322.99
381.46	311.29
381.65	381.51
381.85	334.70
382.04	383.85
382.24	339.38
382.43	346.40
382.63	355.76
382.83	337.04
383.02	409.59
383.22	393.21
383.41	301.93
383.61	395.55
383.80	383.85
384.00	372.15
384.19	374.49
384.39	381.51
384.58	360.44
384.78	388.53
384.97	358.10
385.17	386.19
385.36	374.49
385.56	337.04
385.75	379.17
385.95	428.32
386.14	388.53
386.34	423.64
386.53	402.57
386.72	381.51
386.92	418.96
387.11	484.49
387.31	435.34
387.50	379.17
387.70	369.80
387.89	362.78
388.09	346.40
388.28	376.83
388.48	421.30
388.67	463.43
388.86	463.43
389.06	418.96
389.25	421.30
389.45	440.02
389.64	428.32
389.84	458.74
390.03	437.68
390.22	514.92
390.42	479.81
390.61	465.77
390.81	395.55
391.00	533.64
391.19	484.49
391.39	566.41
391.58	458.74
391.78	526.62
391.97	479.81
392.16	507.90
392.36	524.28
392.55	561.73
392.75	554.71
392.94	496.19
393.13	585.13
393.33	519.60
393.52	540.66
393.71	510.24
393.91	582.79
394.10	470.45
394.29	540.66
394.49	503.22
394.68	622.58
394.88	606.20
395.07	559.39
395.26	692.80
395.46	713.86
395.65	601.52
395.84	627.26
396.04	622.58
396.23	603.86
396.42	589.82
396.62	702.16
396.81	620.24
397.00	732.59
397.19	622.58
397.39	641.31
397.58	634.29
397.77	613.22
397.97	699.82
398.16	671.73
398.35	760.67
398.55	690.46
398.74	702.16
398.93	702.16
399.12	760.67
399.32	653.01
399.51	725.57
399.70	667.05
399.90	730.25
400.09	713.86
400.28	758.33
400.47	779.40
400.67	763.01
400.86	770.04
401.05	734.93
401.24	723.23
401.44	798.12
401.63	741.95
401.82	697.48
402.01	798.12
402.21	770.04
402.40	821.53
402.59	809.83
402.78	823.87
402.97	847.27
403.17	812.17
403.36	826.21
403.55	915.15
403.74	814.51
403.93	873.02
404.13	929.19
404.32	929.19
404.51	837.91
404.70	821.53
404.89	919.83
405.09	905.79
405.28	1020.47
405.47	823.87
405.66	1018.13
405.85	983.02
406.05	966.64
406.24	964.30
406.43	973.66
406.62	952.60
406.81	1013.45
407.00	1032.18
407.20	964.30
407.39	1067.28
407.58	1020.47
407.77	1048.56
407.96	1071.97
408.15	1093.03
408.34	1032.18
408.54	987.71
408.73	1172.61
408.92	1102.39
409.11	1130.48
409.30	1071.97
409.49	1095.37
409.68	1111.75
409.87	1235.80
410.07	1200.69
410.26	1146.86
410.45	1167.93
410.64	1090.69
410.83	1116.44
411.02	1226.44
411.21	1284.95
411.40	1196.01
411.59	1233.46
411.78	1188.99
411.98	1249.85
412.17	1224.10
412.36	1266.23
412.55	1336.45
412.74	1401.98
412.93	1364.53
413.12	1277.93
413.31	1378.58
413.50	1423.05
413.69	1406.66
413.88	1444.11
414.07	1444.11
414.26	1507.30
414.45	1406.66
414.64	1439.43
414.83	1554.12
415.02	1519.01
415.22	1495.60
415.41	1610.29
415.60	1502.62
415.79	1500.28
415.98	1650.08
416.17	1568.16
416.36	1547.09
416.55	1598.59
416.74	1488.58
416.93	1600.93
417.12	1607.95
417.31	1554.12
417.50	1673.48
417.69	1724.97
417.88	1617.31
418.07	1781.15
418.26	1739.02
418.45	1703.91
418.64	1858.39
418.83	1706.25
419.02	1799.87
419.21	1755.40
419.39	1872.43
419.58	1823.28
419.77	1732.00
419.96	1895.83
420.15	1888.81
420.34	1746.04
420.53	1795.19
420.72	1912.22
420.91	1949.67
421.10	1907.54
421.29	1935.62
421.48	1900.52
421.67	1909.88
421.86	1881.79
422.05	1923.92
422.24	2024.56
422.43	2001.16
422.61	1980.09
422.80	1987.11
422.99	1982.43
423.18	2040.95
423.37	2057.33
423.56	2043.29
423.75	2062.01
423.94	2001.16
424.13	1802.21
424.32	1949.67
424.50	2092.44
424.69	2057.33
424.88	2022.22
425.07	2050.31
425.26	1977.75
425.45	1886.47
425.64	2090.10
425.83	2017.54
426.01	2059.67
426.20	2057.33
426.39	2045.63
426.58	2106.48
426.77	2155.63
426.96	2150.95
427.15	2132.23
427.33	2188.40
427.52	2108.82
427.71	2235.21
427.90	2129.89
428.09	2242.23
428.28	2214.15
428.46	2146.27
428.65	2190.74
428.84	2174.36
429.03	2251.60
429.22	2179.04
429.40	2237.55
429.59	2258.62
429.78	2246.91
429.97	2118.18
430.16	2310.11
430.34	2356.92
430.53	2387.35
430.72	2361.60
430.91	2345.22
431.10	2326.49
431.28	2312.45
431.47	2354.58
431.66	2263.30
431.85	2289.04
432.03	2356.92
432.22	2459.90
432.41	2464.58
432.60	2509.05
432.79	2417.77
432.97	2427.14
433.16	2434.16
433.35	2483.31
433.54	2555.86
433.72	2342.88
433.91	2471.61
434.10	2560.55
434.28	2602.68
434.47	2448.20
434.66	2539.48
434.85	2537.14
435.03	2551.18
435.22	2495.01
435.41	2616.72
435.59	2595.65
435.78	2635.44
435.97	2789.92
436.16	2710.34
436.34	2710.34
436.53	2700.98
436.72	2757.15
436.90	2726.72
437.09	2750.13
437.28	2623.74
437.46	2738.43
437.65	2712.68
437.84	2719.70
438.02	2745.45
438.21	2731.41
438.40	2747.79
438.58	2883.54
438.77	2801.62
438.96	2796.94
439.14	3028.65
439.33	2883.54
439.52	2923.33
439.70	2850.77
439.89	2986.52
440.08	2913.97
440.26	3129.30
440.45	3030.99
440.63	3077.80
440.82	3101.21
441.01	3080.14
441.19	3145.68
441.38	3171.43
441.57	3119.93
441.75	3206.53
441.94	3199.51
442.12	3234.62
442.31	3370.37
442.50	3262.71
442.68	3265.05
442.87	3337.60
443.05	3222.92
443.24	3403.14
443.43	3410.16
443.61	3386.76
443.80	3548.25
443.98	3363.35
444.17	3269.73
444.35	3255.69
444.54	3403.14
444.73	3295.47
444.91	3386.76
445.10	3356.33
445.28	3386.76
445.47	3459.31
445.65	3419.52
445.84	3396.12
446.02	3440.59
446.21	3471.01
446.39	3393.78
446.58	3417.18
446.77	3478.04
446.95	3407.82
447.14	3454.63
447.32	3468.67
447.51	3438.25
447.69	3480.38
447.88	3545.91
448.06	3386.76
448.25	3480.38
448.43	3463.99
448.62	3581.02
448.80	3576.34
448.99	3527.19
449.17	3566.98
449.36	3468.67
449.54	3555.27
449.73	3700.39
449.91	3674.64
450.10	3634.85
450.28	3674.64
450.46	3740.18
450.65	3698.05
450.83	3845.50
451.02	3716.77
451.20	3815.07
451.39	3822.09
451.57	3660.60
451.76	3571.66
451.94	3850.18
452.13	4018.70
452.31	3831.46
452.49	3854.86
452.68	3861.88
452.86	3894.65
453.05	3882.95
453.23	3985.93
453.42	3875.93
453.60	3861.88
453.78	3894.65
453.97	3941.46
454.15	3836.14
454.34	3882.95
454.52	3894.65
454.70	3943.80
454.89	4030.40
455.07	4021.04
455.26	4016.36
455.44	4152.11
455.62	3971.89
455.81	3960.19
455.99	4093.60
456.17	4098.28
456.36	4135.73
456.54	4145.09
456.73	4252.75
456.91	4170.83
457.09	4208.28
457.28	4198.92
457.46	4222.33
457.64	4416.59
457.83	4301.90
458.01	4173.18
458.19	4440.00
458.38	4215.30
458.56	4435.32
458.74	4430.63
458.93	4451.70
459.11	4393.19
459.29	4528.94
459.48	4498.51
459.66	4507.87
459.84	4505.53
460.03	4519.57
460.21	4531.28
460.39	4622.56
460.57	4662.35
460.76	4463.40
460.94	4697.46
461.12	4535.96
461.31	4542.98
461.49	4573.41
461.67	4652.98
461.85	4683.41
462.04	4772.35
462.22	4760.65
462.40	4758.31
462.59	4592.13
462.77	4617.88
462.95	4699.80
463.13	4610.86
463.32	4730.22
463.50	4959.60
463.68	4912.78
463.86	4856.61
464.05	4788.74
464.23	4786.40
464.41	4905.76
464.59	4854.27
464.78	4997.04
464.96	4858.95
465.14	4748.95
465.32	5111.73
465.50	4990.02
465.69	5039.17
465.87	4947.89
466.05	5057.90
466.23	4938.53
466.41	5050.88
466.60	5200.67
466.78	5018.11
466.96	4938.53
467.14	4961.94
467.32	5212.37
467.51	5240.46
467.69	5022.79
467.87	5153.86
468.05	5174.92
468.23	5102.37
468.41	5090.67
468.60	5076.62
468.78	4992.36
468.96	5018.11
469.14	5242.80
469.32	5481.53
469.50	5170.24
469.69	5364.51
469.87	5397.28
470.05	5364.51
470.23	5334.08
470.41	5350.46
470.59	5408.98
470.77	5385.57
470.95	5359.83
471.14	5518.98
471.32	5540.05
471.50	5563.45
471.68	5493.24
471.86	5549.41
472.04	5741.33
472.22	5692.18
472.40	5734.31
472.58	5753.04
472.77	5783.46
472.95	5680.48
473.13	6033.90
473.31	5799.85
473.49	5834.96
473.67	5783.46
473.85	5860.70
474.03	5961.34
474.21	5844.32
474.39	6071.35
474.57	6005.81
474.75	6197.74
474.93	6207.10
475.12	6080.71
475.30	6171.99
475.48	6169.65
475.66	6188.38
475.84	6335.83
476.02	6532.44
476.20	6225.82
476.38	6415.41
476.56	6373.28
476.74	6593.29
476.92	6544.14
477.10	6392.00
477.28	6581.59
477.46	6658.82
477.64	6640.10
477.82	6822.66
478.00	6991.18
478.18	6810.96
478.36	6846.07
478.54	7129.27
478.72	7002.88
478.90	7105.87
479.08	7155.02
479.26	7269.70
479.44	7433.54
479.62	7342.26
479.80	7368.01
479.98	7356.30
480.16	7356.30
480.34	7414.82
480.52	7433.54
480.70	7674.62
480.88	7712.07
481.06	7777.60
481.24	7482.69
481.41	7733.13
481.59	7908.67
481.77	7847.82
481.95	7976.55
482.13	8121.66
482.31	8112.30
482.49	8528.91
482.67	8182.51
482.85	8510.19
483.03	8341.67
483.21	8580.40
483.39	8386.14
483.57	8442.31
483.74	8809.78
483.92	8468.06
484.10	8779.35
484.28	8788.71
484.46	9020.42
484.64	8917.44
484.82	8891.70
485.00	8961.91
485.18	9231.07
485.35	9507.26
485.53	9420.66
485.71	9291.93
485.89	9806.84
486.07	9460.45
486.25	9668.75
486.43	9554.07
486.61	9619.60
486.78	9671.09
486.96	10012.81
487.14	9893.44
487.32	10211.76
487.50	10094.73
487.68	10125.16
487.85	10174.31
488.03	10525.39
488.21	10546.45
488.39	10427.09
488.57	10736.04
488.75	10682.20
488.92	10909.24
489.10	10939.66
489.28	10939.66
489.46	11023.92
489.64	11173.72
489.81	11248.61
489.99	11192.44
490.17	11325.85
490.35	11421.81
490.53	11396.07
490.70	11604.38
490.88	11419.47
491.06	11885.24
491.24	11609.06
491.41	11616.08
491.59	11728.42
491.77	11948.43
491.95	12002.27
492.13	12463.35
492.30	12236.32
492.48	12360.37
492.66	12201.21
492.84	12503.14
493.01	12386.12
493.19	12582.72
493.37	12643.57
493.54	12652.94
493.72	12776.98
493.90	12800.39
494.08	12915.08
494.25	13097.64
494.43	13170.19
494.61	13004.02
494.79	13165.51
494.96	13149.13
495.14	13474.46
495.32	13481.49
495.49	13617.24
495.67	13521.27
495.85	13703.84
496.02	13877.04
496.20	13654.69
496.38	13900.44
496.55	13877.04
496.73	14176.62
496.91	13888.74
497.09	14223.44
497.26	14249.18
497.44	14167.26
497.62	14342.80
497.79	14394.29
497.97	14497.28
498.14	14534.73
498.32	14803.89
498.50	14497.28
498.67	14890.49
498.85	14899.85
499.03	14717.29
499.20	14831.97
499.38	14853.04
499.56	14991.13
499.73	15398.38
499.91	15138.58
500.08	15484.98
500.26	15124.54
500.44	15414.77
500.61	15403.07
500.79	15307.10
500.97	15618.39
501.14	15726.06
501.32	15674.57
501.49	15765.85
501.67	15747.12
501.84	15756.49
502.02	15831.38
502.20	15976.50
502.37	16095.86
502.55	16112.25
502.72	16074.80
502.90	16365.03
503.07	16233.96
503.25	16322.90
503.43	16222.25
503.60	16250.34
503.78	16442.26
503.95	16222.25
504.13	16252.68
504.30	16540.57
504.48	16566.31
504.65	16805.05
504.83	16683.34
505.01	16994.63
505.18	16580.36
505.36	16910.37
505.53	16847.18
505.71	17050.80
505.88	16786.32
506.06	16910.37
506.23	17078.89
506.41	17130.38
506.58	17319.96
506.76	17460.40
506.93	17186.55
507.11	17216.98
507.28	17270.81
507.46	17642.96
507.63	17694.45
507.81	17654.66
507.98	17717.86
508.16	17645.30
508.33	17785.73
508.50	17867.65
508.68	17614.87
508.85	18024.47
509.03	17994.04
509.20	18008.08
509.38	18232.77
509.55	18120.43
509.73	18071.28
509.90	18300.65
510.08	18408.31
510.25	18361.50
510.42	18733.65
510.60	18354.48
510.77	18682.16
510.95	18815.57
511.12	18380.23
511.30	18333.42
511.47	18525.34
511.64	18808.54
511.82	19115.16
511.99	18867.06
512.17	19253.25
512.34	18967.70
512.51	18761.73
512.69	19360.91
512.86	19234.52
513.04	19335.17
513.21	19363.25
513.38	19379.64
513.56	19491.98
513.73	19480.28
513.90	19426.45
514.08	19435.81
514.25	19838.38
514.43	19644.12
514.60	19594.96
514.77	19520.07
514.95	19800.93
515.12	19747.10
515.29	19854.76
515.47	19880.51
515.64	19887.53
515.81	19840.72
515.99	19878.17
516.16	20140.31
516.33	20320.53
516.51	20425.86
516.68	20088.82
516.85	19791.57
517.03	20144.99
517.20	20465.64
517.37	20343.94
517.54	20266.70
517.72	20587.35
517.89	20617.78
518.06	20147.33
518.24	20444.58
518.41	20376.70
518.58	20545.22
518.75	20561.61
518.93	20814.38
519.10	20563.95
519.27	20915.03
519.45	20891.62
519.62	20884.60
519.79	20975.88
519.96	21135.04
520.14	20926.73
520.31	21010.99
520.48	21399.52
520.65	21158.44
520.83	21537.61
521.00	21221.64
521.17	21376.11
521.34	21142.06
521.52	21514.20
521.69	21406.54
521.86	21729.53
522.03	21771.66
522.20	21479.10
522.38	21525.91
522.55	21600.80
522.72	21542.29
522.89	22010.40
523.07	21916.78
523.24	21905.07
523.41	22118.06
523.58	21537.61
523.75	21876.99
523.92	21963.59
524.10	22068.91
524.27	22209.34
524.44	22579.15
524.61	22515.95
524.78	22345.09
524.96	22071.25
525.13	22508.93
525.30	22469.14
525.47	22328.71
525.64	22778.09
525.81	22602.55
525.98	22740.64
526.16	22511.27
526.33	22801.50
526.50	23065.98
526.67	22480.85
526.84	22897.46
527.01	22644.68
527.18	22764.05
527.36	23168.96
527.53	22974.70
527.70	23206.41
527.87	23051.94
528.04	23033.21
528.21	22927.89
528.38	23171.30
528.55	23108.11
528.72	23288.33
528.89	23405.36
529.07	23311.74
529.24	23267.27
529.41	23330.46
529.58	23454.51
529.75	23171.30
529.92	23220.45
530.09	23461.53
530.26	23529.41
530.43	23459.19
530.60	23456.85
530.77	23571.54
530.94	23716.65
531.11	23630.05
531.28	23339.82
531.46	23726.01
531.63	23971.77
531.80	23407.70
531.97	23992.83
532.14	23800.91
532.31	23782.18
532.48	24002.19
532.65	24135.60
532.82	24060.71
532.99	23999.85
533.16	24032.62
533.33	24350.93
533.50	24318.17
533.67	24233.91
533.84	23536.43
534.01	24357.96
534.18	24322.85
534.35	24196.46
534.52	24297.10
534.69	24416.47
534.86	24793.29
535.03	24210.50
535.20	24599.03
535.37	24414.13
535.54	24739.46
535.71	24329.87
535.88	24552.22
536.05	24313.48
536.22	24720.74
536.38	25020.33
536.55	24741.80
536.72	24877.55
536.89	24849.47
537.06	24744.14
537.23	25027.35
537.40	24790.95
537.57	24643.50
537.74	24945.43
537.91	25181.82
538.08	25287.15
538.25	24851.81
538.42	25359.70
538.59	25333.96
538.75	24964.15
538.92	25174.80
539.09	25167.78
539.26	25331.62
539.43	25603.12
539.60	25495.46
539.77	25113.95
539.94	25565.67
540.11	25317.57
540.28	25647.59
540.44	25647.59
540.61	25591.42
540.78	25343.32
540.95	25387.79
541.12	25383.11
541.29	25469.71
541.46	25872.28
541.62	25666.31
541.79	25977.61
541.96	25350.34
542.13	25362.04
542.30	25675.68
542.47	25998.67
542.63	25900.37
542.80	25963.56
542.97	26279.54
543.14	26211.66
543.31	26108.68
543.48	26045.48
543.64	26405.92
543.81	26206.98
543.98	26293.58
544.15	26602.53
544.32	26279.54
544.48	26553.38
544.65	26431.67
544.82	26494.86
544.99	26237.41
545.16	26405.92
545.32	26429.33
545.49	26810.84
545.66	26604.87
545.83	26754.66
546.00	26794.45
546.16	26375.50
546.33	26377.84
546.50	25944.84
546.67	26293.58
546.83	26707.85
547.00	26642.32
547.17	26939.57
547.34	26426.99
547.50	26934.88
547.67	26544.02
547.84	27077.66
548.00	27094.04
548.17	27431.08
548.34	27070.64
548.51	27218.09
548.67	27339.80
548.84	27332.78
549.01	27283.62
549.18	27356.18
549.34	27264.90
549.51	27276.60
549.68	27379.59
549.84	27140.85
550.01	27407.67
550.18	27206.39
550.34	27770.46
550.51	27508.32
550.68	27470.87
550.84	27077.66
551.01	27433.42
551.18	27573.85
551.34	26934.88
551.51	27646.41
551.68	27281.28
551.84	27669.81
552.01	27695.56
552.18	27630.02
552.34	27318.73
552.51	27548.11
552.68	27122.13
552.84	27728.33
553.01	28102.81
553.18	27529.38
553.34	27859.40
553.51	27803.22
553.67	27758.75
553.84	27948.34
554.01	27990.47
554.17	27683.86
554.34	28048.98
554.51	27564.49
554.67	28004.51
554.84	28210.48
555.00	28013.87
555.17	27878.12
555.33	28135.58
555.50	27953.02
555.67	27740.03
555.83	28290.06
556.00	27775.14
556.16	28182.39
556.33	28074.73
556.50	28140.26
556.66	28418.78
556.83	27981.10
556.99	28428.15
557.16	28489.00
557.32	28226.86
557.49	28074.73
557.65	27831.31
557.82	28170.69
557.98	28350.91
558.15	28594.32
558.32	28524.11
558.48	28472.62
558.65	28397.72
558.81	27981.10
558.98	28666.88
559.14	28746.46
559.31	28505.38
559.47	28381.34
559.64	28563.90
559.80	28467.94
559.97	28563.90
560.13	28659.86
560.30	28411.76
560.46	28486.66
560.63	28840.08
560.79	28692.63
560.96	28591.98
561.12	28725.39
561.29	28453.89
561.45	28540.49
561.61	28701.99
561.78	28870.51
561.94	28730.08
562.11	29001.58
562.27	28613.05
562.44	28830.72
562.60	28444.53
562.77	28788.59
562.93	28643.48
563.10	28823.70
563.26	29006.26
563.42	29450.96
563.59	28669.22
563.75	28957.11
563.92	29099.88
564.08	28369.63
564.24	28863.49
564.41	28783.91
564.57	28819.02
564.74	28699.65
564.90	28676.24
565.07	29095.20
565.23	29298.83
565.39	29329.25
565.56	29415.85
565.72	28875.19
565.88	28898.59
566.05	29001.58
566.21	28788.59
566.38	29046.05
566.54	29186.48
566.70	29216.91
566.87	29216.91
567.03	28701.99
567.19	29488.41
567.36	29050.73
567.52	28994.56
567.68	29113.92
567.85	29172.44
568.01	29612.46
568.17	28542.83
568.34	29298.83
568.50	29256.70
568.66	28975.83
568.83	29610.12
568.99	29069.45
569.15	29144.35
569.32	29298.83
569.48	29109.24
569.64	29268.40
569.81	29362.02
569.97	29142.01
570.13	29645.23
570.30	28861.15
570.46	29546.92
570.62	29097.54
570.78	28903.28
570.95	29385.43
571.11	29053.07
571.27	28776.89
571.43	29249.67
571.60	29467.34
571.76	29134.99
571.92	29654.59
572.09	29322.23
572.25	29640.54
572.41	29516.50
572.57	29434.58
572.74	29621.82
572.90	29429.90
573.06	29528.20
573.22	29345.64
573.38	29418.19
573.55	29207.55
573.71	29378.40
573.87	29577.35
574.03	29263.72
574.20	29465.00
574.36	28994.56
574.52	29422.87
574.68	29163.08
574.84	29326.91
575.01	29324.57
575.17	29415.85
575.33	29153.71
575.49	29273.08
575.65	29635.86
575.82	29462.66
575.98	29406.49
576.14	29724.80
576.30	29483.73
576.46	29638.20
576.62	29518.84
576.79	29563.31
576.95	29441.60
577.11	29500.11
577.27	29399.47
577.43	29663.95
577.59	29654.59
577.75	29649.91
577.92	29305.85
578.08	29376.06
578.24	29516.50
578.40	29624.16
578.56	29448.62
578.72	29741.19
578.88	29893.32
579.04	30160.14
579.21	29532.88
579.37	29663.95
579.53	29600.76
579.69	29371.38
579.85	29722.46
580.01	29434.58
580.17	29371.38
580.33	29670.97
580.49	29776.30
580.65	29722.46
580.82	29886.30
580.98	29537.56
581.14	29600.76
581.30	29876.94
581.46	29556.28
581.62	29830.13
581.78	29577.35
581.94	29916.73
582.10	29340.96
582.26	29441.60
582.42	29549.26
582.58	29759.91
582.74	29848.85
582.90	29827.79
583.06	29720.12
583.22	29834.81
583.38	29589.05
583.54	29378.40
583.70	29596.07
583.86	29596.07
584.02	29556.28
584.18	30008.01
584.34	30059.50
584.50	29907.37
584.66	29457.98
584.82	29418.19
584.98	29668.63
585.14	29687.36
585.30	29720.12
585.46	29757.57
585.62	29504.79
585.78	29556.28
585.94	29446.28
586.10	29961.20
586.26	29720.12
586.42	30026.73
586.58	29722.46
586.74	29652.25
586.90	29448.62
587.06	29235.63
587.22	29755.23
587.38	29500.11
587.54	29731.83
587.70	30230.36
587.86	30031.41
588.02	29687.36
588.18	29799.70
588.34	29905.02
588.49	29640.54
588.65	29881.62
588.81	29319.89
588.97	30171.85
589.13	29830.13
589.29	30106.31
589.45	30005.67
589.61	30015.03
589.77	30506.54
589.93	30136.74
590.08	29975.24
590.24	30108.65
590.40	30153.12
590.56	30333.34
590.72	29439.26
590.88	29860.55
591.04	30129.72
591.20	30129.72
591.35	30129.72
591.51	30003.33
591.67	30560.37
591.83	30270.15
591.99	30284.19
592.15	30412.92
592.31	29923.75
592.46	29769.27
592.62	29991.62
592.78	29954.18
592.94	30085.25
593.10	29937.79
593.26	30515.90
593.41	29876.94
593.57	30115.67
593.73	30316.96
593.89	30368.45
594.05	30239.72
594.20	30082.91
594.36	30171.85
594.52	29764.59
594.68	30089.93
594.84	30206.95
594.99	29996.31
595.15	30565.06
595.31	30600.16
595.47	30309.94
595.62	30522.93
595.78	30129.72
595.94	30267.81
596.10	30382.49
596.25	30075.88
596.41	29841.83
596.57	29638.20
596.73	29816.08
596.88	30068.86
597.04	30448.03
597.20	30618.89
597.36	30312.28
597.51	30412.92
597.67	30373.13
597.83	30637.61
597.99	30354.41
598.14	29675.65
598.30	30199.93
598.46	30426.96
598.61	30047.80
598.77	30106.31
598.93	30260.79
599.09	30756.98
599.24	30504.20
599.40	30955.93
599.56	30319.30
599.71	29909.71
599.87	30675.06
600.03	30146.10
600.18	30068.86
600.34	29912.05
600.50	30218.66
600.65	30443.35
600.81	30845.92
600.97	30455.05
601.12	30822.51
601.28	30527.61
601.44	30263.13
601.59	30335.68
601.75	30345.05
601.91	30820.17
602.06	30232.70
602.22	30548.67
602.37	30033.75
602.53	30300.58
602.69	30323.98
602.84	30300.58
603.00	30522.93
603.16	30279.51
603.31	30515.90
603.47	30572.08
603.62	30504.20
603.78	30368.45
603.94	30492.50
604.09	30134.40
604.25	30153.12
604.40	30305.26
604.56	30354.41
604.71	30485.48
604.87	30279.51
605.03	30302.92
605.18	30487.82
605.34	30129.72
605.49	30108.65
605.65	29883.96
605.80	29872.26
605.96	30061.84
606.12	30113.33
606.27	30284.19
606.43	29914.39
606.58	30382.49
606.74	29977.58
606.89	30342.70
607.05	30052.48
607.20	30120.35
607.36	29914.39
607.51	30209.29
607.67	29919.07
607.82	30082.91
607.98	30073.54
608.13	29916.73
608.29	30305.26
608.44	30071.20
608.60	30132.06
608.75	30583.78
608.91	30377.81
609.06	29975.24
609.22	30586.12
609.37	29886.30
609.53	29979.92
609.68	29881.62
609.84	30118.01
609.99	29905.02
610.15	30094.61
610.30	30089.93
610.46	30050.14
610.61	30396.54
610.76	29579.69
610.92	29935.45
611.07	30120.35
611.23	29624.16
611.38	29968.22
611.54	29523.52
611.69	29905.02
611.84	29876.94
612.00	29876.94
612.15	29652.25
612.31	30155.46
612.46	29729.48
612.62	29951.84
612.77	29612.46
612.92	30197.59
613.08	29567.99
613.23	29825.45
613.39	29881.62
613.54	29790.34
613.69	29633.52
613.85	29752.89
614.00	29799.70
614.15	29640.54
614.31	29577.35
614.46	29912.05
614.62	29446.28
614.77	30003.33
614.92	29621.82
615.08	29350.32
615.23	29731.83
615.38	29769.27
615.54	29284.78
615.69	29504.79
615.84	29537.56
616.00	29476.71
616.15	29436.92
616.30	29511.81
616.46	29514.16
616.61	29207.55
616.76	29575.01
616.92	29659.27
617.07	29589.05
617.22	29397.13
617.37	29289.46
617.53	29539.90
617.68	29392.45
617.83	29326.91
617.99	29317.55
618.14	29125.63
618.29	29205.20
618.45	29195.84
618.60	29249.67
618.75	29912.05
618.90	28872.85
619.06	29268.40
619.21	29429.90
619.36	29455.64
619.51	28914.98
619.67	28914.98
619.82	28943.06
619.97	28917.32
620.12	29064.77
620.28	29205.20
620.43	29268.40
620.58	29614.80
620.73	29446.28
620.89	29347.98
621.04	29149.03
621.19	29102.22
621.34	29020.30
621.49	29097.54
621.65	28931.36
621.80	29043.71
621.95	29142.01
622.10	28954.77
622.25	28786.25
622.41	28666.88
622.56	28486.66
622.71	29050.73
622.86	28933.70
623.01	28769.86
623.16	28650.50
623.32	28201.11
623.47	28833.06
623.62	28900.94
623.77	29261.38
623.92	28847.10
624.07	28790.93
624.23	28692.63
624.38	29001.58
624.53	29064.77
624.68	28959.45
624.83	28603.69
624.98	28900.94
625.13	28470.28
625.29	28884.55
625.44	28397.72
625.59	28758.16
625.74	28175.37
625.89	28166.01
626.04	28547.51
626.19	28428.15
626.34	28884.55
626.49	28252.61
626.65	28531.13
626.80	28451.55
626.95	28350.91
627.10	28254.95
627.25	28437.51
627.40	28156.64
627.55	27962.38
627.70	28046.64
627.85	28264.31
628.00	28327.50
628.15	28341.55
628.30	28261.97
628.45	28095.79
628.60	28158.99
628.76	28329.84
628.91	28453.89
629.06	28142.60
629.21	28198.77
629.36	28238.56
629.51	28154.30
629.66	28030.26
629.81	27784.50
629.96	27896.85
630.11	27929.61
630.26	28091.11
630.41	28088.77
630.56	27498.95
630.71	28112.17
630.86	27861.74
631.01	27992.81
631.16	27660.45
631.31	27997.49
631.46	27992.81
631.61	28107.49
631.76	27938.97
631.91	27950.68
632.06	27545.76
632.21	27730.67
632.36	27690.88
632.51	27367.88
632.66	28079.41
632.81	27744.71
632.96	28016.21
633.10	27730.67
633.25	27653.43
633.40	27807.90
633.55	27545.76
633.70	27716.62
633.85	27786.84
634.00	27529.38
634.15	27421.72
634.30	27468.53
634.45	27599.60
634.60	27435.76
634.75	27541.08
634.90	26934.88
635.05	27690.88
635.19	27632.36
635.34	27571.51
635.49	27660.45
635.64	27693.22
635.79	27576.19
635.94	27309.37
636.09	27295.33
636.24	27543.42
636.39	27166.60
636.53	27243.84
636.68	27489.59
636.83	27515.34
636.98	27283.62
637.13	27075.32
637.28	27452.14
637.43	27037.87
637.57	27192.34
637.72	27044.89
637.87	27211.07
638.02	27159.58
638.17	27283.62
638.32	26834.24
638.46	26796.79
638.61	27185.32
638.76	26752.32
638.91	26923.18
639.06	26991.06
639.20	27117.45
639.35	27407.67
639.50	26969.99
639.65	27190.00
639.80	27513.00
639.94	27065.96
640.09	26927.86
640.24	26747.64
640.39	26792.11
640.54	26881.05
640.68	26745.30
640.83	26735.94
640.98	26529.97
641.13	26700.83
641.27	26944.25
641.42	26654.02
641.57	26827.22
641.72	27072.98
641.86	26735.94
642.01	26696.15
642.16	26583.80
642.31	26426.99
642.45	26539.33
642.60	26651.68
642.75	26492.52
642.90	26466.78
643.04	26394.22
643.19	26525.29
643.34	26717.22
643.48	26415.29
643.63	26553.38
643.78	26527.63
643.93	26398.90
644.07	26611.89
644.22	26801.47
644.37	26141.44
644.51	26169.53
644.66	26277.19
644.81	26462.10
644.95	26157.83
645.10	26092.29
645.25	26295.92
645.39	26541.68
645.54	26064.21
645.69	26078.25
645.83	26319.32
645.98	25883.98
646.13	26293.58
646.27	26448.05
646.42	26321.66
646.57	26431.67
646.71	26047.82
646.86	25909.73
647.00	26260.81
647.15	26073.57
647.30	26253.79
647.44	25893.35
647.59	26012.71
647.74	25881.64
647.88	26239.75
648.03	26286.56
648.17	25912.07
648.32	26052.50
648.47	26246.77
648.61	25731.85
648.76	26380.18
648.90	26176.55
649.05	26267.83
649.20	25891.01
649.34	25736.53
649.49	25642.91
649.63	25788.02
649.78	25699.08
649.92	25558.65
650.07	26101.65
650.21	25783.34
650.36	25579.71
650.51	25909.73
650.65	25998.67
650.80	25979.95
650.94	25249.70
651.09	25570.35
651.23	25537.59
651.38	25481.41
651.52	25582.06
651.67	25603.12
651.81	25504.82
651.96	25790.36
652.10	25376.09
652.25	25661.63
652.39	25649.93
652.54	25434.60
652.68	25783.34
652.83	25326.94
652.97	25558.65
653.12	25853.56
653.26	25186.50
653.41	25448.64
653.55	25441.62
653.70	25343.32
653.84	25280.13
653.99	25209.91
654.13	25092.88
654.27	25172.46
654.42	25020.33
654.56	25333.96
654.71	25411.20
654.85	25109.27
655.00	25467.37
655.14	25200.55
655.29	25252.04
655.43	25179.48
655.57	25273.10
655.72	25078.84
655.86	25294.17
656.01	25338.64
656.15	24863.51
656.30	25268.42
656.44	24992.24
656.58	24884.58
656.73	25081.18
656.87	25046.07
657.01	25242.68
657.16	25013.31
657.30	25050.75
657.45	25254.38
657.59	24875.21
657.73	25163.10
657.88	24961.81
658.02	24765.21
658.16	24769.89
658.31	24671.59
658.45	24797.98
658.60	24383.70
658.74	24692.65
658.88	24393.06
659.03	24456.26
659.17	24896.28
659.31	24119.22
659.46	24868.19
659.60	24568.60
659.74	24863.51
659.89	24538.18
660.03	24561.58
660.17	24418.81
660.32	24463.28
660.46	24320.51
660.60	24320.51
660.74	24343.91
660.89	24245.61
661.03	23850.06
661.17	23981.13
661.32	24306.46
661.46	24353.27
661.60	24116.88
661.74	24407.11
661.89	24144.97
662.03	24287.74
662.17	24034.96
662.31	23922.62
662.46	24084.11
662.60	24276.04
662.74	23906.23
662.88	23634.73
663.03	23758.78
663.17	23857.08
663.31	23367.91
663.45	23484.94
663.60	23580.90
663.74	23742.39
663.88	23564.51
664.02	23274.29
664.17	23772.82
664.31	23779.84
664.45	23616.01
664.59	23606.64
664.73	23625.37
664.88	23393.65
665.02	23349.18
665.16	23285.99
665.30	23578.56
665.44	23379.61
665.59	23030.87
665.73	23016.83
665.87	22918.53
666.01	23379.61
666.15	23222.80
666.29	23337.48
666.44	22946.61
666.58	22796.82
666.72	23000.44
666.86	22991.08
667.00	23405.36
667.14	23222.80
667.28	22918.53
667.43	22815.54
667.57	22883.42
667.71	22717.24
667.85	22450.42
667.99	22862.35
668.13	22707.88
668.27	22637.66
668.41	22916.19
668.56	22780.43
668.70	22930.23
668.84	22860.01
668.98	22787.46
669.12	22869.37
669.26	22441.06
669.40	22150.83
669.54	22375.52
669.68	22644.68
669.82	22258.49
669.96	22419.99
670.10	22127.42
670.25	22345.09
670.39	22497.23
670.53	22192.96
670.67	21898.05
670.81	22195.30
670.95	21958.91
671.09	22101.68
671.23	22160.19
671.37	22115.72
671.51	21752.94
671.65	21935.50
671.79	22033.80
671.93	21832.52
672.07	21898.05
672.21	21685.06
672.35	21422.92
672.49	21593.78
672.63	21397.18
672.77	21495.48
672.91	21329.30
673.05	21383.13
673.19	21242.70
673.33	21467.39
673.47	21390.16
673.61	21481.44
673.75	21092.91
673.89	21404.20
674.03	20900.98
674.17	21249.72
674.31	21118.65
674.45	21102.27
674.59	21032.05
674.73	20908.01
674.87	21081.21
675.01	20943.11
675.15	21106.95
675.29	20545.22
675.43	20596.71
675.56	20807.36
675.70	20418.83
675.84	20664.59
675.98	20144.99
676.12	20582.67
676.26	20542.88
676.40	20336.91
676.54	20582.67
676.68	20231.59
676.82	19936.68
676.96	20194.14
677.10	19969.45
677.23	20051.37
677.37	19845.40
677.51	19859.45
677.65	20166.06
677.79	19599.65
677.93	19889.87
678.07	19833.70
678.21	19697.95
678.34	19616.03
678.48	19662.84
678.62	19445.17
678.76	19723.69
678.90	19424.11
679.04	19405.38
679.18	19274.31
679.31	19250.91
679.45	19431.13
679.59	19173.67
679.73	19143.24
679.87	19147.92
680.00	19080.05
680.14	19213.46
680.28	18817.91
680.42	18665.77
680.56	18918.55
680.70	19012.17
680.83	18731.31
680.97	18532.36
681.11	18827.27
681.25	18677.48
681.39	18466.83
681.52	18707.90
681.66	18530.02
681.80	18417.68
681.94	18368.52
682.07	18424.70
682.21	18242.14
682.35	18057.23
682.49	17923.82
682.62	17727.22
682.76	17867.65
682.90	17893.40
683.04	17919.14
683.17	17455.72
683.31	17972.97
683.45	18040.85
683.59	17649.98
683.72	17912.12
683.86	17675.73
684.00	17806.80
684.13	17488.48
684.27	17289.54
684.41	17334.01
684.55	17099.95
684.68	17137.40
684.82	16720.79
684.96	16678.66
685.09	17055.48
685.23	16800.37
685.37	16936.12
685.50	16926.75
685.64	16823.77
685.78	16954.84
685.91	16809.73
686.05	16603.76
686.19	16673.98
686.32	16898.67
686.46	16549.93
686.60	16205.87
686.73	16248.00
686.87	16439.92
687.01	16325.24
687.14	15836.06
687.28	16175.44
687.42	16009.26
687.55	15887.56
687.69	16128.63
687.82	15892.24
687.96	16210.55
688.10	16095.86
688.23	16013.95
688.37	15838.41
688.50	15765.85
688.64	15775.21
688.78	15845.43
688.91	15564.56
689.05	15667.55
689.18	15454.56
689.32	15236.89
689.46	15239.23
689.59	15213.48
689.73	15260.29
689.86	14963.04
690.00	15183.06
690.13	15269.66
690.27	14934.96
690.41	15105.82
690.54	14857.72
690.68	14836.66
690.81	14691.54
690.95	14909.21
691.08	14834.32
691.22	14743.03
691.35	14691.54
691.49	14885.81
691.62	14754.74
691.76	14525.36
691.89	14469.19
692.03	14459.83
692.16	14214.07
692.30	13970.66
692.43	14150.88
692.57	14022.15
692.70	14087.68
692.84	13989.38
692.97	13996.40
693.11	14281.95
693.24	13935.55
693.38	14043.21
693.51	13947.25
693.65	13650.00
693.78	13788.10
693.92	13752.99
694.05	13760.01
694.19	13603.19
694.32	13514.25
694.45	13640.64
694.59	13256.79
694.72	13195.94
694.86	13212.32
694.99	13132.75
695.13	13228.71
695.26	13249.77
695.39	13064.87
695.53	12940.82
695.66	13118.70
695.80	13062.53
695.93	12964.23
696.07	12683.36
696.20	12566.34
696.33	13092.96
696.47	12594.42
696.60	12627.19
696.73	12580.38
696.87	12606.13
697.00	12528.89
697.14	12489.10
697.27	12278.45
697.40	12262.07
697.54	12400.16
697.67	12229.30
697.80	11899.28
697.94	12135.68
698.07	11957.80
698.21	11875.88
698.34	11992.90
698.47	12285.47
698.61	11852.47
698.74	11758.85
698.87	11885.24
699.01	11468.62
699.14	11702.68
699.27	11655.87
699.40	11566.93
699.54	11747.15
699.67	11375.00
699.80	11346.92
699.94	11339.90
700.07	11377.34
700.20	11410.11
700.34	11215.85
700.47	11300.11
700.60	11274.36
700.73	11461.60
700.87	11227.55
701.00	11037.97
701.13	11119.89
701.26	11138.61
701.40	10846.04
701.53	11080.10
701.66	11037.97
701.79	10918.60
701.93	11033.29
702.06	10911.58
702.19	10635.39
702.32	10623.69
702.46	10633.05
702.59	10494.96
702.72	10321.76
702.85	10359.21
702.99	10586.24
703.12	10352.19
703.25	10345.17
703.38	10296.02
703.51	10251.55
703.65	10099.41
703.78	10097.07
703.91	9907.49
704.04	9977.70
704.17	9958.98
704.31	10073.67
704.44	9996.43
704.57	9825.57
704.70	9715.56
704.83	9628.96
704.96	9767.06
705.10	9572.79
705.23	9570.45
>>>>>End Processed Spectral Data<<<<<
