SpectraSuite Data File
++++++++++++++++++++++++++++++++++++
Date: Fri Oct 18 13:58:40 GMT-05:00 2013
User: bianchi
Dark Spectrum Present: No
Reference Spectrum Present: No
Number of Sampled Component Spectra: 1
Spectrometers: USB2+H05261
Integration Time (usec): 50000 (USB2+H05261)
Spectra Averaged: 1 (USB2+H05261)
Boxcar Smoothing: 0 (USB2+H05261)
Correct for Electrical Dark: No (USB2+H05261)
Strobe/Lamp Enabled: No (USB2+H05261)
Correct for Detector Non-linearity: No (USB2+H05261)
Correct for Stray Light: No (USB2+H05261)
Number of Pixels in Processed Spectrum: 2048
>>>>>Begin Processed Spectral Data<<<<<
365.73	0.00
365.92	0.00
366.12	0.00
366.32	0.00
366.52	0.00
366.72	0.00
366.91	0.00
367.11	0.00
367.31	0.00
367.51	0.00
367.70	0.00
367.90	0.00
368.10	0.00
368.30	0.00
368.49	0.00
368.69	0.00
368.89	0.00
369.09	0.00
369.28	0.00
369.48	0.00
369.68	0.00
369.87	0.00
370.07	0.00
370.27	0.00
370.47	0.00
370.66	44.47
370.86	124.05
371.06	67.88
371.25	205.97
371.45	100.64
371.65	128.73
371.84	161.50
372.04	117.03
372.24	191.92
372.44	168.52
372.63	177.88
372.83	229.37
373.03	189.58
373.22	203.63
373.42	173.20
373.62	203.63
373.81	215.33
374.01	220.01
374.21	220.01
374.40	189.58
374.60	252.78
374.79	220.01
374.99	152.13
375.19	231.71
375.38	231.71
375.58	182.56
375.78	229.37
375.97	259.80
376.17	313.63
376.37	264.48
376.56	243.42
376.76	278.52
376.95	264.48
377.15	297.25
377.35	234.05
377.54	278.52
377.74	238.73
377.93	304.27
378.13	271.50
378.33	346.40
378.52	355.76
378.72	220.01
378.91	248.10
379.11	304.27
379.31	266.82
379.50	311.29
379.70	360.44
379.89	222.35
380.09	271.50
380.28	285.55
380.48	262.14
380.68	278.52
380.87	332.36
381.07	358.10
381.26	346.40
381.46	292.57
381.65	353.42
381.85	325.33
382.04	276.18
382.24	301.93
382.43	290.23
382.63	248.10
382.83	306.61
383.02	299.59
383.22	379.17
383.41	372.15
383.61	285.55
383.80	404.91
384.00	294.91
384.19	397.89
384.39	313.63
384.58	442.36
384.78	346.40
384.97	414.27
385.17	344.06
385.36	400.23
385.56	404.91
385.75	327.68
385.95	367.46
386.14	444.70
386.34	437.68
386.53	395.55
386.72	327.68
386.92	383.85
387.11	423.64
387.31	425.98
387.50	477.47
387.70	435.34
387.89	411.93
388.09	440.02
388.28	425.98
388.48	444.70
388.67	486.83
388.86	454.06
389.06	505.56
389.25	531.30
389.45	535.98
389.64	484.49
389.84	430.66
390.03	484.49
390.22	470.45
390.42	524.28
390.61	571.09
390.81	444.70
391.00	505.56
391.19	519.60
391.39	540.66
391.58	596.84
391.78	533.64
391.97	552.37
392.16	486.83
392.36	484.49
392.55	505.56
392.75	573.43
392.94	524.28
393.13	575.77
393.33	519.60
393.52	491.51
393.71	575.77
393.91	615.56
394.10	568.75
394.29	552.37
394.49	512.58
394.68	571.09
394.88	596.84
395.07	594.50
395.26	610.88
395.46	629.60
395.65	566.41
395.84	603.86
396.04	613.22
396.23	638.97
396.42	587.47
396.62	624.92
396.81	660.03
397.00	678.76
397.19	608.54
397.39	638.97
397.58	681.10
397.77	655.35
397.97	578.11
398.16	653.01
398.35	620.24
398.55	767.70
398.74	676.41
398.93	653.01
399.12	720.88
399.32	671.73
399.51	777.06
399.70	765.36
399.90	718.54
400.09	723.23
400.28	664.71
400.47	807.48
400.67	767.70
400.86	784.08
401.05	737.27
401.24	812.17
401.44	819.19
401.63	887.06
401.82	809.83
402.01	725.57
402.21	746.63
402.40	779.40
402.59	856.64
402.78	777.06
402.97	788.76
403.17	851.96
403.36	777.06
403.55	833.23
403.74	882.38
403.93	866.00
404.13	786.42
404.32	891.74
404.51	858.98
404.70	936.21
404.89	964.30
405.09	931.53
405.28	947.92
405.47	1013.45
405.66	964.30
405.85	966.64
406.05	999.41
406.24	1015.79
406.43	933.87
406.62	1029.84
406.81	1015.79
407.00	1011.11
407.20	954.94
407.39	1013.45
407.58	1041.54
407.77	987.71
407.96	1020.47
408.15	1034.52
408.34	1071.97
408.54	1121.12
408.73	1198.35
408.92	1153.88
409.11	1153.88
409.30	1116.44
409.49	1198.35
409.68	1156.22
409.87	1034.52
410.07	1174.95
410.26	1095.37
410.45	1118.78
410.64	1193.67
410.83	1249.85
411.02	1174.95
411.21	1284.95
411.40	1153.88
411.59	1291.98
411.78	1261.55
411.98	1266.23
412.17	1289.64
412.36	1306.02
412.55	1350.49
412.74	1376.24
412.93	1296.66
413.12	1296.66
413.31	1404.32
413.50	1357.51
413.69	1352.83
413.88	1371.55
414.07	1535.39
414.26	1490.92
414.45	1362.19
414.64	1519.01
414.83	1474.54
415.02	1551.78
415.22	1540.07
415.41	1540.07
415.60	1563.48
415.79	1624.33
415.98	1542.41
416.17	1586.88
416.36	1591.56
416.55	1603.27
416.74	1614.97
416.93	1720.29
417.12	1593.90
417.31	1596.25
417.50	1729.66
417.69	1703.91
417.88	1774.13
418.07	1673.48
418.26	1675.82
418.45	1809.23
418.64	1753.06
418.83	1830.30
419.02	1708.59
419.21	1715.61
419.39	1881.79
419.58	1849.02
419.77	1809.23
419.96	1750.72
420.15	1860.73
420.34	1816.26
420.53	1867.75
420.72	2026.90
420.91	1823.28
421.10	1916.90
421.29	1994.14
421.48	1820.94
421.67	1944.99
421.86	1968.39
422.05	1872.43
422.24	1959.03
422.43	1966.05
422.61	1966.05
422.80	2087.76
422.99	2059.67
423.18	2040.95
423.37	2019.88
423.56	2033.93
423.75	2090.10
423.94	1940.30
424.13	1837.32
424.32	1893.49
424.50	1970.73
424.69	1984.77
424.88	2059.67
425.07	2005.84
425.26	2087.76
425.45	2092.44
425.64	2038.61
425.83	2017.54
426.01	2148.61
426.20	2097.12
426.39	2080.74
426.58	1923.92
426.77	2094.78
426.96	2022.22
427.15	2221.17
427.33	2099.46
427.52	2092.44
427.71	2153.29
427.90	2111.16
428.09	2120.53
428.28	2282.02
428.46	2141.59
428.65	2207.13
428.84	2239.89
429.03	2179.04
429.22	2146.27
429.40	2263.30
429.59	2153.29
429.78	2092.44
429.97	2160.31
430.16	2174.36
430.34	2289.04
430.53	2377.98
430.72	2354.58
430.91	2326.49
431.10	2214.15
431.28	2228.19
431.47	2335.85
431.66	2382.67
431.85	2401.39
432.03	2349.90
432.22	2429.48
432.41	2464.58
432.60	2422.45
432.79	2466.92
432.97	2567.57
433.16	2546.50
433.35	2452.88
433.54	2429.48
433.72	2417.77
433.91	2525.44
434.10	2401.39
434.28	2422.45
434.47	2548.84
434.66	2616.72
434.85	2614.38
435.03	2406.07
435.22	2623.74
435.41	2642.46
435.59	2567.57
435.78	2682.25
435.97	2581.61
436.16	2679.91
436.34	2693.96
436.53	2586.29
436.72	2691.62
436.90	2654.17
437.09	2794.60
437.28	2609.70
437.46	2686.94
437.65	2715.02
437.84	2766.51
438.02	2726.72
438.21	2733.75
438.40	2668.21
438.58	2782.90
438.77	2860.13
438.96	2918.65
439.14	3000.57
439.33	2848.43
439.52	2958.44
439.70	3026.31
439.89	2993.55
440.08	3073.12
440.26	3056.74
440.45	3133.98
440.63	2998.23
440.82	3148.02
441.01	3066.10
441.19	3077.80
441.38	3236.96
441.57	3169.09
441.75	3169.09
441.94	3253.34
442.12	3218.24
442.31	3311.86
442.50	3269.73
442.68	3262.71
442.87	3365.69
443.05	3325.90
443.24	3255.69
443.43	3321.22
443.61	3421.86
443.80	3438.25
443.98	3332.92
444.17	3227.60
444.35	3428.88
444.54	3550.59
444.73	3475.70
444.91	3459.31
445.10	3482.72
445.28	3485.06
445.47	3262.71
445.65	3485.06
445.84	3461.65
446.02	3452.29
446.21	3435.91
446.39	3368.03
446.58	3487.40
446.77	3595.06
446.95	3365.69
447.14	3426.54
447.32	3487.40
447.51	3407.82
447.69	3569.32
447.88	3426.54
448.06	3407.82
448.25	3342.28
448.43	3468.67
448.62	3501.44
448.80	3463.99
448.99	3485.06
449.17	3684.00
449.36	3541.23
449.54	3545.91
449.73	3637.19
449.91	3662.94
450.10	3712.09
450.28	3808.05
450.46	3625.49
450.65	3597.40
450.83	3695.71
451.02	3744.86
451.20	3850.18
451.39	3808.05
451.57	3758.90
451.76	3786.99
451.94	3716.77
452.13	3833.80
452.31	3871.25
452.49	3744.86
452.68	3845.50
452.86	3908.69
453.05	3801.03
453.23	3892.31
453.42	3735.50
453.60	3749.54
453.78	3840.82
453.97	4049.13
454.15	3817.41
454.34	3896.99
454.52	3929.76
454.70	3932.10
454.89	3992.95
455.07	3925.08
455.26	4121.68
455.44	4102.96
455.62	4035.08
455.81	4016.36
455.99	4051.47
456.17	3990.61
456.36	4091.26
456.54	4234.03
456.73	4105.30
456.91	4447.02
457.09	4227.01
457.28	4339.35
457.46	4241.05
457.64	4447.02
457.83	4299.56
458.01	4346.37
458.19	4388.50
458.38	4243.39
458.56	4393.19
458.74	4402.55
458.93	4517.23
459.11	4327.65
459.29	4362.76
459.48	4435.32
459.66	4496.17
459.84	4505.53
460.03	4620.22
460.21	4716.18
460.39	4381.48
460.57	4667.03
460.76	4603.83
460.94	4641.28
461.12	4669.37
461.31	4669.37
461.49	4671.71
461.67	4601.49
461.85	4713.84
462.04	4620.22
462.22	4709.16
462.40	4922.15
462.59	4767.67
462.77	4662.35
462.95	4823.84
463.13	4571.07
463.32	4620.22
463.50	4819.16
463.68	4767.67
463.86	4905.76
464.05	4709.16
464.23	4821.50
464.41	4865.97
464.59	4734.90
464.78	4917.47
464.96	4884.70
465.14	4795.76
465.32	4861.29
465.50	5107.05
465.69	5027.47
465.87	4877.68
466.05	4912.78
466.23	5015.77
466.41	4894.06
466.60	5200.67
466.78	4980.66
466.96	4983.00
467.14	5032.15
467.32	5093.01
467.51	5109.39
467.69	4983.00
467.87	4945.55
468.05	5200.67
468.23	4992.36
468.41	5158.54
468.60	5135.14
468.78	5153.86
468.96	5128.11
469.14	5317.70
469.32	5233.44
469.50	5270.89
469.69	5303.65
469.87	5273.23
470.05	5378.55
470.23	5359.83
470.41	5366.85
470.59	5558.77
470.77	5266.21
470.95	5504.94
471.14	5511.96
471.32	5465.15
471.50	5643.03
471.68	5593.88
471.86	5640.69
472.04	5694.52
472.22	5715.59
472.40	5614.95
472.58	5692.18
472.77	5755.38
472.95	5760.06
473.13	6022.20
473.31	5757.72
473.49	5701.54
473.67	5809.21
473.85	5858.36
474.03	5823.25
474.21	5909.85
474.39	6080.71
474.57	5951.98
474.75	5991.77
474.93	6221.14
475.12	6052.63
475.30	6101.78
475.48	6111.14
475.66	6190.72
475.84	6293.70
476.02	6169.65
476.20	6169.65
476.38	6417.75
476.56	6593.29
476.74	6499.67
476.92	6551.16
477.10	6516.05
477.28	6621.38
477.46	6649.46
477.64	6525.41
477.82	6621.38
478.00	6963.09
478.18	6757.13
478.36	6850.75
478.54	6984.16
478.72	7068.42
478.90	7155.02
479.08	7068.42
479.26	7164.38
479.44	7049.69
479.62	7267.36
479.80	7290.77
479.98	7360.98
480.16	7620.78
480.34	7353.96
480.52	7557.59
480.70	7592.70
480.88	7604.40
481.06	7438.22
481.24	7358.64
481.41	7803.35
481.59	7920.37
481.77	7943.78
481.95	7840.79
482.13	7798.66
482.31	7969.52
482.49	7941.44
482.67	8365.07
482.85	8327.63
483.03	8470.40
483.21	8596.79
483.39	8678.71
483.57	8573.38
483.74	8606.15
483.92	8762.97
484.10	8491.46
484.28	8762.97
484.46	9071.92
484.64	9081.28
484.82	8777.01
485.00	9085.96
485.18	9158.52
485.35	9401.93
485.53	9233.41
485.71	9132.77
485.89	9448.74
486.07	9474.49
486.25	9570.45
486.43	9474.49
486.61	9790.46
486.78	9764.72
486.96	9940.26
487.14	9888.76
487.32	9806.84
487.50	10193.03
487.68	10106.43
487.85	10200.05
488.03	10317.08
488.21	10359.21
488.39	10466.88
488.57	10520.71
488.75	10384.96
488.92	10710.29
489.10	10981.79
489.28	10848.38
489.46	10878.81
489.64	11049.67
489.81	11274.36
489.99	11246.27
490.17	11208.83
490.35	11396.07
490.53	11323.51
490.70	11597.35
490.88	11871.20
491.06	11861.84
491.24	11751.83
491.41	11522.46
491.59	11758.85
491.77	11779.92
491.95	11990.56
492.13	12128.66
492.30	12035.03
492.48	12376.75
492.66	12294.83
492.84	12301.86
493.01	12266.75
493.19	12238.66
493.37	12540.59
493.54	12446.97
493.72	12641.23
493.90	12608.47
494.08	13118.70
494.25	12975.93
494.43	13076.57
494.61	13275.52
494.79	13252.11
494.96	13362.12
495.14	12982.95
495.32	13544.68
495.49	13448.72
495.67	13364.46
495.85	13757.67
496.02	13818.52
496.20	13823.20
496.38	13949.59
496.55	13652.34
496.73	14169.60
496.91	14040.87
497.09	14363.87
497.26	14104.07
497.44	14382.59
497.62	14300.67
497.79	14363.87
497.97	14286.63
498.14	14532.39
498.32	14656.43
498.50	14831.97
498.67	14726.65
498.85	14890.49
499.03	14721.97
499.20	14813.25
499.38	15035.60
499.56	15037.94
499.73	15051.99
499.91	15494.35
500.08	15492.01
500.26	15335.19
500.44	15105.82
500.61	15459.24
500.79	15321.15
500.97	15704.99
501.14	15646.48
501.32	15714.36
501.49	15730.74
501.67	15520.09
501.84	15726.06
502.02	15852.45
502.20	15948.41
502.37	16175.44
502.55	16114.59
502.72	16168.42
502.90	16042.03
503.07	15833.72
503.25	16119.27
503.43	16168.42
503.60	16603.76
503.78	16315.87
503.95	16231.62
504.13	16320.56
504.30	16580.36
504.48	16308.85
504.65	16552.27
504.83	16833.13
505.01	16919.73
505.18	17034.42
505.36	17153.79
505.53	16936.12
505.71	17102.29
505.88	16975.91
506.06	16961.86
506.23	16889.31
506.41	16982.93
506.58	17343.37
506.76	17149.11
506.93	17397.20
507.11	17263.79
507.28	17521.25
507.46	17436.99
507.63	17715.51
507.81	17900.42
507.98	17429.97
508.16	17666.36
508.33	17591.47
508.50	17678.07
508.68	17816.16
508.85	18026.81
509.03	17930.84
509.20	18134.47
509.38	18265.54
509.55	18160.22
509.73	18129.79
509.90	18078.30
510.08	18104.04
510.25	18403.63
510.42	18284.26
510.60	18565.13
510.77	18654.07
510.95	18963.02
511.12	18574.49
511.30	18436.40
511.47	18909.19
511.64	18930.25
511.82	18635.35
511.99	18801.52
512.17	19103.45
512.34	18860.04
512.51	19021.53
512.69	19307.08
512.86	18817.91
513.04	19194.73
513.21	19115.16
513.38	19372.61
513.56	19407.72
513.73	19323.46
513.90	19339.85
514.08	19349.21
514.25	19702.63
514.43	19442.83
514.60	19641.78
514.77	19716.67
514.95	19583.26
515.12	19723.69
515.29	19257.93
515.47	19590.28
515.64	19807.95
515.81	20114.56
515.99	20032.65
516.16	20240.95
516.33	19953.07
516.51	20224.57
516.68	20121.59
516.85	20161.37
517.03	20297.13
517.20	19903.92
517.37	20498.41
517.54	20496.07
517.72	20215.21
517.89	20432.88
518.06	20585.01
518.24	20262.02
518.41	20423.51
518.58	20870.56
518.75	20472.67
518.93	21027.37
519.10	20643.52
519.27	21191.21
519.45	20851.83
519.62	20783.96
519.79	20751.19
519.96	21074.18
520.14	20905.66
520.31	20837.79
520.48	21233.34
520.65	21280.15
520.83	21151.42
521.00	21289.51
521.17	20854.17
521.34	21556.33
521.52	21348.03
521.69	21392.50
521.86	21362.07
522.03	21708.47
522.20	21846.56
522.38	21778.68
522.55	21692.08
522.72	21680.38
522.89	21621.87
523.07	21816.13
523.24	21977.63
523.41	22139.13
523.58	21649.96
523.75	21996.35
523.92	21699.11
524.10	21909.75
524.27	22127.42
524.44	22228.07
524.61	22534.68
524.78	22464.46
524.96	22431.69
525.13	22118.06
525.30	22551.06
525.47	22478.50
525.64	22471.48
525.81	22462.12
525.98	22368.50
526.16	22717.24
526.33	22471.48
526.50	22939.59
526.67	22487.87
526.84	22801.50
527.01	22553.40
527.18	22705.54
527.36	22658.73
527.53	22735.96
527.70	23192.37
527.87	23180.67
528.04	23028.53
528.21	23049.60
528.38	22998.10
528.55	23201.73
528.72	23075.34
528.89	23405.36
529.07	23199.39
529.24	23391.31
529.41	23480.25
529.58	23342.16
529.75	23082.36
529.92	23396.00
530.09	23269.61
530.26	23339.82
530.43	23510.68
530.60	23414.72
530.77	23384.29
530.94	23510.68
531.11	23353.87
531.28	23585.58
531.46	23630.05
531.63	23800.91
531.80	23749.42
531.97	23840.70
532.14	23807.93
532.31	23793.89
532.48	23840.70
532.65	23793.89
532.82	23777.50
532.99	23922.62
533.16	23796.23
533.33	24023.26
533.50	24329.87
533.67	24278.38
533.84	24051.34
534.01	24016.24
534.18	24114.54
534.35	24308.80
534.52	24367.32
534.69	24397.74
534.86	24404.77
535.03	24812.02
535.20	24641.16
535.37	24367.32
535.54	24362.64
535.71	24240.93
535.88	24498.39
536.05	24229.23
536.22	24844.79
536.38	24968.84
536.55	24748.82
536.72	24741.80
536.89	24655.20
537.06	24723.08
537.23	24664.57
537.40	24748.82
537.57	24636.48
537.74	25032.03
537.91	25050.75
538.08	25214.59
538.25	24924.36
538.42	25074.16
538.59	25053.09
538.75	24915.00
538.92	25256.72
539.09	25074.16
539.26	25268.42
539.43	24940.75
539.60	25378.43
539.77	25617.16
539.94	25387.79
540.11	25338.64
540.28	25532.90
540.44	25219.27
540.61	25799.73
540.78	25235.66
540.95	25397.15
541.12	25315.23
541.29	25776.32
541.46	25301.19
541.62	25273.10
541.79	25734.19
541.96	25109.27
542.13	25448.64
542.30	25720.15
542.47	25869.94
542.63	25589.08
542.80	25926.11
542.97	26199.96
543.14	26441.03
543.31	25951.86
543.48	26211.66
543.64	26225.70
543.81	26001.01
543.98	26434.01
544.15	26312.30
544.32	26623.59
544.48	26515.93
544.65	26260.81
544.82	26462.10
544.99	26263.15
545.16	26466.78
545.32	25886.32
545.49	26775.73
545.66	26604.87
545.83	26340.39
546.00	26534.65
546.16	26508.91
546.33	26277.19
546.50	25830.15
546.67	26721.90
546.83	26373.16
547.00	26555.72
547.17	26747.64
547.34	26548.70
547.50	26801.47
547.67	26948.93
547.84	26808.50
548.00	27204.05
548.17	27007.44
548.34	26831.90
548.51	27005.10
548.67	27297.67
548.84	27281.28
549.01	27072.98
549.18	27016.80
549.34	26817.86
549.51	26911.48
549.68	27201.71
549.84	27084.68
550.01	27129.15
550.18	27140.85
550.34	27346.82
550.51	27295.33
550.68	27496.61
550.84	26986.38
551.01	27484.91
551.18	27419.38
551.34	26892.76
551.51	26932.54
551.68	27386.61
551.84	27648.75
552.01	27536.40
552.18	27449.80
552.34	27379.59
552.51	27730.67
552.68	27740.03
552.84	27297.67
553.01	27201.71
553.18	27133.83
553.34	27740.03
553.51	27529.38
553.67	27571.51
553.84	27800.88
554.01	27508.32
554.17	27885.14
554.34	27733.01
554.51	28126.22
554.67	27950.68
554.84	28023.23
555.00	27590.24
555.17	27751.73
555.33	27679.18
555.50	27840.67
555.67	27686.20
555.83	27955.36
556.00	27892.16
556.16	28173.03
556.33	28037.28
556.50	28137.92
556.66	28133.24
556.83	28318.14
556.99	28297.08
557.16	28224.52
557.32	28226.86
557.49	28112.17
557.65	27828.97
557.82	28020.89
557.98	27913.23
558.15	28451.55
558.32	28379.00
558.48	28320.48
558.65	28336.87
558.81	28531.13
558.98	28673.90
559.14	28779.23
559.31	27941.32
559.47	27938.97
559.64	28397.72
559.80	28634.11
559.97	28767.52
560.13	28900.94
560.30	28393.04
560.46	28191.75
560.63	28659.86
560.79	28669.22
560.96	28477.30
561.12	28299.42
561.29	28657.52
561.45	28451.55
561.61	28610.71
561.78	28622.41
561.94	28542.83
562.11	28594.32
562.27	28439.85
562.44	28734.76
562.60	28945.41
562.77	28219.84
562.93	28650.50
563.10	28919.66
563.26	28774.55
563.42	28746.46
563.59	29099.88
563.75	28999.24
563.92	28481.98
564.08	28751.14
564.24	28596.67
564.41	28907.96
564.57	28554.54
564.74	28500.70
564.90	29102.22
565.07	29160.73
565.23	29001.58
565.39	28425.81
565.56	28669.22
565.72	28992.22
565.88	29097.54
566.05	28790.93
566.21	28762.84
566.38	28861.15
566.54	28671.56
566.70	29123.29
566.87	29137.33
567.03	28985.19
567.19	29535.22
567.36	29209.89
567.52	28954.77
567.68	28884.55
567.85	29296.49
568.01	29163.08
568.17	28975.83
568.34	29252.02
568.50	29036.69
568.66	29046.05
568.83	29326.91
568.99	29312.87
569.15	28980.51
569.32	29160.73
569.48	29156.05
569.64	28994.56
569.81	29109.24
569.97	28910.30
570.13	29296.49
570.30	29366.70
570.46	29268.40
570.62	29303.51
570.78	29296.49
570.95	29378.40
571.11	29415.85
571.27	29062.43
571.43	29010.94
571.60	29167.76
571.76	29516.50
571.92	29200.52
572.09	29582.03
572.25	29593.73
572.41	29366.70
572.57	29635.86
572.74	29518.84
572.90	29055.41
573.06	29237.97
573.22	29315.21
573.38	29301.17
573.55	29209.89
573.71	29230.95
573.87	29539.90
574.03	29584.37
574.20	29102.22
574.36	29350.32
574.52	29577.35
574.68	29137.33
574.84	29216.91
575.01	29584.37
575.17	29109.24
575.33	29226.27
575.49	29436.92
575.65	29235.63
575.82	29467.34
575.98	29312.87
576.14	29488.41
576.30	29488.41
576.46	29474.37
576.62	29085.84
576.79	29202.86
576.95	29750.55
577.11	29809.06
577.27	29722.46
577.43	29792.68
577.59	29591.39
577.75	29575.01
577.92	29516.50
578.08	29261.38
578.24	29270.74
578.40	29333.93
578.56	29591.39
578.72	29240.31
578.88	29750.55
579.04	29720.12
579.21	29277.76
579.37	29495.43
579.53	29600.76
579.69	29472.03
579.85	29706.08
580.01	29633.52
580.17	29488.41
580.33	29673.31
580.49	29467.34
580.65	29755.23
580.82	29635.86
580.98	29530.54
581.14	29741.19
581.30	29944.81
581.46	29607.78
581.62	29291.80
581.78	29111.58
581.94	29446.28
582.10	29359.68
582.26	29614.80
582.42	29249.67
582.58	29434.58
582.74	29699.06
582.90	30054.82
583.06	29532.88
583.22	29734.17
583.38	29369.04
583.54	29542.24
583.70	29619.48
583.86	29996.31
584.02	29385.43
584.18	29261.38
584.34	29956.52
584.50	29474.37
584.66	29542.24
584.82	29432.24
584.98	29584.37
585.14	29762.25
585.30	29575.01
585.46	29902.68
585.62	29584.37
585.78	29846.51
585.94	29898.00
586.10	29792.68
586.26	29802.04
586.42	29949.50
586.58	29916.73
586.74	29685.01
586.90	29734.17
587.06	29317.55
587.22	29680.33
587.38	29446.28
587.54	29806.72
587.70	30298.23
587.86	29743.53
588.02	29820.77
588.18	30082.91
588.34	29928.43
588.49	29741.19
588.65	29881.62
588.81	29399.47
588.97	29638.20
589.13	29806.72
589.29	29640.54
589.45	29818.42
589.61	29989.28
589.77	30466.75
589.93	29982.26
590.08	30118.01
590.24	29804.38
590.40	29949.50
590.56	29919.07
590.72	29961.20
590.88	29736.51
591.04	29762.25
591.20	29963.54
591.35	30232.70
591.51	30611.87
591.67	29755.23
591.83	30157.80
591.99	29951.84
592.15	30260.79
592.31	30127.38
592.46	29680.33
592.62	29879.28
592.78	29799.70
592.94	29851.19
593.10	30195.25
593.26	30139.08
593.41	30216.32
593.57	30534.63
593.73	30408.24
593.89	30473.78
594.05	30602.50
594.20	29748.21
594.36	30197.59
594.52	30043.12
594.68	30064.18
594.84	29647.57
594.99	30216.32
595.15	30132.06
595.31	30225.68
595.47	30272.49
595.62	30438.67
595.78	30249.08
595.94	30197.59
596.10	30017.37
596.25	29745.87
596.41	30015.03
596.57	29970.56
596.73	30087.59
596.88	30005.67
597.04	30426.96
597.20	30429.30
597.36	30033.75
597.51	30321.64
597.67	29846.51
597.83	30150.78
597.99	30242.06
598.14	30253.76
598.30	29963.54
598.46	29844.17
598.61	30270.15
598.77	30031.41
598.93	30373.13
599.09	30480.80
599.24	30342.70
599.40	30532.29
599.56	30698.47
599.71	30206.95
599.87	30508.88
600.03	30436.33
600.18	30209.29
600.34	29916.73
600.50	30469.09
600.65	30338.02
600.81	30445.69
600.97	30089.93
601.12	30628.25
601.28	30309.94
601.44	30635.27
601.59	30384.83
601.75	30244.40
601.91	30361.43
602.06	30087.59
602.22	30417.60
602.37	30136.74
602.53	29811.40
602.69	30424.62
602.84	30221.00
603.00	30356.75
603.16	30080.56
603.31	30153.12
603.47	30459.73
603.62	29783.32
603.78	30431.65
603.94	30162.48
604.09	30033.75
604.25	29979.92
604.40	30536.97
604.56	30148.44
604.71	30600.16
604.87	30298.23
605.03	30394.20
605.18	30342.70
605.34	30471.43
605.49	30096.95
605.65	30295.89
605.80	30022.05
605.96	30003.33
606.12	30164.82
606.27	30139.08
606.43	29933.11
606.58	30307.60
606.74	30253.76
606.89	30120.35
607.05	30382.49
607.20	30724.21
607.36	30387.18
607.51	30178.87
607.67	30057.16
607.82	29680.33
607.98	30012.69
608.13	30066.52
608.29	30068.86
608.44	30132.06
608.60	30071.20
608.75	29972.90
608.91	30024.39
609.06	30209.29
609.22	30031.41
609.37	29811.40
609.53	30054.82
609.68	29745.87
609.84	29809.06
609.99	29780.98
610.15	30120.35
610.30	29956.52
610.46	29919.07
610.61	30043.12
610.76	30113.33
610.92	30331.00
611.07	30022.05
611.23	29752.89
611.38	29935.45
611.54	29687.36
611.69	29722.46
611.84	29902.68
612.00	29834.81
612.15	29860.55
612.31	30216.32
612.46	29823.11
612.62	29893.32
612.77	29790.34
612.92	29916.73
613.08	29823.11
613.23	29923.75
613.39	29710.76
613.54	29462.66
613.69	29752.89
613.85	29605.44
614.00	29780.98
614.15	29497.77
614.31	29542.24
614.46	29923.75
614.62	29858.21
614.77	29949.50
614.92	29647.57
615.08	29607.78
615.23	29383.09
615.38	29717.78
615.54	29212.23
615.69	29298.83
615.84	29642.88
616.00	29862.90
616.15	29357.34
616.30	29546.92
616.46	29614.80
616.61	29263.72
616.76	29439.26
616.92	29539.90
617.07	29706.08
617.22	29193.50
617.37	29097.54
617.53	29457.98
617.68	29488.41
617.83	29046.05
617.99	29467.34
618.14	29305.85
618.29	29394.79
618.45	29163.08
618.60	29530.54
618.75	29453.30
618.90	29017.96
619.06	29249.67
619.21	29504.79
619.36	28898.59
619.51	28854.12
619.67	28973.49
619.82	29144.35
619.97	29076.48
620.12	29179.46
620.28	28788.59
620.43	29010.94
620.58	28999.24
620.73	28985.19
620.89	29563.31
621.04	29418.19
621.19	29006.26
621.34	28914.98
621.49	28931.36
621.65	29071.79
621.80	29174.78
621.95	28987.53
622.10	28849.44
622.25	28840.08
622.41	28816.68
622.56	28870.51
622.71	29127.97
622.86	29198.18
623.01	28683.27
623.16	28652.84
623.32	28936.04
623.47	28847.10
623.62	28996.90
623.77	28929.02
623.92	28526.45
624.07	28884.55
624.23	28631.77
624.38	28994.56
624.53	28435.17
624.68	28531.13
624.83	28790.93
624.98	28716.03
625.13	28671.56
625.29	28996.90
625.44	28659.86
625.59	28479.64
625.74	28350.91
625.89	28400.06
626.04	28697.31
626.19	28432.83
626.34	28456.23
626.49	28053.66
626.65	28587.30
626.80	28510.07
626.95	28573.26
627.10	28332.18
627.25	28259.63
627.40	28177.71
627.55	28460.91
627.70	27967.06
627.85	28390.70
628.00	27983.44
628.15	28109.83
628.30	27864.08
628.45	28341.55
628.60	27758.75
628.76	28166.01
628.91	28011.53
629.06	28144.94
629.21	28273.67
629.36	28119.20
629.51	28128.56
629.66	27697.90
629.81	27725.99
629.96	27831.31
630.11	28072.39
630.26	27758.75
630.41	27850.03
630.56	27873.44
630.71	27950.68
630.86	28266.65
631.01	27864.08
631.16	27901.53
631.31	28048.98
631.46	27627.68
631.61	28268.99
631.76	27850.03
631.91	27789.18
632.06	27548.11
632.21	27517.68
632.36	27922.59
632.51	27482.57
632.66	28081.75
632.81	27716.62
632.96	27604.28
633.10	27833.65
633.25	27847.69
633.40	28198.77
633.55	27646.41
633.70	27419.38
633.85	27513.00
634.00	27468.53
634.15	27847.69
634.30	27379.59
634.45	27543.42
634.60	27426.40
634.75	27264.90
634.90	27360.86
635.05	27487.25
635.19	27262.56
635.34	27674.49
635.49	27473.21
635.64	27655.77
635.79	27597.26
635.94	27466.19
636.09	27246.18
636.24	27482.57
636.39	27199.37
636.53	27463.85
636.68	27178.30
636.83	27363.20
636.98	27384.27
637.13	26883.39
637.28	27384.27
637.43	27138.51
637.57	26998.08
637.72	27433.42
637.87	27016.80
638.02	27374.91
638.17	27028.51
638.32	26623.59
638.46	27164.26
638.61	27012.12
638.76	26689.13
638.91	26635.30
639.06	27068.30
639.20	26913.82
639.35	26972.33
639.50	26761.69
639.65	27267.24
639.80	27220.43
639.94	27145.53
640.09	27072.98
640.24	26485.50
640.39	26771.05
640.54	26630.62
640.68	26934.88
640.83	26499.55
640.98	26574.44
641.13	26206.98
641.27	26817.86
641.42	26539.33
641.57	26710.19
641.72	26735.94
641.86	26422.31
642.01	26590.83
642.16	26529.97
642.31	26684.45
642.45	26539.33
642.60	26206.98
642.75	26476.14
642.90	26686.79
643.04	26244.43
643.19	26204.64
643.34	26487.84
643.48	26450.39
643.63	26155.49
643.78	26338.05
643.93	26359.11
644.07	26445.71
644.22	26483.16
644.37	26609.55
644.51	26244.43
644.66	26258.47
644.81	26132.08
644.95	26335.71
645.10	26232.72
645.25	26347.41
645.39	26181.23
645.54	25984.63
645.69	26235.06
645.83	26506.57
645.98	26548.70
646.13	26080.59
646.27	26574.44
646.42	26398.90
646.57	26462.10
646.71	26214.00
646.86	25858.24
647.00	26237.41
647.15	26206.98
647.30	26141.44
647.44	26134.42
647.59	26106.34
647.74	25893.35
647.88	26146.12
648.03	26267.83
648.17	26153.15
648.32	25923.77
648.47	26115.70
648.61	25837.17
648.76	26045.48
648.90	26153.15
649.05	26045.48
649.20	25942.50
649.34	25991.65
649.49	25530.56
649.63	25919.09
649.78	25589.08
649.92	25661.63
650.07	25731.85
650.21	25603.12
650.36	25682.70
650.51	25663.97
650.65	26094.63
650.80	26015.05
650.94	25710.78
651.09	25558.65
651.23	25586.74
651.38	25450.99
651.52	25617.16
651.67	25713.13
651.81	25474.39
651.96	25633.55
652.10	25247.36
652.25	25399.49
652.39	25535.24
652.54	25523.54
652.68	25593.76
652.83	25654.61
652.97	25937.82
653.12	25399.49
653.26	25610.14
653.41	25216.93
653.55	25415.88
653.70	25118.63
653.84	25359.70
653.99	25200.55
654.13	25188.85
654.27	24987.56
654.42	25441.62
654.56	25411.20
654.71	25228.63
654.85	25404.17
655.00	25443.96
655.14	25495.46
655.29	25177.14
655.43	25181.82
655.57	25186.50
655.72	25085.86
655.86	25097.56
656.01	25008.62
656.15	24936.07
656.30	25228.63
656.44	24851.81
656.58	24861.17
656.73	24821.38
656.87	25181.82
657.01	25048.41
657.16	25207.57
657.30	24893.94
657.45	24886.92
657.59	25333.96
657.73	24793.29
657.88	24915.00
658.02	24954.79
658.16	24620.10
658.31	24467.96
658.45	24627.12
658.60	24606.05
658.74	24657.54
658.88	24643.50
659.03	24559.24
659.17	24783.93
659.31	24973.52
659.46	24400.08
659.60	24959.47
659.74	24865.85
659.89	24210.50
660.03	24299.44
660.17	24449.24
660.32	24346.25
660.46	24285.40
660.60	24226.89
660.74	24465.62
660.89	24472.64
661.03	24430.51
661.17	24198.80
661.32	24051.34
661.46	24353.27
661.60	24250.29
661.74	24107.52
661.89	24238.59
662.03	24477.32
662.17	24091.13
662.31	23894.53
662.46	24166.03
662.60	23885.17
662.74	24088.79
662.88	23702.61
663.03	23960.06
663.17	23824.31
663.31	23365.57
663.45	23946.02
663.60	23742.39
663.74	23550.47
663.88	23843.04
664.02	23562.17
664.17	23917.93
664.31	23403.02
664.45	23522.38
664.59	23723.67
664.73	23599.62
664.88	23608.98
665.02	23002.78
665.16	23264.92
665.30	22948.95
665.44	22920.87
665.59	22862.35
665.73	22724.26
665.87	23103.43
666.01	23566.85
666.15	23213.43
666.29	22874.06
666.44	23227.48
666.58	22813.20
666.72	22993.42
666.86	23253.22
667.00	23126.83
667.14	22911.50
667.28	22948.95
667.43	22836.61
667.57	22862.35
667.71	22569.79
667.85	22958.31
667.99	22661.07
668.13	22892.78
668.27	22565.10
668.41	22890.44
668.56	22773.41
668.70	22855.33
668.84	22579.15
668.98	22740.64
669.12	22766.39
669.26	22265.52
669.40	22389.56
669.54	22504.25
669.68	22249.13
669.82	22012.74
669.96	21734.21
670.10	22361.48
670.25	22078.27
670.39	22162.53
670.53	21940.18
670.67	22146.15
670.81	22038.48
670.95	22033.80
671.09	22036.14
671.23	22237.43
671.37	22174.24
671.51	22085.30
671.65	21884.01
671.79	22012.74
671.93	21846.56
672.07	21858.26
672.21	21912.10
672.35	21364.41
672.49	21570.38
672.63	21673.36
672.77	21179.51
672.91	21610.17
673.05	21453.35
673.19	21598.46
673.33	21781.03
673.47	21673.36
673.61	21282.49
673.75	21441.65
673.89	21371.43
674.03	21514.20
674.17	21338.66
674.31	21422.92
674.45	21113.97
674.59	21411.22
674.73	21261.43
674.87	20957.16
675.01	20886.94
675.15	20826.09
675.29	20638.84
675.43	20659.91
675.56	21022.69
675.70	20463.30
675.84	20769.91
675.98	20119.24
676.12	20734.81
676.26	20905.66
676.40	20767.57
676.54	20577.99
676.68	20435.22
676.82	20152.01
676.96	20299.47
677.10	20329.89
677.23	20173.08
677.37	19807.95
677.51	20088.82
677.65	20215.21
677.79	19728.38
677.93	19566.88
678.07	19662.84
678.21	19623.05
678.34	20065.41
678.48	19552.84
678.62	19599.65
678.76	19250.91
678.90	19232.18
679.04	19351.55
679.18	19445.17
679.31	19183.03
679.45	18862.38
679.59	19075.37
679.73	18803.86
679.87	18979.40
680.00	18857.70
680.14	18672.79
680.28	18843.65
680.42	18878.76
680.56	18785.14
680.70	18593.22
680.83	18836.63
680.97	18991.11
681.11	18539.38
681.25	18703.22
681.39	18656.41
681.52	18457.46
681.66	18239.79
681.80	18087.66
681.94	18291.29
682.07	18270.22
682.21	18169.58
682.35	18082.98
682.49	17748.28
682.62	17706.15
682.76	17980.00
682.90	17958.93
683.04	17991.70
683.17	17820.84
683.31	17912.12
683.45	17858.29
683.59	17764.67
683.72	17607.85
683.86	17628.92
684.00	17467.42
684.13	17514.23
684.27	17390.18
684.41	17289.54
684.55	17315.28
684.68	16886.97
684.82	16975.91
684.96	16713.77
685.09	16870.58
685.23	16966.54
685.37	17352.73
685.50	16851.86
685.64	16685.68
685.78	16585.04
685.91	17020.38
686.05	16809.73
686.19	16779.30
686.32	16947.82
686.46	16285.45
686.60	16091.18
686.73	16458.65
686.87	16130.97
687.01	16255.02
687.14	16393.11
687.28	16088.84
687.42	16025.65
687.55	15981.18
687.69	16240.98
687.82	15864.15
687.96	16201.19
688.10	15817.34
688.23	15910.96
688.37	15962.45
688.50	15800.96
688.64	15971.82
688.78	15641.80
688.91	15630.10
689.05	15253.27
689.18	15360.94
689.32	15021.56
689.46	15236.89
689.59	15054.33
689.73	15194.76
689.86	15569.24
690.00	15030.92
690.13	15342.21
690.27	15103.48
690.41	15129.22
690.54	14998.15
690.68	14909.21
690.81	14658.78
690.95	15403.07
691.08	14869.42
691.22	14743.03
691.35	14450.47
691.49	14675.16
691.62	14799.21
691.76	14602.60
691.89	14530.05
692.03	14029.17
692.16	14190.67
692.30	14249.18
692.43	14347.48
692.57	13912.14
692.70	14373.23
692.84	14207.05
692.97	14054.92
693.11	14111.09
693.24	13961.30
693.38	13944.91
693.51	13771.71
693.65	13792.78
693.78	13862.99
693.92	13710.86
694.05	13795.12
694.19	13474.46
694.32	13483.83
694.45	13163.17
694.59	13202.96
694.72	13209.98
694.86	13165.51
694.99	13060.19
695.13	13102.32
695.26	13334.03
695.39	13167.85
695.53	13219.35
695.66	13029.76
695.80	13231.05
695.93	12924.44
696.07	12849.54
696.20	12898.69
696.33	12905.71
696.47	12648.26
696.60	12568.68
696.73	12727.83
696.87	12788.69
697.00	12786.35
697.14	12503.14
697.27	12348.67
697.40	12294.83
697.54	12123.98
697.67	12156.74
697.80	12025.67
697.94	11854.81
698.07	11892.26
698.21	11758.85
698.34	11953.12
698.47	12030.35
698.61	11840.77
698.74	12133.34
698.87	11925.03
699.01	11562.25
699.14	11712.04
699.27	11885.24
699.40	11744.81
699.54	11674.59
699.67	11641.82
699.80	11515.44
699.94	11513.10
700.07	11335.21
700.20	11178.40
700.34	11243.93
700.47	10988.82
700.60	11047.33
700.73	11059.03
700.87	11080.10
701.00	11023.92
701.13	10974.77
701.26	11119.89
701.40	10991.16
701.53	10827.32
701.66	11094.14
701.79	10846.04
701.93	10796.89
702.06	10752.42
702.19	10647.10
702.32	10628.37
702.46	10473.90
702.59	10518.37
702.72	10359.21
702.85	10197.71
702.99	10427.09
703.12	10164.95
703.25	10450.49
703.38	10319.42
703.51	10225.80
703.65	10296.02
703.78	10059.62
703.91	9944.94
704.04	10045.58
704.17	10136.86
704.31	10045.58
704.44	9942.60
704.57	10024.51
704.70	9741.31
704.83	9666.41
704.96	9774.08
705.10	9565.77
705.23	9584.49
>>>>>End Processed Spectral Data<<<<<
