SpectraSuite Data File
++++++++++++++++++++++++++++++++++++
Date: Fri Oct 18 13:58:09 GMT-05:00 2013
User: bianchi
Dark Spectrum Present: No
Reference Spectrum Present: No
Number of Sampled Component Spectra: 1
Spectrometers: USB2+H05261
Integration Time (usec): 50000 (USB2+H05261)
Spectra Averaged: 1 (USB2+H05261)
Boxcar Smoothing: 0 (USB2+H05261)
Correct for Electrical Dark: No (USB2+H05261)
Strobe/Lamp Enabled: No (USB2+H05261)
Correct for Detector Non-linearity: No (USB2+H05261)
Correct for Stray Light: No (USB2+H05261)
Number of Pixels in Processed Spectrum: 2048
>>>>>Begin Processed Spectral Data<<<<<
365.73	0.00
365.92	0.00
366.12	0.00
366.32	0.00
366.52	0.00
366.72	0.00
366.91	0.00
367.11	0.00
367.31	0.00
367.51	0.00
367.70	0.00
367.90	0.00
368.10	0.00
368.30	0.00
368.49	0.00
368.69	0.00
368.89	0.00
369.09	0.00
369.28	0.00
369.48	0.00
369.68	0.00
369.87	0.00
370.07	0.00
370.27	0.00
370.47	0.00
370.66	138.09
370.86	128.73
371.06	105.32
371.25	128.73
371.45	102.98
371.65	98.30
371.84	140.43
372.04	124.05
372.24	187.24
372.44	259.80
372.63	236.39
372.83	182.56
373.03	182.56
373.22	173.20
373.42	278.52
373.62	278.52
373.81	245.76
374.01	177.88
374.21	262.14
374.40	156.82
374.60	170.86
374.79	278.52
374.99	285.55
375.19	271.50
375.38	264.48
375.58	231.71
375.78	283.20
375.97	257.46
376.17	269.16
376.37	220.01
376.56	318.31
376.76	276.18
376.95	234.05
377.15	348.74
377.35	297.25
377.54	322.99
377.74	243.42
377.93	187.24
378.13	285.55
378.33	318.31
378.52	325.33
378.72	304.27
378.91	311.29
379.11	332.36
379.31	299.59
379.50	231.71
379.70	292.57
379.89	306.61
380.09	301.93
380.28	358.10
380.48	337.04
380.68	348.74
380.87	362.78
381.07	292.57
381.26	297.25
381.46	388.53
381.65	365.12
381.85	266.82
382.04	313.63
382.24	313.63
382.43	294.91
382.63	299.59
382.83	304.27
383.02	372.15
383.22	365.12
383.41	308.95
383.61	353.42
383.80	409.59
384.00	390.87
384.19	402.57
384.39	418.96
384.58	344.06
384.78	372.15
384.97	390.87
385.17	337.04
385.36	386.19
385.56	407.25
385.75	346.40
385.95	404.91
386.14	465.77
386.34	346.40
386.53	449.38
386.72	393.21
386.92	416.62
387.11	456.40
387.31	409.59
387.50	379.17
387.70	484.49
387.89	402.57
388.09	404.91
388.28	486.83
388.48	451.72
388.67	418.96
388.86	500.87
389.06	404.91
389.25	477.47
389.45	505.56
389.64	409.59
389.84	416.62
390.03	435.34
390.22	507.90
390.42	528.96
390.61	479.81
390.81	458.74
391.00	503.22
391.19	535.98
391.39	486.83
391.58	561.73
391.78	575.77
391.97	458.74
392.16	514.92
392.36	557.05
392.55	535.98
392.75	528.96
392.94	582.79
393.13	564.07
393.33	528.96
393.52	528.96
393.71	575.77
393.91	514.92
394.10	561.73
394.29	601.52
394.49	543.00
394.68	629.60
394.88	657.69
395.07	538.32
395.26	582.79
395.46	653.01
395.65	678.76
395.84	688.12
396.04	706.84
396.23	653.01
396.42	645.99
396.62	599.18
396.81	657.69
397.00	741.95
397.19	643.65
397.39	784.08
397.58	758.33
397.77	711.52
397.97	777.06
398.16	690.46
398.35	741.95
398.55	706.84
398.74	809.83
398.93	772.38
399.12	657.69
399.32	690.46
399.51	676.41
399.70	704.50
399.90	802.80
400.09	730.25
400.28	695.14
400.47	765.36
400.67	821.53
400.86	854.30
401.05	765.36
401.24	812.17
401.44	821.53
401.63	781.74
401.82	849.61
402.01	847.27
402.21	835.57
402.40	791.10
402.59	851.96
402.78	901.11
402.97	835.57
403.17	875.36
403.36	926.85
403.55	828.55
403.74	919.83
403.93	908.13
404.13	950.26
404.32	915.15
404.51	947.92
404.70	945.58
404.89	938.55
405.09	873.02
405.28	894.08
405.47	952.60
405.66	985.37
405.85	940.90
406.05	957.28
406.24	1034.52
406.43	1020.47
406.62	1034.52
406.81	1057.92
407.00	1015.79
407.20	1090.69
407.39	957.28
407.58	1046.22
407.77	1053.24
407.96	1039.20
408.15	1043.88
408.34	1004.09
408.54	1048.56
408.73	1142.18
408.92	1097.71
409.11	1111.75
409.30	1146.86
409.49	1088.35
409.68	1132.82
409.87	1193.67
410.07	1181.97
410.26	1294.32
410.45	1219.42
410.64	1259.21
410.83	1142.18
411.02	1263.89
411.21	1219.42
411.40	1294.32
411.59	1336.45
411.78	1193.67
411.98	1249.85
412.17	1320.06
412.36	1233.46
412.55	1338.79
412.74	1366.87
412.93	1366.87
413.12	1268.57
413.31	1348.15
413.50	1355.17
413.69	1423.05
413.88	1451.13
414.07	1397.30
414.26	1554.12
414.45	1418.36
414.64	1467.52
414.83	1603.27
415.02	1446.45
415.22	1488.58
415.41	1497.94
415.60	1589.22
415.79	1516.67
415.98	1547.09
416.17	1537.73
416.36	1640.72
416.55	1675.82
416.74	1575.18
416.93	1607.95
417.12	1687.53
417.31	1717.95
417.50	1678.16
417.69	1750.72
417.88	1804.55
418.07	1713.27
418.26	1764.76
418.45	1781.15
418.64	1785.83
418.83	1732.00
419.02	1797.53
419.21	1881.79
419.39	1792.85
419.58	1811.57
419.77	1846.68
419.96	1811.57
420.15	2031.58
420.34	1900.52
420.53	1816.26
420.72	1937.96
420.91	2047.97
421.10	1982.43
421.29	2008.18
421.48	1860.73
421.67	1966.05
421.86	1970.73
422.05	1952.01
422.24	1989.46
422.43	1928.60
422.61	2015.20
422.80	2008.18
422.99	2015.20
423.18	2010.52
423.37	2059.67
423.56	2071.37
423.75	1982.43
423.94	2019.88
424.13	1870.09
424.32	1994.14
424.50	1991.80
424.69	2005.84
424.88	2092.44
425.07	2038.61
425.26	1994.14
425.45	1937.96
425.64	2010.52
425.83	1994.14
426.01	2120.53
426.20	1996.48
426.39	2083.08
426.58	2094.78
426.77	2106.48
426.96	2253.94
427.15	2052.65
427.33	2179.04
427.52	2129.89
427.71	2181.38
427.90	2193.08
428.09	2200.10
428.28	2132.23
428.46	2225.85
428.65	2118.18
428.84	2263.30
429.03	2202.44
429.22	2270.32
429.40	2333.51
429.59	2326.49
429.78	2186.06
429.97	2165.00
430.16	2375.64
430.34	2235.21
430.53	2389.69
430.72	2354.58
430.91	2375.64
431.10	2303.09
431.28	2387.35
431.47	2513.74
431.66	2382.67
431.85	2338.20
432.03	2462.24
432.22	2485.65
432.41	2487.99
432.60	2473.95
432.79	2441.18
432.97	2464.58
433.16	2485.65
433.35	2452.88
433.54	2511.39
433.72	2485.65
433.91	2602.68
434.10	2492.67
434.28	2612.04
434.47	2485.65
434.66	2654.17
434.85	2579.27
435.03	2724.38
435.22	2541.82
435.41	2752.47
435.59	2642.46
435.78	2691.62
435.97	2792.26
436.16	2590.97
436.34	2672.89
436.53	2654.17
436.72	2778.22
436.90	2628.42
437.09	2862.48
437.28	2677.57
437.46	2808.64
437.65	2775.88
437.84	2825.03
438.02	2810.98
438.21	2794.60
438.40	2768.85
438.58	2944.39
438.77	2918.65
438.96	2771.19
439.14	3040.36
439.33	3009.93
439.52	3040.36
439.70	2988.86
439.89	3056.74
440.08	2958.44
440.26	3005.25
440.45	3068.44
440.63	3066.10
440.82	3173.77
441.01	3141.00
441.19	3260.37
441.38	3208.87
441.57	3239.30
441.75	3251.00
441.94	3262.71
442.12	3222.92
442.31	3246.32
442.50	3332.92
442.68	3363.35
442.87	3389.10
443.05	3234.62
443.24	3445.27
443.43	3316.54
443.61	3452.29
443.80	3449.95
443.98	3337.60
444.17	3323.56
444.35	3499.10
444.54	3489.74
444.73	3323.56
444.91	3368.03
445.10	3431.23
445.28	3325.90
445.47	3426.54
445.65	3300.16
445.84	3557.61
446.02	3529.53
446.21	3503.78
446.39	3478.04
446.58	3548.25
446.77	3531.87
446.95	3531.87
447.14	3602.08
447.32	3517.83
447.51	3454.63
447.69	3599.74
447.88	3604.42
448.06	3552.93
448.25	3517.83
448.43	3611.45
448.62	3562.30
448.80	3510.80
448.99	3667.62
449.17	3611.45
449.36	3698.05
449.54	3712.09
449.73	3812.73
449.91	3822.09
450.10	3602.08
450.28	3681.66
450.46	3702.73
450.65	3723.79
450.83	3702.73
451.02	3779.97
451.20	3742.52
451.39	3953.16
451.57	3794.01
451.76	3730.81
451.94	3901.67
452.13	3751.88
452.31	4023.38
452.49	3976.57
452.68	3817.41
452.86	3981.25
453.05	3866.56
453.23	4014.02
453.42	3955.51
453.60	3833.80
453.78	3918.06
453.97	3939.12
454.15	3920.40
454.34	3997.64
454.52	4002.32
454.70	4065.51
454.89	4021.04
455.07	4098.28
455.26	4131.05
455.44	4114.66
455.62	4070.19
455.81	4173.18
455.99	4042.11
456.17	4152.11
456.36	4112.32
456.54	4313.61
456.73	4344.03
456.91	4402.55
457.09	4262.12
457.28	4367.44
457.46	4475.10
457.64	4334.67
457.83	4400.21
458.01	4142.75
458.19	4358.08
458.38	4273.82
458.56	4559.36
458.74	4346.37
458.93	4447.02
459.11	4461.06
459.29	4348.72
459.48	4542.98
459.66	4542.98
459.84	4381.48
460.03	4652.98
460.21	4514.89
460.39	4669.37
460.57	4512.55
460.76	4699.80
460.94	4784.06
461.12	4657.67
461.31	4671.71
461.49	4709.16
461.67	4620.22
461.85	4772.35
462.04	4755.97
462.22	5015.77
462.40	4816.82
462.59	4751.29
462.77	4748.95
462.95	5013.43
463.13	4762.99
463.32	4924.49
463.50	4957.25
463.68	4999.38
463.86	4933.85
464.05	4896.40
464.23	4800.44
464.41	5139.82
464.59	5050.88
464.78	4966.62
464.96	4875.34
465.14	5034.49
465.32	4961.94
465.50	5165.56
465.69	5064.92
465.87	4999.38
466.05	5193.65
466.23	5193.65
466.41	5158.54
466.60	5067.26
466.78	4926.83
466.96	5109.39
467.14	5123.43
467.32	5158.54
467.51	5329.40
467.69	5011.09
467.87	5254.50
468.05	5219.39
468.23	5214.71
468.41	5083.64
468.60	5273.23
468.78	5305.99
468.96	5156.20
469.14	5303.65
469.32	5217.05
469.50	5111.73
469.69	5504.94
469.87	5493.24
470.05	5380.89
470.23	5404.30
470.41	5582.18
470.59	5523.66
470.77	5479.19
470.95	5696.86
471.14	5621.97
471.32	5413.66
471.50	5708.57
471.68	5624.31
471.86	5640.69
472.04	5813.89
472.22	5792.83
472.40	5659.42
472.58	5907.51
472.77	5820.91
472.95	6010.50
473.13	6015.18
473.31	5710.91
473.49	5774.10
473.67	5797.51
473.85	6085.39
474.03	6069.01
474.21	6092.41
474.39	6143.91
474.57	6232.85
474.75	6111.14
474.93	6324.13
475.12	6190.72
475.30	6324.13
475.48	6120.50
475.66	6356.90
475.84	6216.46
476.02	6410.73
476.20	6403.71
476.38	6551.16
476.56	6668.19
476.74	6509.03
476.92	6654.14
477.10	6612.01
477.28	6813.30
477.46	6698.61
477.64	6853.09
477.82	6913.94
478.00	7178.42
478.18	7166.72
478.36	7133.95
478.54	7229.91
478.72	7054.37
478.90	7262.68
479.08	7290.77
479.26	7335.24
479.44	7414.82
479.62	7552.91
479.80	7501.42
479.98	7559.93
480.16	7651.21
480.34	7681.64
480.52	7485.03
480.70	7632.49
480.88	7714.41
481.06	7892.29
481.24	7590.36
481.41	7798.66
481.59	8058.46
481.77	8184.85
481.95	7950.80
482.13	8124.00
482.31	8028.04
482.49	8393.16
482.67	8421.25
482.85	8535.93
483.03	8678.71
483.21	8603.81
483.39	8762.97
483.57	8662.32
483.74	8858.93
483.92	8837.86
484.10	8718.50
484.28	8887.01
484.46	9097.66
484.64	9245.12
484.82	9287.25
485.00	9060.21
485.18	9425.34
485.35	9469.81
485.53	9603.22
485.71	9418.32
485.89	9710.88
486.07	9593.86
486.25	9755.35
486.43	9638.33
486.61	9774.08
486.78	10003.45
486.96	9963.66
487.14	10272.61
487.32	10061.96
487.50	10396.66
487.68	10340.49
487.85	10391.98
488.03	10590.92
488.21	10672.84
488.39	10757.10
488.57	10949.03
488.75	10635.39
488.92	10817.96
489.10	10897.53
489.28	11084.78
489.46	11314.15
489.64	11147.97
489.81	11335.21
489.99	11524.80
490.17	11592.67
490.35	11625.44
490.53	11648.85
490.70	11728.42
490.88	11707.36
491.06	11988.22
491.24	11936.73
491.41	12116.95
491.59	12283.13
491.77	12311.22
491.95	12273.77
492.13	12456.33
492.30	12362.71
492.48	12458.67
492.66	12393.14
492.84	12299.52
493.01	13013.38
493.19	12655.28
493.37	12954.87
493.54	12676.34
493.72	12879.97
493.90	12989.97
494.08	13198.28
494.25	13081.25
494.43	13298.92
494.61	13341.05
494.79	13699.16
494.96	13474.46
495.14	13659.37
495.32	13619.58
495.49	13797.46
495.67	13839.59
495.85	14045.55
496.02	13664.05
496.20	14171.94
496.38	14171.94
496.55	14008.11
496.73	14492.60
496.91	14242.16
497.09	14558.13
497.26	14565.15
497.44	14459.83
497.62	14871.76
497.79	14867.08
497.97	14633.03
498.14	14785.16
498.32	14981.77
498.50	15061.35
498.67	15246.25
498.85	15150.29
499.03	15236.89
499.20	15452.22
499.38	15304.76
499.56	15407.75
499.73	15765.85
499.91	15433.49
500.08	15421.79
500.26	15599.67
500.44	15623.08
500.61	15939.05
500.79	15646.48
500.97	15915.64
501.14	16217.57
501.32	16009.26
501.49	16210.55
501.67	15887.56
501.84	16032.67
502.02	16428.22
502.20	16163.74
502.37	16479.71
502.55	16437.58
502.72	16468.01
502.90	16638.87
503.07	16458.65
503.25	16517.16
503.43	16362.69
503.60	16589.72
503.78	16798.02
503.95	16849.52
504.13	16776.96
504.30	16608.44
504.48	16659.93
504.65	16978.25
504.83	17338.69
505.01	17224.00
505.18	17364.43
505.36	17406.56
505.53	17001.65
505.71	17479.12
505.88	17441.67
506.06	17324.65
506.23	17649.98
506.41	17376.14
506.58	17525.93
506.76	17759.98
506.93	17928.50
507.11	17848.93
507.28	17767.01
507.46	17895.74
507.63	17935.53
507.81	18174.26
507.98	18225.75
508.16	18040.85
508.33	18183.62
508.50	18157.88
508.68	18031.49
508.85	18445.76
509.03	18342.78
509.20	18359.16
509.38	18527.68
509.55	18623.64
509.73	18647.05
509.90	18633.00
510.08	18494.91
510.25	18394.27
510.42	18672.79
510.60	18845.99
510.77	18857.70
510.95	18892.80
511.12	18986.43
511.30	18860.04
511.47	18920.89
511.64	19108.13
511.82	19283.67
511.99	19035.58
512.17	19477.94
512.34	19220.48
512.51	19367.93
512.69	19491.98
512.86	19548.15
513.04	19527.09
513.21	19662.84
513.38	19651.14
513.56	19826.68
513.73	19576.24
513.90	19843.06
514.08	19707.31
514.25	19957.75
514.43	19992.86
514.60	20257.34
514.77	20212.87
514.95	19906.26
515.12	20184.78
515.29	19826.68
515.47	20479.69
515.64	20084.14
515.81	20372.02
515.99	20343.94
516.16	20655.23
516.33	20837.79
516.51	20748.85
516.68	20365.00
516.85	20601.40
517.03	20587.35
517.20	20798.00
517.37	20617.78
517.54	21076.52
517.72	21188.87
517.89	20987.58
518.06	20964.18
518.24	20613.10
518.41	21198.23
518.58	20973.54
518.75	21046.10
518.93	21008.65
519.10	21336.32
519.27	21261.43
519.45	21289.51
519.62	21284.83
519.79	21303.56
519.96	21638.25
520.14	21664.00
520.31	21710.81
520.48	21968.27
520.65	21748.26
520.83	22115.72
521.00	21888.69
521.17	21577.40
521.34	21853.58
521.52	21584.42
521.69	21979.97
521.86	21923.80
522.03	22204.66
522.20	22192.96
522.38	22295.94
522.55	22295.94
522.72	22410.63
522.89	22230.41
523.07	22405.95
523.24	22436.38
523.41	22785.12
523.58	22441.06
523.75	22457.44
523.92	22672.77
524.10	22188.28
524.27	22838.95
524.44	22649.36
524.61	22579.15
524.78	23070.66
524.96	22689.15
525.13	22948.95
525.30	22565.10
525.47	23138.54
525.64	22939.59
525.81	22995.76
525.98	23215.77
526.16	23061.30
526.33	23178.33
526.50	23318.76
526.67	22820.22
526.84	23377.27
527.01	23171.30
527.18	23119.81
527.36	23372.59
527.53	23335.14
527.70	23576.22
527.87	23929.64
528.04	23660.48
528.21	23716.65
528.38	23606.64
528.55	23772.82
528.72	23396.00
528.89	23751.76
529.07	24060.71
529.24	23751.76
529.41	24013.90
529.58	23798.57
529.75	23765.80
529.92	23824.31
530.09	24072.41
530.26	23718.99
530.43	24105.18
530.60	23885.17
530.77	24058.37
530.94	24053.69
531.11	24142.63
531.28	24254.97
531.46	24285.40
531.63	24414.13
531.80	24723.08
531.97	24374.34
532.14	24589.67
532.31	24645.84
532.48	24376.68
532.65	24533.50
532.82	24350.93
532.99	24741.80
533.16	24627.12
533.33	24767.55
533.50	24666.91
533.67	24676.27
533.84	24865.85
534.01	24374.34
534.18	24760.53
534.35	25432.26
534.52	24788.61
534.69	25088.20
534.86	24830.74
535.03	24872.87
535.20	25235.66
535.37	25167.78
535.54	25312.89
535.71	24917.34
535.88	24751.17
536.05	25153.74
536.22	25357.36
536.38	25209.91
536.55	25462.69
536.72	25406.52
536.89	25067.14
537.06	25500.14
537.23	25649.93
537.40	25369.07
537.57	25376.09
537.74	25546.95
537.91	25649.93
538.08	25579.71
538.25	25582.06
538.42	25605.46
538.59	25614.82
538.75	25315.23
538.92	25956.54
539.09	25589.08
539.26	25846.54
539.43	25811.43
539.60	26188.25
539.77	25645.25
539.94	25998.67
540.11	25717.81
540.28	25722.49
540.44	26103.99
540.61	25975.27
540.78	25734.19
540.95	26169.53
541.12	26047.82
541.29	25977.61
541.46	26192.94
541.62	26396.56
541.79	26127.40
541.96	25942.50
542.13	26106.34
542.30	26267.83
542.47	26363.79
542.63	26609.55
542.80	26675.09
542.97	26721.90
543.14	26962.97
543.31	26504.23
543.48	26536.99
543.64	26354.43
543.81	26909.14
543.98	26991.06
544.15	26639.98
544.32	26930.20
544.48	27002.76
544.65	26855.31
544.82	27070.64
544.99	26871.69
545.16	26885.73
545.32	27264.90
545.49	27042.55
545.66	27138.51
545.83	27452.14
546.00	27555.13
546.16	27227.45
546.33	27262.56
546.50	26944.25
546.67	27164.26
546.83	26845.94
547.00	26867.01
547.17	27168.94
547.34	27454.48
547.50	27529.38
547.67	27948.34
547.84	27211.07
548.00	27459.16
548.17	27747.05
548.34	27634.71
548.51	27503.64
548.67	27814.93
548.84	27681.52
549.01	27662.79
549.18	27772.80
549.34	27608.96
549.51	27782.16
549.68	27793.86
549.84	27342.14
550.01	27782.16
550.18	27779.82
550.34	28184.73
550.51	28048.98
550.68	27791.52
550.84	27793.86
551.01	28231.54
551.18	27744.71
551.34	27335.12
551.51	27695.56
551.68	27819.61
551.84	27976.42
552.01	28336.87
552.18	28072.39
552.34	28215.16
552.51	28503.04
552.68	27854.72
552.84	28107.49
553.01	28386.02
553.18	28456.23
553.34	28390.70
553.51	28327.50
553.67	28453.89
553.84	28545.17
554.01	28512.41
554.17	28411.76
554.34	28807.31
554.51	28739.44
554.67	28662.20
554.84	28566.24
555.00	28648.16
555.17	28219.84
555.33	28804.97
555.50	28669.22
555.67	28744.12
555.83	28650.50
556.00	28828.38
556.16	28753.48
556.33	28627.09
556.50	28854.12
556.66	29132.65
556.83	28837.74
556.99	28840.08
557.16	29383.09
557.32	29076.48
557.49	28917.32
557.65	28741.78
557.82	28601.35
557.98	28816.68
558.15	28912.64
558.32	29263.72
558.48	29153.71
558.65	28933.70
558.81	28809.65
558.98	29153.71
559.14	29078.82
559.31	28760.50
559.47	29184.14
559.64	29158.39
559.80	29373.72
559.97	29280.10
560.13	29071.79
560.30	29406.49
560.46	29134.99
560.63	29331.59
560.79	29752.89
560.96	29294.14
561.12	29223.93
561.29	29193.50
561.45	29259.04
561.61	29284.78
561.78	29153.71
561.94	29591.39
562.11	29617.14
562.27	29233.29
562.44	29525.86
562.60	29282.44
562.77	29383.09
562.93	29443.94
563.10	29535.22
563.26	29170.10
563.42	30043.12
563.59	29312.87
563.75	29420.53
563.92	29551.60
564.08	29418.19
564.24	29516.50
564.41	29717.78
564.57	29769.27
564.74	29380.74
564.90	29846.51
565.07	29802.04
565.23	29734.17
565.39	29853.53
565.56	29923.75
565.72	29635.86
565.88	29717.78
566.05	29345.64
566.21	29359.68
566.38	29628.84
566.54	29558.63
566.70	29755.23
566.87	30096.95
567.03	29631.18
567.19	29940.13
567.36	29839.49
567.52	29785.66
567.68	29820.77
567.85	29605.44
568.01	30110.99
568.17	29848.85
568.34	29956.52
568.50	29656.93
568.66	29930.77
568.83	30403.56
568.99	30242.06
569.15	29895.66
569.32	29579.69
569.48	29673.31
569.64	29689.70
569.81	29926.09
569.97	30391.86
570.13	30237.38
570.30	30038.44
570.46	29797.36
570.62	29881.62
570.78	29900.34
570.95	29837.15
571.11	30010.35
571.27	30237.38
571.43	29675.65
571.60	30302.92
571.76	29902.68
571.92	30047.80
572.09	30139.08
572.25	30260.79
572.41	29916.73
572.57	30054.82
572.74	30277.17
572.90	29968.22
573.06	30188.23
573.22	30335.68
573.38	30064.18
573.55	29848.85
573.71	30373.13
573.87	30417.60
574.03	30370.79
574.20	30541.65
574.36	29607.78
574.52	30272.49
574.68	30129.72
574.84	30363.77
575.01	30019.71
575.17	30211.64
575.33	30309.94
575.49	29883.96
575.65	30258.45
575.82	30323.98
575.98	30181.21
576.14	30314.62
576.30	30235.04
576.46	30354.41
576.62	30216.32
576.79	30190.57
576.95	29839.49
577.11	30375.47
577.27	30548.67
577.43	30199.93
577.59	30485.48
577.75	30307.60
577.92	30302.92
578.08	30160.14
578.24	30340.36
578.40	29741.19
578.56	30452.71
578.72	30508.88
578.88	30841.24
579.04	30668.04
579.21	30174.19
579.37	30153.12
579.53	30490.16
579.69	30263.13
579.85	29968.22
580.01	30419.94
580.17	30340.36
580.33	30352.07
580.49	30202.27
580.65	30445.69
580.82	30335.68
580.98	30520.59
581.14	30382.49
581.30	30387.18
581.46	30122.69
581.62	30012.69
581.78	29851.19
581.94	30391.86
582.10	30342.70
582.26	30389.52
582.42	30834.22
582.58	30436.33
582.74	30445.69
582.90	30871.67
583.06	30553.35
583.22	30511.22
583.38	30422.28
583.54	30380.15
583.70	30363.77
583.86	30576.76
584.02	30024.39
584.18	30543.99
584.34	30316.96
584.50	30656.34
584.66	30429.30
584.82	30354.41
584.98	30251.42
585.14	30698.47
585.30	30101.63
585.46	30071.20
585.62	30185.89
585.78	30422.28
585.94	30169.51
586.10	30459.73
586.26	30431.65
586.42	30726.55
586.58	30761.66
586.74	30778.04
586.90	30230.36
587.06	30483.14
587.22	30555.69
587.38	30883.37
587.54	30749.96
587.70	30717.19
587.86	30967.63
588.02	30611.87
588.18	30375.47
588.34	30618.89
588.49	30691.44
588.65	30859.96
588.81	30452.71
588.97	30609.53
589.13	30452.71
589.29	30714.85
589.45	30579.10
589.61	30951.24
589.77	31077.63
589.93	30801.45
590.08	30946.56
590.24	30759.32
590.40	30890.39
590.56	30829.54
590.72	30616.55
590.88	30824.86
591.04	30536.97
591.20	30984.01
591.35	30911.46
591.51	31079.97
591.67	31248.49
591.83	31456.80
591.99	30794.43
592.15	30953.58
592.31	30981.67
592.46	30707.83
592.62	30981.67
592.78	30473.78
592.94	30878.69
593.10	30429.30
593.26	31260.20
593.41	30866.98
593.57	31030.82
593.73	30892.73
593.89	30962.95
594.05	31173.60
594.20	30918.48
594.36	30721.87
594.52	30974.65
594.68	30675.06
594.84	30799.11
594.99	31082.31
595.15	31157.21
595.31	30904.43
595.47	30969.97
595.62	31042.53
595.78	30874.01
595.94	31227.43
596.10	31206.36
596.25	31047.21
596.41	30866.98
596.57	30869.33
596.73	30787.41
596.88	30639.95
597.04	31192.32
597.20	31337.43
597.36	31063.59
597.51	31349.14
597.67	31047.21
597.83	30775.70
597.99	31070.61
598.14	30934.86
598.30	31068.27
598.46	30806.13
598.61	31054.23
598.77	31058.91
598.93	31452.12
599.09	31475.52
599.24	31248.49
599.40	31290.62
599.56	30838.90
599.71	30843.58
599.87	31405.31
600.03	30778.04
600.18	30820.17
600.34	31140.83
600.50	30902.09
600.65	31206.36
600.81	31484.89
600.97	30909.11
601.12	31407.65
601.28	31049.55
601.44	31445.10
601.59	31346.79
601.75	30597.82
601.91	30941.88
602.06	30981.67
602.22	31070.61
602.37	30904.43
602.53	31442.76
602.69	31269.56
602.84	31218.07
603.00	31262.54
603.16	31145.51
603.31	31236.79
603.47	30984.01
603.62	31189.98
603.78	31220.41
603.94	31328.07
604.09	31241.47
604.25	30995.71
604.40	31044.87
604.56	31199.34
604.71	31459.14
604.87	31152.53
605.03	31276.58
605.18	31157.21
605.34	31175.94
605.49	30686.76
605.65	30838.90
605.80	30841.24
605.96	31002.74
606.12	30710.17
606.27	30995.71
606.43	31012.10
606.58	31281.26
606.74	30698.47
606.89	31070.61
607.05	31498.93
607.20	31089.34
607.36	30962.95
607.51	31297.64
607.67	30799.11
607.82	30654.00
607.98	30855.28
608.13	30855.28
608.29	31014.44
608.44	30869.33
608.60	30801.45
608.75	31302.32
608.91	30953.58
609.06	30951.24
609.22	30937.20
609.37	30452.71
609.53	30773.36
609.68	31089.34
609.84	30426.96
609.99	30925.50
610.15	30473.78
610.30	30946.56
610.46	30691.44
610.61	30852.94
610.76	30820.17
610.92	30742.94
611.07	31019.12
611.23	30455.05
611.38	30405.90
611.54	30553.35
611.69	30878.69
611.84	30625.91
612.00	30518.25
612.15	30785.07
612.31	30759.32
612.46	30728.89
612.62	30789.75
612.77	30747.62
612.92	31459.14
613.08	30712.51
613.23	30616.55
613.39	30412.92
613.54	30242.06
613.69	30483.14
613.85	30384.83
614.00	30689.10
614.15	30745.28
614.31	30424.62
614.46	30923.16
614.62	30733.57
614.77	30616.55
614.92	30307.60
615.08	30391.86
615.23	30558.03
615.38	30782.73
615.54	30061.84
615.69	30595.48
615.84	30230.36
616.00	30546.33
616.15	30118.01
616.30	30270.15
616.46	30281.85
616.61	30335.68
616.76	30684.42
616.92	30534.63
617.07	30103.97
617.22	30354.41
617.37	29467.34
617.53	30345.05
617.68	30183.55
617.83	29963.54
617.99	30000.99
618.14	30221.00
618.29	30272.49
618.45	30059.50
618.60	29949.50
618.75	30225.68
618.90	30075.88
619.06	30279.51
619.21	30237.38
619.36	30235.04
619.51	29858.21
619.67	29820.77
619.82	30125.04
619.97	29790.34
620.12	29799.70
620.28	29677.99
620.43	29771.61
620.58	30054.82
620.73	30300.58
620.89	30696.13
621.04	30031.41
621.19	30288.87
621.34	29895.66
621.49	29677.99
621.65	29741.19
621.80	29972.90
621.95	29364.36
622.10	29867.58
622.25	29273.08
622.41	29933.11
622.56	29635.86
622.71	29724.80
622.86	29731.83
623.01	29605.44
623.16	29823.11
623.32	29914.39
623.47	29413.51
623.62	29408.83
623.77	29497.77
623.92	29841.83
624.07	29355.00
624.23	29055.41
624.38	29509.47
624.53	29446.28
624.68	29593.73
624.83	29109.24
624.98	29670.97
625.13	29383.09
625.29	29312.87
625.44	29762.25
625.59	29027.32
625.74	29441.60
625.89	29294.14
626.04	29191.16
626.19	29029.66
626.34	29570.33
626.49	29095.20
626.65	29219.25
626.80	29177.12
626.95	29312.87
627.10	29418.19
627.25	29259.04
627.40	29340.96
627.55	29172.44
627.70	28858.81
627.85	28929.02
628.00	29240.31
628.15	29228.61
628.30	28704.33
628.45	29046.05
628.60	29097.54
628.76	29287.12
628.91	28966.47
629.06	28922.00
629.21	28982.85
629.36	29104.56
629.51	28896.25
629.66	28893.91
629.81	28463.25
629.96	28601.35
630.11	28687.95
630.26	28659.86
630.41	28470.28
630.56	29174.78
630.71	29020.30
630.86	28739.44
631.01	28741.78
631.16	28940.72
631.31	28514.75
631.46	28599.01
631.61	29092.86
631.76	28563.90
631.91	28814.34
632.06	28657.52
632.21	28711.35
632.36	28484.32
632.51	28273.67
632.66	28428.15
632.81	28180.05
632.96	28362.61
633.10	28297.08
633.25	28404.74
633.40	28460.91
633.55	28479.64
633.70	28507.72
633.85	28290.06
634.00	28233.88
634.15	28229.20
634.30	28018.55
634.45	28250.27
634.60	28177.71
634.75	28376.66
634.90	28133.24
635.05	28526.45
635.19	28252.61
635.34	28367.29
635.49	28060.68
635.64	28465.60
635.79	27941.32
635.94	28095.79
636.09	28196.43
636.24	28187.07
636.39	27990.47
636.53	28128.56
636.68	28393.04
636.83	27955.36
636.98	28423.47
637.13	27857.06
637.28	28196.43
637.43	27943.66
637.57	28266.65
637.72	27676.83
637.87	28048.98
638.02	27751.73
638.17	27545.76
638.32	28364.95
638.46	27410.01
638.61	27601.94
638.76	27386.61
638.91	27508.32
639.06	27676.83
639.20	27573.85
639.35	27541.08
639.50	27964.72
639.65	27988.13
639.80	27871.10
639.94	28198.77
640.09	27864.08
640.24	27789.18
640.39	27365.54
640.54	27583.21
640.68	27812.59
640.83	27384.27
640.98	27136.17
641.13	27243.84
641.27	27604.28
641.42	27323.41
641.57	27494.27
641.72	27452.14
641.86	27262.56
642.01	27424.06
642.16	27234.47
642.31	27138.51
642.45	27470.87
642.60	26962.97
642.75	27049.57
642.90	27253.20
643.04	27204.05
643.19	27075.32
643.34	27164.26
643.48	27311.71
643.63	27515.34
643.78	27662.79
643.93	27201.71
644.07	27702.58
644.22	27009.78
644.37	27239.15
644.51	27304.69
644.66	26808.50
644.81	26972.33
644.95	27147.87
645.10	27028.51
645.25	27290.65
645.39	26766.37
645.54	26955.95
645.69	27215.75
645.83	27194.68
645.98	27112.77
646.13	27161.92
646.27	27080.00
646.42	27171.28
646.57	27033.19
646.71	26862.33
646.86	27136.17
647.00	27168.94
647.15	26845.94
647.30	27012.12
647.44	26551.04
647.59	27122.13
647.74	26925.52
647.88	26593.17
648.03	26773.39
648.17	26869.35
648.32	26686.79
648.47	26895.10
648.61	27082.34
648.76	26920.84
648.90	26796.79
649.05	27206.39
649.20	26551.04
649.34	26539.33
649.49	26483.16
649.63	26368.48
649.78	26560.40
649.92	26188.25
650.07	26539.33
650.21	26593.17
650.36	26513.59
650.51	26345.07
650.65	26199.96
650.80	26682.11
650.94	26120.38
651.09	26242.09
651.23	26139.10
651.38	26368.48
651.52	26354.43
651.67	26438.69
651.81	26232.72
651.96	26118.04
652.10	26394.22
652.25	26075.91
652.39	26349.75
652.54	26485.50
652.68	26288.90
652.83	26267.83
652.97	26450.39
653.12	26258.47
653.26	26167.19
653.41	26274.85
653.55	25954.20
653.70	26108.68
653.84	26040.80
653.99	26169.53
654.13	25813.77
654.27	25993.99
654.42	25963.56
654.56	25776.32
654.71	25933.14
654.85	25748.23
655.00	25982.29
655.14	25872.28
655.29	25860.58
655.43	25979.95
655.57	25811.43
655.72	25593.76
655.86	25844.20
656.01	26017.40
656.15	25593.76
656.30	25649.93
656.44	25656.95
656.58	25593.76
656.73	25727.17
656.87	25745.89
657.01	25663.97
657.16	26174.21
657.30	25584.40
657.45	25521.20
657.59	26148.46
657.73	25483.75
657.88	25467.37
658.02	25502.48
658.16	25544.61
658.31	25490.77
658.45	25291.83
658.60	25202.89
658.74	25376.09
658.88	25432.26
659.03	25408.86
659.17	25348.00
659.31	25357.36
659.46	25408.86
659.60	25439.28
659.74	25156.08
659.89	25404.17
660.03	25348.00
660.17	25436.94
660.32	25179.48
660.46	25039.05
660.60	24882.24
660.74	24865.85
660.89	24744.14
661.03	25069.48
661.17	25088.20
661.32	25146.72
661.46	25102.25
661.60	25275.45
661.74	24898.62
661.89	24655.20
662.03	24580.31
662.17	24910.32
662.31	24758.19
662.46	25078.84
662.60	24945.43
662.74	24460.94
662.88	24292.42
663.03	24325.19
663.17	24430.51
663.31	24187.10
663.45	24381.36
663.60	24685.63
663.74	24166.03
663.88	24414.13
664.02	24566.26
664.17	24554.56
664.31	24250.29
664.45	23962.40
664.59	24091.13
664.73	24156.67
664.88	24245.61
665.02	23934.32
665.16	23894.53
665.30	24016.24
665.44	23946.02
665.59	23903.89
665.73	23990.49
665.87	23824.31
666.01	24222.20
666.15	23756.44
666.29	23571.54
666.44	23955.38
666.58	23814.95
666.72	23976.45
666.86	23793.89
667.00	23871.12
667.14	23805.59
667.28	23630.05
667.43	23821.97
667.57	23494.30
667.71	23250.88
667.85	23466.21
667.99	23351.52
668.13	23215.77
668.27	23463.87
668.41	23487.28
668.56	23281.31
668.70	23175.98
668.84	23576.22
668.98	23367.91
669.12	23363.23
669.26	23328.12
669.40	22698.52
669.54	23157.26
669.68	23065.98
669.82	23138.54
669.96	23035.55
670.10	22728.94
670.25	22944.27
670.39	23070.66
670.53	22855.33
670.67	22602.55
670.81	22878.74
670.95	22988.74
671.09	23063.64
671.23	22501.91
671.37	22637.66
671.51	22902.14
671.65	22794.48
671.79	22497.23
671.93	22410.63
672.07	22719.58
672.21	22752.35
672.35	22237.43
672.49	22150.83
672.63	22099.34
672.77	22295.94
672.91	22052.53
673.05	22279.56
673.19	22249.13
673.33	22204.66
673.47	21876.99
673.61	22286.58
673.75	22052.53
673.89	22251.47
674.03	21748.26
674.17	22024.44
674.31	21830.18
674.45	22005.72
674.59	21703.79
674.73	21621.87
674.87	21703.79
675.01	21523.57
675.15	21603.14
675.29	21144.40
675.43	21706.13
675.56	21479.10
675.70	21434.63
675.84	21284.83
675.98	20587.35
676.12	21516.54
676.26	21439.31
676.40	20978.22
676.54	21142.06
676.68	21160.78
676.82	20678.63
676.96	21032.05
677.10	20870.56
677.23	20528.84
677.37	20542.88
677.51	20360.32
677.65	20615.44
677.79	20271.38
677.93	20411.81
678.07	20156.69
678.21	20184.78
678.34	20514.80
678.48	20264.36
678.62	20264.36
678.76	20245.63
678.90	20278.40
679.04	20247.97
679.18	19964.77
679.31	19707.31
679.45	19716.67
679.59	19459.21
679.73	19754.12
679.87	19473.26
680.00	19524.75
680.14	19702.63
680.28	19412.40
680.42	19564.54
680.56	19520.07
680.70	19601.99
680.83	19168.99
680.97	19208.78
681.11	19295.38
681.25	19311.76
681.39	19016.85
681.52	19199.41
681.66	18972.38
681.80	19112.81
681.94	18597.90
682.07	18927.91
682.21	18513.64
682.35	18560.45
682.49	18523.00
682.62	18658.75
682.76	18602.58
682.90	18518.32
683.04	18265.54
683.17	18633.00
683.31	18448.10
683.45	18335.76
683.59	18242.14
683.72	17998.72
683.86	17980.00
684.00	18228.09
684.13	17944.89
684.27	17947.23
684.41	17893.40
684.55	17514.23
684.68	17755.30
684.82	17628.92
684.96	17479.12
685.09	17539.97
685.23	17539.97
685.37	17397.20
685.50	17734.24
685.64	17680.41
685.78	17439.33
685.91	17504.87
686.05	17521.25
686.19	17121.02
686.32	17207.62
686.46	16758.24
686.60	17097.61
686.73	16933.78
686.87	16882.28
687.01	16814.41
687.14	16772.28
687.28	16582.70
687.42	16795.68
687.55	16210.55
687.69	16683.34
687.82	16512.48
687.96	16631.85
688.10	16191.83
688.23	16484.39
688.37	16407.16
688.50	16238.64
688.64	16145.02
688.78	16245.66
688.91	16042.03
689.05	16262.04
689.18	15735.42
689.32	15910.96
689.46	15803.30
689.59	15599.67
689.73	15665.21
689.86	15421.79
690.00	15737.76
690.13	15854.79
690.27	15515.41
690.41	15503.71
690.54	15508.39
690.68	15489.67
690.81	15522.43
690.95	15468.60
691.08	15257.95
691.22	15098.80
691.35	15290.72
691.49	14974.75
691.62	15108.16
691.76	14960.70
691.89	15112.84
692.03	14712.61
692.16	14635.37
692.30	14736.01
692.43	14436.42
692.57	14621.33
692.70	14607.28
692.84	14562.81
692.97	14338.12
693.11	14277.27
693.24	14466.85
693.38	14162.58
693.51	14401.32
693.65	14310.04
693.78	14200.03
693.92	14396.64
694.05	13980.02
694.19	14033.85
694.32	14176.62
694.45	13724.90
694.59	13870.01
694.72	13682.77
694.86	13797.46
694.99	13500.21
695.13	13334.03
695.26	13575.11
695.39	13542.34
695.53	13537.66
695.66	13446.38
695.80	13404.25
695.93	13530.64
696.07	13483.83
696.20	13336.37
696.33	13116.36
696.47	13198.28
696.60	12929.12
696.73	13188.92
696.87	13111.68
697.00	12978.27
697.14	12903.37
697.27	12624.85
697.40	12816.77
697.54	12556.97
697.67	12477.40
697.80	12688.04
697.94	12449.31
698.07	12547.61
698.21	12336.96
698.34	12472.71
698.47	12629.53
698.61	12285.47
698.74	12533.57
698.87	12533.57
699.01	12336.96
699.14	11910.99
699.27	12107.59
699.40	11887.58
699.54	11831.41
699.67	11899.28
699.80	11920.35
699.94	11714.38
700.07	11587.99
700.20	11580.97
700.34	11433.52
700.47	11536.50
700.60	11595.01
700.73	11496.71
700.87	11424.15
701.00	11255.64
701.13	11592.67
701.26	11236.91
701.40	11403.09
701.53	11234.57
701.66	11386.71
701.79	10974.77
701.93	11199.46
702.06	10949.03
702.19	10846.04
702.32	10803.91
702.46	10822.64
702.59	10827.32
702.72	10911.58
702.85	10696.25
702.99	10586.24
703.12	10602.63
703.25	10532.41
703.38	10579.22
703.51	10516.03
703.65	10621.35
703.78	10450.49
703.91	10345.17
704.04	10504.32
704.17	10450.49
704.31	10298.36
704.44	10406.02
704.57	10221.12
704.70	10162.61
704.83	9867.70
704.96	10146.22
705.10	9900.47
705.23	9827.91
>>>>>End Processed Spectral Data<<<<<
