SpectraSuite Data File
++++++++++++++++++++++++++++++++++++
Date: Fri Oct 18 13:58:09 GMT-05:00 2013
User: bianchi
Dark Spectrum Present: No
Reference Spectrum Present: No
Number of Sampled Component Spectra: 1
Spectrometers: USB2+H05261
Integration Time (usec): 50000 (USB2+H05261)
Spectra Averaged: 1 (USB2+H05261)
Boxcar Smoothing: 0 (USB2+H05261)
Correct for Electrical Dark: No (USB2+H05261)
Strobe/Lamp Enabled: No (USB2+H05261)
Correct for Detector Non-linearity: No (USB2+H05261)
Correct for Stray Light: No (USB2+H05261)
Number of Pixels in Processed Spectrum: 2048
>>>>>Begin Processed Spectral Data<<<<<
365.73	0.00
365.92	0.00
366.12	0.00
366.32	0.00
366.52	0.00
366.72	0.00
366.91	0.00
367.11	0.00
367.31	0.00
367.51	0.00
367.70	0.00
367.90	0.00
368.10	0.00
368.30	0.00
368.49	0.00
368.69	0.00
368.89	0.00
369.09	0.00
369.28	0.00
369.48	0.00
369.68	0.00
369.87	0.00
370.07	0.00
370.27	0.00
370.47	0.00
370.66	51.49
370.86	121.71
371.06	135.75
371.25	112.35
371.45	107.66
371.65	170.86
371.84	119.37
372.04	81.92
372.24	128.73
372.44	138.09
372.63	180.22
372.83	201.29
373.03	173.20
373.22	224.69
373.42	203.63
373.62	259.80
373.81	220.01
374.01	173.20
374.21	287.89
374.40	245.76
374.60	222.35
374.79	205.97
374.99	259.80
375.19	205.97
375.38	269.16
375.58	250.44
375.78	290.23
375.97	250.44
376.17	311.29
376.37	276.18
376.56	266.82
376.76	184.90
376.95	255.12
377.15	222.35
377.35	306.61
377.54	259.80
377.74	224.69
377.93	273.84
378.13	236.39
378.33	259.80
378.52	278.52
378.72	250.44
378.91	222.35
379.11	290.23
379.31	262.14
379.50	266.82
379.70	341.72
379.89	283.20
380.09	278.52
380.28	287.89
380.48	266.82
380.68	252.78
380.87	337.04
381.07	344.06
381.26	362.78
381.46	395.55
381.65	348.74
381.85	339.38
382.04	390.87
382.24	332.36
382.43	341.72
382.63	414.27
382.83	292.57
383.02	360.44
383.22	393.21
383.41	365.12
383.61	376.83
383.80	379.17
384.00	348.74
384.19	358.10
384.39	397.89
384.58	355.76
384.78	325.33
384.97	435.34
385.17	374.49
385.36	327.68
385.56	414.27
385.75	367.46
385.95	393.21
386.14	437.68
386.34	381.51
386.53	458.74
386.72	388.53
386.92	447.04
387.11	416.62
387.31	461.09
387.50	404.91
387.70	393.21
387.89	393.21
388.09	334.70
388.28	421.30
388.48	447.04
388.67	493.85
388.86	416.62
389.06	437.68
389.25	470.45
389.45	486.83
389.64	498.53
389.84	493.85
390.03	545.34
390.22	491.51
390.42	433.00
390.61	482.15
390.81	416.62
391.00	526.62
391.19	433.00
391.39	505.56
391.58	465.77
391.78	552.37
391.97	519.60
392.16	540.66
392.36	545.34
392.55	538.32
392.75	547.69
392.94	533.64
393.13	535.98
393.33	503.22
393.52	627.26
393.71	552.37
393.91	528.96
394.10	596.84
394.29	634.29
394.49	650.67
394.68	676.41
394.88	636.63
395.07	564.07
395.26	620.24
395.46	655.35
395.65	697.48
395.84	615.56
396.04	676.41
396.23	655.35
396.42	688.12
396.62	685.78
396.81	730.25
397.00	631.94
397.19	650.67
397.39	716.20
397.58	692.80
397.77	631.94
397.97	594.50
398.16	760.67
398.35	809.83
398.55	671.73
398.74	704.50
398.93	755.99
399.12	723.23
399.32	676.41
399.51	798.12
399.70	688.12
399.90	709.18
400.09	798.12
400.28	844.93
400.47	805.14
400.67	779.40
400.86	781.74
401.05	791.10
401.24	847.27
401.44	767.70
401.63	835.57
401.82	802.80
402.01	791.10
402.21	767.70
402.40	816.85
402.59	861.32
402.78	877.70
402.97	908.13
403.17	964.30
403.36	983.02
403.55	912.81
403.74	957.28
403.93	910.47
404.13	1011.11
404.32	931.53
404.51	947.92
404.70	1032.18
404.89	884.72
405.09	1004.09
405.28	968.98
405.47	971.32
405.66	961.96
405.85	1015.79
406.05	1034.52
406.24	997.07
406.43	919.83
406.62	997.07
406.81	1109.41
407.00	1008.77
407.20	940.90
407.39	1086.01
407.58	1074.31
407.77	1046.22
407.96	1188.99
408.15	1057.92
408.34	1095.37
408.54	1011.11
408.73	1090.69
408.92	1100.05
409.11	1149.20
409.30	1221.76
409.49	1200.69
409.68	1151.54
409.87	1160.91
410.07	1219.42
410.26	1235.80
410.45	1210.06
410.64	1266.23
410.83	1172.61
411.02	1256.87
411.21	1303.68
411.40	1184.31
411.59	1320.06
411.78	1280.27
411.98	1275.59
412.17	1322.40
412.36	1310.70
412.55	1411.34
412.74	1352.83
412.93	1401.98
413.12	1430.07
413.31	1474.54
413.50	1348.15
413.69	1355.17
413.88	1455.81
414.07	1383.26
414.26	1432.41
414.45	1514.33
414.64	1535.39
414.83	1640.72
415.02	1483.90
415.22	1596.25
415.41	1558.80
415.60	1533.05
415.79	1605.61
415.98	1596.25
416.17	1643.06
416.36	1706.25
416.55	1577.52
416.74	1710.93
416.93	1877.11
417.12	1682.85
417.31	1748.38
417.50	1715.61
417.69	1664.12
417.88	1806.89
418.07	1809.23
418.26	1682.85
418.45	1830.30
418.64	1881.79
418.83	1788.17
419.02	1783.49
419.21	1757.74
419.39	1898.17
419.58	1856.04
419.77	1842.00
419.96	1930.94
420.15	1991.80
420.34	1825.62
420.53	1966.05
420.72	1888.81
420.91	1881.79
421.10	1959.03
421.29	1961.37
421.48	1956.69
421.67	2094.78
421.86	1926.26
422.05	1996.48
422.24	2047.97
422.43	2069.03
422.61	2050.31
422.80	2017.54
422.99	1975.41
423.18	2052.65
423.37	2108.82
423.56	2179.04
423.75	1956.69
423.94	1959.03
424.13	1907.54
424.32	1937.96
424.50	2094.78
424.69	2062.01
424.88	2155.63
425.07	2010.52
425.26	1973.07
425.45	2031.58
425.64	2157.97
425.83	2071.37
426.01	2101.80
426.20	2038.61
426.39	2031.58
426.58	2162.66
426.77	2083.08
426.96	2059.67
427.15	2076.06
427.33	2143.93
427.52	2118.18
427.71	2150.95
427.90	2167.34
428.09	2127.55
428.28	2132.23
428.46	2228.19
428.65	2232.87
428.84	2256.28
429.03	2242.23
429.22	2260.96
429.40	2216.49
429.59	2298.41
429.78	2251.60
429.97	2195.42
430.16	2286.70
430.34	2324.15
430.53	2377.98
430.72	2286.70
430.91	2277.34
431.10	2321.81
431.28	2506.71
431.47	2331.17
431.66	2431.82
431.85	2490.33
432.03	2490.33
432.22	2340.54
432.41	2441.18
432.60	2457.56
432.79	2457.56
432.97	2385.01
433.16	2509.05
433.35	2567.57
433.54	2569.91
433.72	2579.27
433.91	2539.48
434.10	2480.97
434.28	2509.05
434.47	2476.29
434.66	2555.86
434.85	2689.28
435.03	2553.52
435.22	2597.99
435.41	2696.30
435.59	2766.51
435.78	2775.88
435.97	2654.17
436.16	2691.62
436.34	2647.15
436.53	2825.03
436.72	2764.17
436.90	2630.76
437.09	2750.13
437.28	2841.41
437.46	2679.91
437.65	2785.24
437.84	2759.49
438.02	2815.66
438.21	2752.47
438.40	2825.03
438.58	2939.71
438.77	2918.65
438.96	2913.97
439.14	3049.72
439.33	3080.14
439.52	3005.25
439.70	3045.04
439.89	3033.33
440.08	3133.98
440.26	3143.34
440.45	3133.98
440.63	2993.55
440.82	3243.98
441.01	3159.72
441.19	3183.13
441.38	3290.79
441.57	3126.96
441.75	3215.90
441.94	3241.64
442.12	3243.98
442.31	3475.70
442.50	3396.12
442.68	3225.26
442.87	3435.91
443.05	3414.84
443.24	3506.12
443.43	3515.48
443.61	3473.36
443.80	3431.23
443.98	3321.22
444.17	3243.98
444.35	3524.85
444.54	3412.50
444.73	3407.82
444.91	3461.65
445.10	3428.88
445.28	3517.83
445.47	3471.01
445.65	3445.27
445.84	3494.42
446.02	3602.08
446.21	3552.93
446.39	3431.23
446.58	3611.45
446.77	3508.46
446.95	3606.77
447.14	3602.08
447.32	3557.61
447.51	3510.80
447.69	3480.38
447.88	3506.12
448.06	3581.02
448.25	3499.10
448.43	3527.19
448.62	3597.40
448.80	3679.32
448.99	3613.79
449.17	3667.62
449.36	3613.79
449.54	3637.19
449.73	3808.05
449.91	3660.60
450.10	3634.85
450.28	3845.50
450.46	3908.69
450.65	3861.88
450.83	3765.92
451.02	3712.09
451.20	3829.12
451.39	3847.84
451.57	3829.12
451.76	3735.50
451.94	3957.85
452.13	3894.65
452.31	3873.59
452.49	3904.01
452.68	3859.54
452.86	3894.65
453.05	3962.53
453.23	3997.64
453.42	3992.95
453.60	4140.41
453.78	4007.00
453.97	4009.34
454.15	3929.76
454.34	4011.68
454.52	4119.34
454.70	4170.83
454.89	4142.75
455.07	3971.89
455.26	3960.19
455.44	4217.65
455.62	4173.18
455.81	4152.11
455.99	4210.62
456.17	4217.65
456.36	4250.41
456.54	4360.42
456.73	4271.48
456.91	4332.33
457.09	4297.22
457.28	4491.49
457.46	4423.61
457.64	4451.70
457.83	4465.74
458.01	4393.19
458.19	4374.46
458.38	4362.76
458.56	4475.10
458.74	4606.17
458.93	4472.76
459.11	4456.38
459.29	4353.40
459.48	4535.96
459.66	4641.28
459.84	4496.17
460.03	4667.03
460.21	4690.43
460.39	4788.74
460.57	4652.98
460.76	4617.88
460.94	4622.56
461.12	4770.01
461.31	4683.41
461.49	4699.80
461.67	4793.42
461.85	4755.97
462.04	4880.02
462.22	4999.38
462.40	4823.84
462.59	4816.82
462.77	4877.68
462.95	4884.70
463.13	4840.23
463.32	4959.60
463.50	4737.24
463.68	4959.60
463.86	4919.81
464.05	4835.55
464.23	4849.59
464.41	4997.04
464.59	4887.04
464.78	4983.00
464.96	4938.53
465.14	5107.05
465.32	5261.52
465.50	5151.52
465.69	5078.96
465.87	4945.55
466.05	5214.71
466.23	5022.79
466.41	5294.29
466.60	5273.23
466.78	5069.60
466.96	5226.42
467.14	5093.01
467.32	5242.80
467.51	5317.70
467.69	5135.14
467.87	5083.64
468.05	5455.79
468.23	5219.39
468.41	5179.61
468.60	5214.71
468.78	5416.00
468.96	5135.14
469.14	5345.78
469.32	5352.81
469.50	5336.42
469.69	5497.92
469.87	5474.51
470.05	5420.68
470.23	5406.64
470.41	5554.09
470.59	5537.71
470.77	5511.96
470.95	5659.42
471.14	5650.05
471.32	5631.33
471.50	5795.17
471.68	5668.78
471.86	5757.72
472.04	5823.25
472.22	5912.19
472.40	5790.49
472.58	5755.38
472.77	5902.83
472.95	5914.53
473.13	6253.91
473.31	5867.72
473.49	5863.04
473.67	5863.04
473.85	5942.62
474.03	6071.35
474.21	6113.48
474.39	6354.55
474.57	6274.98
474.75	6413.07
474.93	6363.92
475.12	6209.44
475.30	6324.13
475.48	6370.94
475.66	6406.05
475.84	6319.45
476.02	6359.24
476.20	6431.79
476.38	6560.52
476.56	6672.87
476.74	6590.95
476.92	6553.50
477.10	6768.83
477.28	6869.47
477.46	6619.04
477.64	6942.03
477.82	6846.07
478.00	7061.40
478.18	6949.05
478.36	7220.55
478.54	7248.64
478.72	7342.26
478.90	7349.28
479.08	7321.20
479.26	7431.20
479.44	7515.46
479.62	7304.81
479.80	7616.10
479.98	7581.00
480.16	7763.56
480.34	7480.35
480.52	7557.59
480.70	7967.18
480.88	7772.92
481.06	7805.69
481.24	7777.60
481.41	7957.82
481.59	8093.57
481.77	8252.73
481.95	7992.93
482.13	8341.67
482.31	8299.54
482.49	8365.07
482.67	8140.38
482.85	8599.13
483.03	8688.07
483.21	8631.90
483.39	8702.11
483.57	8849.57
483.74	8999.36
483.92	8828.50
484.10	8814.46
484.28	9238.09
484.46	8982.98
484.64	9245.12
484.82	9221.71
485.00	9275.54
485.18	9666.41
485.35	9420.66
485.53	9465.13
485.71	9708.54
485.89	9687.48
486.07	9570.45
486.25	9783.44
486.43	9820.89
486.61	9966.00
486.78	10113.45
486.96	10073.67
487.14	10296.02
487.32	10338.15
487.50	10359.21
487.68	10436.45
487.85	10626.03
488.03	10626.03
488.21	10869.45
488.39	10899.87
488.57	10883.49
488.75	10757.10
488.92	11037.97
489.10	11145.63
489.28	11199.46
489.46	11398.41
489.64	11260.32
489.81	11503.73
489.99	11529.48
490.17	11534.16
490.35	11641.82
490.53	11843.11
490.70	11737.79
490.88	12016.31
491.06	12156.74
491.24	11985.88
491.41	12107.59
491.59	12269.09
491.77	12411.86
491.95	12290.15
492.13	12362.71
492.30	12538.25
492.48	12601.44
492.66	12484.42
492.84	12685.70
493.01	12868.27
493.19	12718.47
493.37	13322.33
493.54	13041.46
493.72	13095.30
493.90	13053.17
494.08	13252.11
494.25	13486.17
494.43	13558.72
494.61	13577.45
494.79	13556.38
494.96	13582.13
495.14	13591.49
495.32	13778.73
495.49	14005.77
495.67	14162.58
495.85	13961.30
496.02	14075.98
496.20	14200.03
496.38	14389.61
496.55	14539.41
496.73	14499.62
496.91	14345.14
497.09	14485.58
497.26	14740.69
497.44	14637.71
497.62	14768.78
497.79	14881.13
497.97	14995.81
498.14	15208.80
498.32	15178.37
498.50	14937.30
498.67	15484.98
498.85	15232.21
499.03	15328.17
499.20	15304.76
499.38	15234.55
499.56	15307.10
499.73	15623.08
499.91	15536.48
500.08	15784.57
500.26	15655.84
500.44	15782.23
500.61	16002.24
500.79	15726.06
500.97	16027.99
501.14	16561.63
501.32	16042.03
501.49	16109.91
501.67	16046.71
501.84	16212.89
502.02	16348.64
502.20	16540.57
502.37	16477.37
502.55	16332.26
502.72	16587.38
502.90	16578.01
503.07	16507.80
503.25	16573.33
503.43	16542.91
503.60	16996.97
503.78	16987.61
503.95	16957.18
504.13	17064.85
504.30	16957.18
504.48	16718.45
504.65	17214.64
504.83	17282.52
505.01	17331.67
505.18	17373.80
505.36	17191.23
505.53	17209.96
505.71	17216.98
505.88	17355.07
506.06	17371.46
506.23	17844.24
506.41	17652.32
506.58	17877.01
506.76	17891.06
506.93	18113.41
507.11	17771.69
507.28	17813.82
507.46	18059.57
507.63	17642.96
507.81	18422.36
507.98	18181.28
508.16	18216.39
508.33	18450.44
508.50	18160.22
508.68	18319.37
508.85	18724.29
509.03	18263.20
509.20	18675.13
509.38	18878.76
509.55	18721.95
509.73	18953.66
509.90	18806.20
510.08	18778.12
510.25	18703.22
510.42	19080.05
510.60	19098.77
510.77	19126.86
510.95	19407.72
511.12	18977.06
511.30	19396.02
511.47	19213.46
511.64	19349.21
511.82	19445.17
511.99	19323.46
512.17	19440.49
512.34	19241.54
512.51	19461.55
512.69	19674.54
512.86	19674.54
513.04	19726.04
513.21	19786.89
513.38	19950.73
513.56	19857.10
513.73	19695.61
513.90	20016.26
514.08	20084.14
514.25	19674.54
514.43	20152.01
514.60	20362.66
514.77	20336.91
514.95	20482.03
515.12	20173.08
515.29	20191.80
515.47	20702.04
515.64	20528.84
515.81	20641.18
515.99	20615.44
516.16	20786.30
516.33	20737.15
516.51	20947.79
516.68	20680.97
516.85	20510.11
517.03	21029.71
517.20	20912.69
517.37	20847.15
517.54	21317.60
517.72	20952.48
517.89	20711.40
518.06	20994.61
518.24	20992.26
518.41	21097.59
518.58	21476.76
518.75	21263.77
518.93	21104.61
519.10	21219.30
519.27	22122.74
519.45	21483.78
519.62	21404.20
519.79	21441.65
519.96	21682.72
520.14	21563.36
520.31	21542.29
520.48	21631.23
520.65	21771.66
520.83	21972.95
521.00	22111.04
521.17	21621.87
521.34	21979.97
521.52	21865.28
521.69	21891.03
521.86	22178.92
522.03	22277.22
522.20	22494.89
522.38	22270.20
522.55	22405.95
522.72	22321.69
522.89	22335.73
523.07	22883.42
523.24	22398.93
523.41	22469.14
523.58	22455.10
523.75	22661.07
523.92	22555.74
524.10	22824.90
524.27	22635.32
524.44	23096.41
524.61	22820.22
524.78	23040.23
524.96	22927.89
525.13	22932.57
525.30	23321.10
525.47	23421.74
525.64	23044.91
525.81	23412.38
525.98	23576.22
526.16	23463.87
526.33	23220.45
526.50	23271.95
526.67	23412.38
526.84	22998.10
527.01	23445.15
527.18	23264.92
527.36	23824.31
527.53	23611.32
527.70	24056.03
527.87	23875.80
528.04	23763.46
528.21	23964.75
528.38	23927.30
528.55	23697.92
528.72	23793.89
528.89	23791.55
529.07	23599.62
529.24	24004.53
529.41	24318.17
529.58	24109.86
529.75	23697.92
529.92	23777.50
530.09	24189.44
530.26	24467.96
530.43	24287.74
530.60	24229.23
530.77	24201.14
530.94	24053.69
531.11	24245.61
531.28	24039.64
531.46	24482.00
531.63	24486.68
531.80	24704.35
531.97	24716.06
532.14	24645.84
532.31	24467.96
532.48	24641.16
532.65	24975.86
532.82	24559.24
532.99	24973.52
533.16	25001.60
533.33	24952.45
533.50	25261.40
533.67	24840.11
533.84	25008.62
534.01	24797.98
534.18	24758.19
534.35	24999.26
534.52	25017.99
534.69	25221.61
534.86	25443.96
535.03	25406.52
535.20	25001.60
535.37	25317.57
535.54	25181.82
535.71	25034.37
535.88	25612.48
536.05	25462.69
536.22	25645.25
536.38	25497.80
536.55	25628.87
536.72	25558.65
536.89	25858.24
537.06	25383.11
537.23	25848.88
537.40	25738.87
537.57	25565.67
537.74	25755.26
537.91	25930.80
538.08	25757.60
538.25	25900.37
538.42	25947.18
538.59	26291.24
538.75	25846.54
538.92	25900.37
539.09	26146.12
539.26	26223.36
539.43	26015.05
539.60	26176.55
539.77	26129.74
539.94	26054.84
540.11	26139.10
540.28	26099.31
540.44	26071.23
540.61	26139.10
540.78	26316.98
540.95	26300.60
541.12	25827.81
541.29	26382.52
541.46	26328.69
541.62	26277.19
541.79	26377.84
541.96	26045.48
542.13	26607.21
542.30	26520.61
542.47	26803.82
542.63	26944.25
542.80	26698.49
542.97	26745.30
543.14	26981.70
543.31	26635.30
543.48	26892.76
543.64	26745.30
543.81	27433.42
543.98	27585.55
544.15	27440.44
544.32	27328.10
544.48	27278.94
544.65	27260.22
544.82	26871.69
544.99	26817.86
545.16	27068.30
545.32	27185.32
545.49	27608.96
545.66	27461.51
545.83	27281.28
546.00	27442.78
546.16	27442.78
546.33	27524.70
546.50	27119.79
546.67	27410.01
546.83	27328.10
547.00	27730.67
547.17	27513.00
547.34	27653.43
547.50	27709.60
547.67	27967.06
547.84	27817.27
548.00	27871.10
548.17	27920.25
548.34	27749.39
548.51	28091.11
548.67	27718.96
548.84	28196.43
549.01	27740.03
549.18	27637.05
549.34	28086.43
549.51	27805.56
549.68	27835.99
549.84	28074.73
550.01	27976.42
550.18	28013.87
550.34	28273.67
550.51	28245.58
550.68	28386.02
550.84	27814.93
551.01	28121.54
551.18	28009.19
551.34	27913.23
551.51	28112.17
551.68	28116.86
551.84	28449.21
552.01	28563.90
552.18	28582.62
552.34	28163.67
552.51	28535.81
552.68	27934.29
552.84	28409.42
553.01	28910.30
553.18	28524.11
553.34	28591.98
553.51	28587.30
553.67	28411.76
553.84	28924.34
554.01	29074.13
554.17	28821.36
554.34	28783.91
554.51	28517.09
554.67	28727.74
554.84	28994.56
555.00	29085.84
555.17	28889.23
555.33	28989.88
555.50	28538.15
555.67	28872.85
555.83	28982.85
556.00	28559.22
556.16	29163.08
556.33	28992.22
556.50	29144.35
556.66	29223.93
556.83	28861.15
556.99	29223.93
557.16	29158.39
557.32	29144.35
557.49	28814.34
557.65	28720.71
557.82	29062.43
557.98	28999.24
558.15	28751.14
558.32	29275.42
558.48	29408.83
558.65	29483.73
558.81	29137.33
558.98	29216.91
559.14	29570.33
559.31	29099.88
559.47	29308.19
559.64	29282.44
559.80	29411.17
559.97	29345.64
560.13	29694.38
560.30	29542.24
560.46	29675.65
560.63	29443.94
560.79	29366.70
560.96	29551.60
561.12	29312.87
561.29	28739.44
561.45	29390.11
561.61	29680.33
561.78	29790.34
561.94	29790.34
562.11	29570.33
562.27	29895.66
562.44	29802.04
562.60	29525.86
562.77	29441.60
562.93	29373.72
563.10	30204.61
563.26	29872.26
563.42	29928.43
563.59	29979.92
563.75	29965.88
563.92	30270.15
564.08	29528.20
564.24	29942.47
564.41	29570.33
564.57	29537.56
564.74	29551.60
564.90	29902.68
565.07	29954.18
565.23	29830.13
565.39	30185.89
565.56	29720.12
565.72	29738.85
565.88	30125.04
566.05	29542.24
566.21	29706.08
566.38	29717.78
566.54	29673.31
566.70	30272.49
566.87	30473.78
567.03	30354.41
567.19	30328.66
567.36	29928.43
567.52	30022.05
567.68	30237.38
567.85	29855.87
568.01	30096.95
568.17	29865.24
568.34	29930.77
568.50	30071.20
568.66	30242.06
568.83	30274.83
568.99	29919.07
569.15	30623.57
569.32	30162.48
569.48	29984.60
569.64	30457.39
569.81	30036.09
569.97	29926.09
570.13	30169.51
570.30	29685.01
570.46	30235.04
570.62	30183.55
570.78	30309.94
570.95	30490.16
571.11	30555.69
571.27	29764.59
571.43	30260.79
571.60	30284.19
571.76	30267.81
571.92	30314.62
572.09	30249.08
572.25	30389.52
572.41	30419.94
572.57	30436.33
572.74	30581.44
572.90	30668.04
573.06	30618.89
573.22	30424.62
573.38	30614.21
573.55	29837.15
573.71	30508.88
573.87	30443.35
574.03	30361.43
574.20	30394.20
574.36	30288.87
574.52	30405.90
574.68	30118.01
574.84	30176.53
575.01	30457.39
575.17	30501.86
575.33	30319.30
575.49	30366.11
575.65	30466.75
575.82	30410.58
575.98	30382.49
576.14	30506.54
576.30	30478.46
576.46	30476.12
576.62	30443.35
576.79	30162.48
576.95	30370.79
577.11	30651.66
577.27	30448.03
577.43	30333.34
577.59	30602.50
577.75	30600.16
577.92	30223.34
578.08	30501.86
578.24	30529.95
578.40	30604.84
578.56	31138.49
578.72	30719.53
578.88	30789.75
579.04	30845.92
579.21	30829.54
579.37	30682.08
579.53	30986.35
579.69	30504.20
579.85	30506.54
580.01	30787.41
580.17	30464.41
580.33	30244.40
580.49	30668.04
580.65	30778.04
580.82	30415.26
580.98	30962.95
581.14	30803.79
581.30	30916.14
581.46	30576.76
581.62	30532.29
581.78	30632.93
581.94	31007.42
582.10	30558.03
582.26	30733.57
582.42	30569.74
582.58	31131.47
582.74	30836.56
582.90	31091.68
583.06	31124.44
583.22	30927.84
583.38	30696.13
583.54	30703.15
583.70	30728.89
583.86	30810.81
584.02	30838.90
584.18	31040.18
584.34	30918.48
584.50	31166.57
584.66	30675.06
584.82	30555.69
584.98	30670.38
585.14	30838.90
585.30	30497.18
585.46	30635.27
585.62	30398.88
585.78	31023.80
585.94	30579.10
586.10	31175.94
586.26	30742.94
586.42	30927.84
586.58	30623.57
586.74	30771.02
586.90	30574.42
587.06	30953.58
587.22	30635.27
587.38	30785.07
587.54	30902.09
587.70	30974.65
587.86	31005.08
588.02	31070.61
588.18	30937.20
588.34	30934.86
588.49	30906.77
588.65	30927.84
588.81	30771.02
588.97	31103.38
589.13	30712.51
589.29	30780.39
589.45	30993.37
589.61	31051.89
589.77	31208.70
589.93	31115.08
590.08	31218.07
590.24	31295.30
590.40	31438.08
590.56	30897.41
590.72	31016.78
590.88	30614.21
591.04	30979.33
591.20	31386.58
591.35	30672.72
591.51	31232.11
591.67	31367.86
591.83	31318.71
591.99	30766.34
592.15	31115.08
592.31	31253.17
592.46	31075.29
592.62	30632.93
592.78	30820.17
592.94	31318.71
593.10	30675.06
593.26	31171.25
593.41	30976.99
593.57	31178.28
593.73	31173.60
593.89	31414.67
594.05	30913.80
594.20	31101.04
594.36	31349.14
594.52	31063.59
594.68	31023.80
594.84	31218.07
594.99	31089.34
595.15	31447.44
595.31	31421.69
595.47	31166.57
595.62	31489.57
595.78	31311.69
595.94	31321.05
596.10	31716.60
596.25	31096.36
596.41	30974.65
596.57	31068.27
596.73	31253.17
596.88	30930.18
597.04	31391.26
597.20	31548.08
597.36	31531.70
597.51	31573.83
597.67	31346.79
597.83	31065.93
597.99	31536.38
598.14	31255.51
598.30	31393.61
598.46	31255.51
598.61	31351.48
598.77	30909.11
598.93	31573.83
599.09	31260.20
599.24	31587.87
599.40	31536.38
599.56	31658.09
599.71	31468.50
599.87	31243.81
600.03	31295.30
600.18	31101.04
600.34	31454.46
600.50	31470.84
600.65	31580.85
600.81	31517.65
600.97	31566.81
601.12	31407.65
601.28	31735.32
601.44	31384.24
601.59	31461.48
601.75	31470.84
601.91	31278.92
602.06	31220.41
602.22	31690.85
602.37	31690.85
602.53	31180.62
602.69	31529.36
602.84	31702.56
603.00	31274.24
603.16	31791.50
603.31	31527.02
603.47	31470.84
603.62	31297.64
603.78	31400.63
603.94	31239.13
604.09	31292.96
604.25	31304.67
604.40	31271.90
604.56	31571.49
604.71	31468.50
604.87	31426.37
605.03	31700.22
605.18	31426.37
605.34	31405.31
605.49	31454.46
605.65	31084.65
605.80	30829.54
605.96	31229.77
606.12	31494.25
606.27	31447.44
606.43	31154.87
606.58	31384.24
606.74	31264.88
606.89	31566.81
607.05	31407.65
607.20	31512.97
607.36	31290.62
607.51	31339.77
607.67	31393.61
607.82	31234.45
607.98	30969.97
608.13	31115.08
608.29	31068.27
608.44	31239.13
608.60	31470.84
608.75	31398.29
608.91	31409.99
609.06	31414.67
609.22	31187.64
609.37	31288.28
609.53	31288.28
609.68	31154.87
609.84	31253.17
609.99	31227.43
610.15	31063.59
610.30	31302.32
610.46	31002.74
610.61	30965.29
610.76	31248.49
610.92	31147.85
611.07	30976.99
611.23	31117.42
611.38	30904.43
611.54	30719.53
611.69	30801.45
611.84	31206.36
612.00	31145.51
612.15	30852.94
612.31	30878.69
612.46	30976.99
612.62	31058.91
612.77	31288.28
612.92	30944.22
613.08	30923.16
613.23	31079.97
613.39	31016.78
613.54	30904.43
613.69	30815.49
613.85	30696.13
614.00	30670.38
614.15	30965.29
614.31	30677.40
614.46	30590.80
614.62	30771.02
614.77	30850.60
614.92	30885.71
615.08	30670.38
615.23	30862.30
615.38	30855.28
615.54	30513.56
615.69	30635.27
615.84	30017.37
616.00	30473.78
616.15	30646.97
616.30	30895.07
616.46	30401.22
616.61	30799.11
616.76	30787.41
616.92	30274.83
617.07	30590.80
617.22	30415.26
617.37	30391.86
617.53	30820.17
617.68	30321.64
617.83	30094.61
617.99	30424.62
618.14	30403.56
618.29	30586.12
618.45	30590.80
618.60	30436.33
618.75	30408.24
618.90	30494.84
619.06	30625.91
619.21	30010.35
619.36	29837.15
619.51	30441.01
619.67	30099.29
619.82	30082.91
619.97	30331.00
620.12	29635.86
620.28	30401.22
620.43	30274.83
620.58	30459.73
620.73	30361.43
620.89	30225.68
621.04	30221.00
621.19	30366.11
621.34	30338.02
621.49	30160.14
621.65	30256.11
621.80	30050.14
621.95	29839.49
622.10	29951.84
622.25	29853.53
622.41	30005.67
622.56	29724.80
622.71	29907.37
622.86	30136.74
623.01	30228.02
623.16	29905.02
623.32	29605.44
623.47	29720.12
623.62	29656.93
623.77	29993.97
623.92	30052.48
624.07	29570.33
624.23	30059.50
624.38	29944.81
624.53	29720.12
624.68	29853.53
624.83	29886.30
624.98	29773.95
625.13	29979.92
625.29	29357.34
625.44	29670.97
625.59	29191.16
625.74	29355.00
625.89	29539.90
626.04	29261.38
626.19	29743.53
626.34	29652.25
626.49	29364.36
626.65	29259.04
626.80	29656.93
626.95	29099.88
627.10	29549.26
627.25	29809.06
627.40	29359.68
627.55	29001.58
627.70	29104.56
627.85	29237.97
628.00	29287.12
628.15	29427.56
628.30	29219.25
628.45	29436.92
628.60	29170.10
628.76	29696.72
628.91	29284.78
629.06	29296.49
629.21	29483.73
629.36	29350.32
629.51	29530.54
629.66	29310.53
629.81	28826.04
629.96	29104.56
630.11	29142.01
630.26	29006.26
630.41	28933.70
630.56	28912.64
630.71	29057.75
630.86	28889.23
631.01	29174.78
631.16	29462.66
631.31	28683.27
631.46	28673.90
631.61	29069.45
631.76	28601.35
631.91	28924.34
632.06	28622.41
632.21	28641.14
632.36	29034.35
632.51	28781.57
632.66	29003.92
632.81	28570.92
632.96	28987.53
633.10	28971.15
633.25	28872.85
633.40	29134.99
633.55	28922.00
633.70	28472.62
633.85	28577.94
634.00	28678.58
634.15	28521.77
634.30	28496.02
634.45	28505.38
634.60	28409.42
634.75	28730.08
634.90	28723.05
635.05	28615.39
635.19	28390.70
635.34	28837.74
635.49	28772.21
635.64	28528.79
635.79	28868.17
635.94	28318.14
636.09	28257.29
636.24	28481.98
636.39	28350.91
636.53	28180.05
636.68	28226.86
636.83	28493.68
636.98	28084.09
637.13	28189.41
637.28	28273.67
637.43	28428.15
637.57	28268.99
637.72	28105.15
637.87	28156.64
638.02	28175.37
638.17	28430.49
638.32	28121.54
638.46	28081.75
638.61	27819.61
638.76	27957.70
638.91	27520.02
639.06	27737.69
639.20	27791.52
639.35	28481.98
639.50	28250.27
639.65	28016.21
639.80	27917.91
639.94	28208.14
640.09	28264.31
640.24	28077.07
640.39	28201.11
640.54	27517.68
640.68	27534.06
640.83	27768.12
640.98	27491.93
641.13	27768.12
641.27	27784.50
641.42	27557.47
641.57	27873.44
641.72	27845.35
641.86	27674.49
642.01	27828.97
642.16	27651.09
642.31	27285.97
642.45	27737.69
642.60	27407.67
642.75	27342.14
642.90	27290.65
643.04	27330.44
643.19	27445.12
643.34	27267.24
643.48	27599.60
643.63	27601.94
643.78	27534.06
643.93	27440.44
644.07	27758.75
644.22	27585.55
644.37	27583.21
644.51	27304.69
644.66	27435.76
644.81	27290.65
644.95	27269.58
645.10	27129.15
645.25	27096.38
645.39	27421.72
645.54	27447.46
645.69	27431.08
645.83	27527.04
645.98	27417.04
646.13	27454.48
646.27	27281.28
646.42	27072.98
646.57	26988.72
646.71	27166.60
646.86	27094.04
647.00	27255.54
647.15	26904.46
647.30	26810.84
647.44	26845.94
647.59	27089.36
647.74	26782.75
647.88	27620.66
648.03	26988.72
648.17	27227.45
648.32	27021.48
648.47	27119.79
648.61	27325.75
648.76	26939.57
648.90	27346.82
649.05	26909.14
649.20	26890.41
649.34	26948.93
649.49	26630.62
649.63	26845.94
649.78	26885.73
649.92	26211.66
650.07	26635.30
650.21	27115.11
650.36	26513.59
650.51	26492.52
650.65	26792.11
650.80	26930.20
650.94	26759.34
651.09	26796.79
651.23	26529.97
651.38	26534.65
651.52	26794.45
651.67	26771.05
651.81	26892.76
651.96	26745.30
652.10	26389.54
652.25	26726.58
652.39	26628.27
652.54	26698.49
652.68	26782.75
652.83	26504.23
652.97	26773.39
653.12	26661.04
653.26	26218.68
653.41	26167.19
653.55	26286.56
653.70	25947.18
653.84	26623.59
653.99	26600.19
654.13	26204.64
654.27	26410.60
654.42	26174.21
654.56	26253.79
654.71	26380.18
654.85	26534.65
655.00	26426.99
655.14	26265.49
655.29	26494.86
655.43	26244.43
655.57	25799.73
655.72	25926.11
655.86	26071.23
656.01	26214.00
656.15	25589.08
656.30	26169.53
656.44	26050.16
656.58	26001.01
656.73	25799.73
656.87	25839.51
657.01	26302.94
657.16	26267.83
657.30	26295.92
657.45	25963.56
657.59	25975.27
657.73	25982.29
657.88	26305.28
658.02	25675.68
658.16	25919.09
658.31	25591.42
658.45	25469.71
658.60	25715.47
658.74	25806.75
658.88	25617.16
659.03	25378.43
659.17	25699.08
659.31	25579.71
659.46	25596.10
659.60	25708.44
659.74	25179.48
659.89	25689.72
660.03	25586.74
660.17	25607.80
660.32	25497.80
660.46	25343.32
660.60	24961.81
660.74	25064.80
660.89	25324.60
661.03	24671.59
661.17	25486.09
661.32	25017.99
661.46	25270.76
661.60	25172.46
661.74	25277.79
661.89	25198.21
662.03	24957.13
662.17	25160.76
662.31	24893.94
662.46	25296.51
662.60	25001.60
662.74	24510.09
662.88	25118.63
663.03	24592.01
663.17	24535.84
663.31	24545.20
663.45	24582.65
663.60	24751.17
663.74	24500.73
663.88	24723.08
664.02	24592.01
664.17	24819.04
664.31	24584.99
664.45	24435.19
664.59	24606.05
664.73	24636.48
664.88	24561.58
665.02	24397.74
665.16	24210.50
665.30	24041.98
665.44	24072.41
665.59	24318.17
665.73	24250.29
665.87	24025.60
666.01	24266.67
666.15	24229.23
666.29	24147.31
666.44	24070.07
666.58	23779.84
666.72	24212.84
666.86	24222.20
667.00	24341.57
667.14	24072.41
667.28	23805.59
667.43	23360.89
667.57	23803.25
667.71	23424.08
667.85	23789.20
667.99	23695.58
668.13	23672.18
668.27	23489.62
668.41	23618.35
668.56	23337.48
668.70	23454.51
668.84	23496.64
668.98	23543.45
669.12	23400.68
669.26	23356.21
669.40	23377.27
669.54	23356.21
669.68	23175.98
669.82	23136.20
669.96	23096.41
670.10	23021.51
670.25	23206.41
670.39	23112.79
670.53	22789.80
670.67	23089.38
670.81	22874.06
670.95	22878.74
671.09	23084.70
671.23	23005.13
671.37	22799.16
671.51	22712.56
671.65	23250.88
671.79	23103.43
671.93	22848.31
672.07	22597.87
672.21	22588.51
672.35	22469.14
672.49	22642.34
672.63	22539.36
672.77	22097.00
672.91	22478.50
673.05	22338.07
673.19	21989.33
673.33	22319.35
673.47	22125.08
673.61	22108.70
673.75	22452.76
673.89	22349.78
674.03	22300.62
674.17	22073.59
674.31	21851.24
674.45	21825.50
674.59	22106.36
674.73	21956.57
674.87	21790.39
675.01	21715.49
675.15	21226.32
675.29	21619.53
675.43	21434.63
675.56	21561.02
675.70	21476.76
675.84	21755.28
675.98	20952.48
676.12	21673.36
676.26	21825.50
676.40	21556.33
676.54	21179.51
676.68	21090.57
676.82	20793.32
676.96	21120.99
677.10	20807.36
677.23	20868.22
677.37	20793.32
677.51	20980.56
677.65	20725.44
677.79	20662.25
677.93	20695.02
678.07	20587.35
678.21	20388.41
678.34	20732.47
678.48	20486.71
678.62	20587.35
678.76	20458.62
678.90	19983.49
679.04	20112.22
679.18	20645.87
679.31	20236.27
679.45	20051.37
679.59	19871.15
679.73	19812.63
679.87	19908.60
680.00	20009.24
680.14	19433.47
680.28	19658.16
680.42	19524.75
680.56	19421.77
680.70	19559.86
680.83	19571.56
680.97	19335.17
681.11	19566.88
681.25	19782.21
681.39	19508.37
681.52	19482.62
681.66	19412.40
681.80	19510.71
681.94	18939.62
682.07	19077.71
682.21	18864.72
682.35	18913.87
682.49	18511.30
682.62	18499.59
682.76	18761.73
682.90	18654.07
683.04	18778.12
683.17	18768.76
683.31	18670.45
683.45	18581.51
683.59	18483.21
683.72	18232.77
683.86	18291.29
684.00	18415.34
684.13	18146.17
684.27	18099.36
684.41	17764.67
684.55	17607.85
684.68	17844.24
684.82	17706.15
684.96	17654.66
685.09	17549.34
685.23	17741.26
685.37	17345.71
685.50	17748.28
685.64	17631.26
685.78	17516.57
685.91	17591.47
686.05	17436.99
686.19	17486.14
686.32	17640.62
686.46	17224.00
686.60	16917.39
686.73	17018.04
686.87	16657.59
687.01	17071.87
687.14	16847.18
687.28	16709.08
687.42	16741.85
687.55	16830.79
687.69	16690.36
687.82	16610.78
687.96	16762.92
688.10	16615.46
688.23	16702.06
688.37	16350.98
688.50	16479.71
688.64	16470.35
688.78	16446.94
688.91	16163.74
689.05	15819.68
689.18	16259.70
689.32	15704.99
689.46	15955.43
689.59	16114.59
689.73	15985.86
689.86	15660.52
690.00	15625.42
690.13	15784.57
690.27	15442.85
690.41	15925.00
690.54	15482.64
690.68	15726.06
690.81	15758.83
690.95	15330.51
691.08	15438.17
691.22	15414.77
691.35	15227.53
691.49	15475.62
691.62	15122.20
691.76	15030.92
691.89	14984.11
692.03	14974.75
692.16	14590.90
692.30	14946.66
692.43	14892.83
692.57	14630.69
692.70	14677.50
692.84	14654.09
692.97	14361.53
693.11	14576.86
693.24	14705.59
693.38	14658.78
693.51	14473.87
693.65	14389.61
693.78	14300.67
693.92	14319.40
694.05	13909.80
694.19	14043.21
694.32	14075.98
694.45	13947.25
694.59	14141.52
694.72	13612.56
694.86	13673.41
694.99	13724.90
695.13	13694.47
695.26	13692.13
695.39	13687.45
695.53	13724.90
695.66	13483.83
695.80	13568.09
695.93	13762.35
696.07	13434.68
696.20	13893.42
696.33	13451.06
696.47	13008.70
696.60	13212.32
696.73	13099.98
696.87	13202.96
697.00	13165.51
697.14	12741.88
697.27	12711.45
697.40	12772.30
697.54	12924.44
697.67	12678.68
697.80	12638.89
697.94	12868.27
698.07	12444.63
698.21	12322.92
698.34	12507.82
698.47	12343.99
698.61	12535.91
698.74	12346.33
698.87	12320.58
699.01	12119.29
699.14	12226.96
699.27	12046.74
699.40	12250.36
699.54	12077.16
699.67	11894.60
699.80	12058.44
699.94	11733.11
700.07	11803.32
700.20	11620.76
700.34	11789.28
700.47	11808.00
700.60	11756.51
700.73	11901.62
700.87	11421.81
701.00	11791.62
701.13	11440.54
701.26	11506.07
701.40	11463.94
701.53	11274.36
701.66	11517.78
701.79	11173.72
701.93	11103.50
702.06	11059.03
702.19	10902.22
702.32	11187.76
702.46	10937.32
702.59	10834.34
702.72	10733.70
702.85	10635.39
702.99	10925.62
703.12	10761.78
703.25	10792.21
703.38	10675.18
703.51	10654.12
703.65	10729.02
703.78	10590.92
703.91	10373.25
704.04	10651.78
704.17	10560.50
704.31	10429.43
704.44	10661.14
704.57	10380.28
704.70	10443.47
704.83	10146.22
704.96	10277.29
705.10	10167.29
705.23	9980.04
>>>>>End Processed Spectral Data<<<<<
