SpectraSuite Data File
++++++++++++++++++++++++++++++++++++
Date: Fri Oct 18 13:57:59 GMT-05:00 2013
User: bianchi
Dark Spectrum Present: No
Reference Spectrum Present: No
Number of Sampled Component Spectra: 1
Spectrometers: USB2+H05261
Integration Time (usec): 50000 (USB2+H05261)
Spectra Averaged: 1 (USB2+H05261)
Boxcar Smoothing: 0 (USB2+H05261)
Correct for Electrical Dark: No (USB2+H05261)
Strobe/Lamp Enabled: No (USB2+H05261)
Correct for Detector Non-linearity: No (USB2+H05261)
Correct for Stray Light: No (USB2+H05261)
Number of Pixels in Processed Spectrum: 2048
>>>>>Begin Processed Spectral Data<<<<<
365.73	0.00
365.92	0.00
366.12	0.00
366.32	0.00
366.52	0.00
366.72	0.00
366.91	0.00
367.11	0.00
367.31	0.00
367.51	0.00
367.70	0.00
367.90	0.00
368.10	0.00
368.30	0.00
368.49	0.00
368.69	0.00
368.89	0.00
369.09	0.00
369.28	0.00
369.48	0.00
369.68	0.00
369.87	0.00
370.07	0.00
370.27	0.00
370.47	0.00
370.66	88.94
370.86	154.48
371.06	187.24
371.25	191.92
371.45	152.13
371.65	205.97
371.84	117.03
372.04	152.13
372.24	208.31
372.44	149.79
372.63	154.48
372.83	208.31
373.03	231.71
373.22	245.76
373.42	189.58
373.62	278.52
373.81	231.71
374.01	248.10
374.21	243.42
374.40	236.39
374.60	234.05
374.79	280.86
374.99	313.63
375.19	212.99
375.38	236.39
375.58	234.05
375.78	248.10
375.97	280.86
376.17	266.82
376.37	273.84
376.56	259.80
376.76	238.73
376.95	255.12
377.15	238.73
377.35	327.68
377.54	201.29
377.74	201.29
377.93	245.76
378.13	337.04
378.33	241.08
378.52	248.10
378.72	322.99
378.91	318.31
379.11	273.84
379.31	283.20
379.50	252.78
379.70	313.63
379.89	301.93
380.09	355.76
380.28	325.33
380.48	402.57
380.68	353.42
380.87	353.42
381.07	301.93
381.26	332.36
381.46	362.78
381.65	348.74
381.85	379.17
382.04	383.85
382.24	304.27
382.43	372.15
382.63	325.33
382.83	421.30
383.02	388.53
383.22	383.85
383.41	418.96
383.61	327.68
383.80	311.29
384.00	330.02
384.19	313.63
384.39	386.19
384.58	346.40
384.78	386.19
384.97	376.83
385.17	369.80
385.36	358.10
385.56	407.25
385.75	381.51
385.95	358.10
386.14	334.70
386.34	423.64
386.53	404.91
386.72	381.51
386.92	470.45
387.11	400.23
387.31	351.08
387.50	360.44
387.70	367.46
387.89	437.68
388.09	390.87
388.28	498.53
388.48	360.44
388.67	526.62
388.86	486.83
389.06	500.87
389.25	397.89
389.45	442.36
389.64	503.22
389.84	447.04
390.03	603.86
390.22	510.24
390.42	440.02
390.61	512.58
390.81	510.24
391.00	503.22
391.19	528.96
391.39	507.90
391.58	496.19
391.78	585.13
391.97	599.18
392.16	557.05
392.36	608.54
392.55	543.00
392.75	524.28
392.94	521.94
393.13	547.69
393.33	479.81
393.52	535.98
393.71	550.03
393.91	559.39
394.10	491.51
394.29	489.17
394.49	610.88
394.68	580.45
394.88	613.22
395.07	575.77
395.26	669.39
395.46	674.07
395.65	629.60
395.84	655.35
396.04	676.41
396.23	664.71
396.42	648.33
396.62	688.12
396.81	664.71
397.00	697.48
397.19	758.33
397.39	615.56
397.58	739.61
397.77	653.01
397.97	716.20
398.16	723.23
398.35	683.44
398.55	702.16
398.74	669.39
398.93	730.25
399.12	774.72
399.32	695.14
399.51	770.04
399.70	805.14
399.90	746.63
400.09	781.74
400.28	833.23
400.47	779.40
400.67	828.55
400.86	793.44
401.05	781.74
401.24	779.40
401.44	779.40
401.63	784.08
401.82	854.30
402.01	821.53
402.21	861.32
402.40	807.48
402.59	882.38
402.78	842.59
402.97	891.74
403.17	814.51
403.36	866.00
403.55	880.04
403.74	1011.11
403.93	903.45
404.13	952.60
404.32	898.77
404.51	952.60
404.70	985.37
404.89	950.26
405.09	952.60
405.28	968.98
405.47	936.21
405.66	943.24
405.85	1057.92
406.05	1022.81
406.24	997.07
406.43	1097.71
406.62	987.71
406.81	980.68
407.00	1004.09
407.20	1048.56
407.39	1062.60
407.58	1053.24
407.77	1071.97
407.96	1060.26
408.15	1233.46
408.34	1062.60
408.54	1114.10
408.73	1144.52
408.92	1064.94
409.11	1233.46
409.30	1172.61
409.49	1170.27
409.68	1263.89
409.87	1114.10
410.07	1184.31
410.26	1233.46
410.45	1191.33
410.64	1233.46
410.83	1263.89
411.02	1207.72
411.21	1364.53
411.40	1287.29
411.59	1296.66
411.78	1219.42
411.98	1289.64
412.17	1369.21
412.36	1378.58
412.55	1366.87
412.74	1350.49
412.93	1284.95
413.12	1369.21
413.31	1460.49
413.50	1343.47
413.69	1437.09
413.88	1420.71
414.07	1500.28
414.26	1437.09
414.45	1598.59
414.64	1383.26
414.83	1465.18
415.02	1493.26
415.22	1547.09
415.41	1544.75
415.60	1561.14
415.79	1554.12
415.98	1694.55
416.17	1657.10
416.36	1694.55
416.55	1668.80
416.74	1708.59
416.93	1643.06
417.12	1687.53
417.31	1640.72
417.50	1717.95
417.69	1820.94
417.88	1783.49
418.07	1760.08
418.26	1820.94
418.45	1746.04
418.64	1865.41
418.83	1830.30
419.02	1816.26
419.21	1820.94
419.39	1776.47
419.58	1825.62
419.77	1963.71
419.96	1914.56
420.15	1914.56
420.34	1809.23
420.53	1867.75
420.72	1982.43
420.91	1973.07
421.10	1977.75
421.29	2106.48
421.48	2003.50
421.67	2008.18
421.86	1926.26
422.05	1966.05
422.24	2010.52
422.43	1921.58
422.61	1973.07
422.80	2071.37
422.99	2085.42
423.18	2059.67
423.37	2052.65
423.56	2029.24
423.75	2022.22
423.94	2050.31
424.13	1849.02
424.32	1858.39
424.50	2008.18
424.69	2207.13
424.88	2101.80
425.07	2062.01
425.26	1996.48
425.45	1980.09
425.64	2083.08
425.83	2022.22
426.01	2050.31
426.20	2071.37
426.39	2076.06
426.58	2019.88
426.77	2097.12
426.96	2118.18
427.15	2066.69
427.33	2125.21
427.52	2200.10
427.71	2139.25
427.90	2186.06
428.09	2186.06
428.28	2258.62
428.46	2317.13
428.65	2284.36
428.84	2272.66
429.03	2324.15
429.22	2162.66
429.40	2279.68
429.59	2317.13
429.78	2174.36
429.97	2157.97
430.16	2239.89
430.34	2263.30
430.53	2282.02
430.72	2502.03
430.91	2370.96
431.10	2366.28
431.28	2513.74
431.47	2424.80
431.66	2443.52
431.85	2429.48
432.03	2499.69
432.22	2497.35
432.41	2420.11
432.60	2457.56
432.79	2485.65
432.97	2567.57
433.16	2642.46
433.35	2661.19
433.54	2642.46
433.72	2553.52
433.91	2656.51
434.10	2715.02
434.28	2562.89
434.47	2516.08
434.66	2616.72
434.85	2717.36
435.03	2668.21
435.22	2588.63
435.41	2703.32
435.59	2684.59
435.78	2846.09
435.97	2715.02
436.16	2719.70
436.34	2761.83
436.53	2766.51
436.72	2815.66
436.90	2750.13
437.09	2700.98
437.28	2715.02
437.46	2932.69
437.65	2909.29
437.84	2808.64
438.02	2731.41
438.21	2801.62
438.40	2747.79
438.58	3028.65
438.77	3000.57
438.96	2953.76
439.14	3094.19
439.33	3096.53
439.52	2923.33
439.70	3124.62
439.89	3040.36
440.08	3103.55
440.26	3091.85
440.45	3243.98
440.63	3279.09
440.82	3222.92
441.01	3218.24
441.19	3178.45
441.38	3199.51
441.57	3225.26
441.75	3267.39
441.94	3344.63
442.12	3302.50
442.31	3321.22
442.50	3323.56
442.68	3382.07
442.87	3356.33
443.05	3419.52
443.24	3566.98
443.43	3342.28
443.61	3447.61
443.80	3648.90
443.98	3386.76
444.17	3398.46
444.35	3581.02
444.54	3536.55
444.73	3482.72
444.91	3454.63
445.10	3538.89
445.28	3456.97
445.47	3435.91
445.65	3534.21
445.84	3538.89
446.02	3536.55
446.21	3471.01
446.39	3606.77
446.58	3545.91
446.77	3578.68
446.95	3534.21
447.14	3574.00
447.32	3590.38
447.51	3630.17
447.69	3604.42
447.88	3604.42
448.06	3536.55
448.25	3510.80
448.43	3562.30
448.62	3548.25
448.80	3669.96
448.99	3583.36
449.17	3723.79
449.36	3632.51
449.54	3651.24
449.73	3707.41
449.91	3728.47
450.10	3733.15
450.28	3768.26
450.46	3796.35
450.65	3786.99
450.83	3808.05
451.02	3857.20
451.20	3868.91
451.39	3904.01
451.57	3866.56
451.76	3866.56
451.94	3854.86
452.13	3854.86
452.31	3908.69
452.49	3932.10
452.68	3873.59
452.86	3852.52
453.05	3985.93
453.23	4009.34
453.42	3971.89
453.60	4072.53
453.78	3922.74
453.97	3992.95
454.15	3974.23
454.34	3843.16
454.52	4046.79
454.70	4177.86
454.89	4135.73
455.07	4037.42
455.26	4264.46
455.44	4273.82
455.62	4198.92
455.81	4161.47
455.99	4056.15
456.17	4320.63
456.36	4273.82
456.54	4219.99
456.73	4339.35
456.91	4367.44
457.09	4304.25
457.28	4395.53
457.46	4257.43
457.64	4374.46
457.83	4580.43
458.01	4449.36
458.19	4400.21
458.38	4425.95
458.56	4571.07
458.74	4622.56
458.93	4564.04
459.11	4496.17
459.29	4442.34
459.48	4404.89
459.66	4732.56
459.84	4545.32
460.03	4603.83
460.21	4678.73
460.39	4737.24
460.57	4507.87
460.76	4697.46
460.94	4774.69
461.12	4676.39
461.31	4779.37
461.49	4709.16
461.67	4734.90
461.85	4889.38
462.04	4777.03
462.22	5006.41
462.40	4880.02
462.59	4868.31
462.77	4959.60
462.95	4954.91
463.13	4786.40
463.32	5048.54
463.50	4968.96
463.68	5015.77
463.86	5095.35
464.05	4746.61
464.23	4755.97
464.41	5004.07
464.59	4966.62
464.78	5062.58
464.96	4973.64
465.14	4903.42
465.32	5015.77
465.50	5125.77
465.69	5048.54
465.87	5001.72
466.05	4985.34
466.23	5144.50
466.41	5069.60
466.60	5195.99
466.78	5322.38
466.96	5095.35
467.14	5198.33
467.32	5177.26
467.51	5261.52
467.69	5078.96
467.87	5130.45
468.05	5111.73
468.23	5228.76
468.41	5217.05
468.60	5301.31
468.78	5406.64
468.96	5245.14
469.14	5465.15
469.32	5357.49
469.50	5334.08
469.69	5427.70
469.87	5383.23
470.05	5626.65
470.23	5610.26
470.41	5514.30
470.59	5584.52
470.77	5593.88
470.95	5671.12
471.14	5600.90
471.32	5509.62
471.50	5710.91
471.68	5680.48
471.86	5844.32
472.04	5753.04
472.22	5804.53
472.40	5809.21
472.58	6003.47
472.77	5994.11
472.95	6038.58
473.13	6001.13
473.31	5926.24
473.49	5987.09
473.67	5947.30
473.85	6022.20
474.03	6083.05
474.21	6087.73
474.39	6160.29
474.57	6218.80
474.75	6274.98
474.93	6389.66
475.12	6298.38
475.30	6349.87
475.48	6303.06
475.66	6375.62
475.84	6499.67
476.02	6497.33
476.20	6370.94
476.38	6338.17
476.56	6670.53
476.74	6628.40
476.92	6609.67
477.10	6757.13
477.28	6792.23
477.46	6700.95
477.64	6642.44
477.82	7026.29
478.00	7241.62
478.18	6993.52
478.36	7218.21
478.54	7335.24
478.72	7229.91
478.90	7412.48
479.08	7442.90
479.26	7503.76
479.44	7538.87
479.62	7478.01
479.80	7485.03
479.98	7569.29
480.16	7583.34
480.34	7595.04
480.52	7695.68
480.70	7662.91
480.88	7625.47
481.06	7770.58
481.24	7943.78
481.41	7932.08
481.59	8100.59
481.77	8299.54
481.95	8250.39
482.13	8095.91
482.31	8252.73
482.49	8386.14
482.67	8348.69
482.85	8414.23
483.03	8753.60
483.21	8741.90
483.39	8982.98
483.57	8755.94
483.74	8950.21
483.92	8975.95
484.10	8798.07
484.28	8971.27
484.46	9156.18
484.64	9394.91
484.82	8894.04
485.00	9380.87
485.18	9411.29
485.35	9582.15
485.53	9589.17
485.71	9668.75
485.89	9879.40
486.07	9731.95
486.25	9874.72
486.43	9727.27
486.61	10008.13
486.78	9996.43
486.96	10120.48
487.14	10281.97
487.32	10232.82
487.50	10523.05
487.68	10384.96
487.85	10679.86
488.03	10768.80
488.21	10771.15
488.39	10860.09
488.57	10934.98
488.75	10820.30
488.92	11096.48
489.10	11124.57
489.28	11098.82
489.46	11356.28
489.64	11344.58
489.81	11571.61
489.99	11468.62
490.17	11433.52
490.35	11763.53
490.53	11700.34
490.70	11955.46
490.88	11836.09
491.06	11927.37
491.24	12248.02
491.41	12065.46
491.59	12175.47
491.77	12432.93
491.95	12255.04
492.13	12407.18
492.30	12531.23
492.48	12533.57
492.66	12674.00
492.84	12587.40
493.01	12858.90
493.19	12870.61
493.37	13219.35
493.54	12919.76
493.72	13186.58
493.90	13238.07
494.08	13387.86
494.25	13441.70
494.43	13441.70
494.61	13647.66
494.79	13631.28
494.96	13584.47
495.14	13568.09
495.32	14005.77
495.49	13628.94
495.67	13748.31
495.85	14073.64
496.02	14373.23
496.20	14043.21
496.38	14300.67
496.55	14108.75
496.73	14640.05
496.91	14499.62
497.09	14682.18
497.26	14712.61
497.44	14775.80
497.62	14630.69
497.79	14813.25
497.97	14731.33
498.14	14789.85
498.32	15227.53
498.50	15225.18
498.67	15290.72
498.85	15073.05
499.03	15365.62
499.20	15288.38
499.38	15332.85
499.56	15456.90
499.73	15894.58
499.91	15613.71
500.08	15728.40
500.26	15648.82
500.44	15665.21
500.61	15936.71
500.79	16030.33
500.97	16248.00
501.14	16222.25
501.32	16107.57
501.49	16133.31
501.67	16439.92
501.84	16287.79
502.02	16334.60
502.20	16123.95
502.37	16587.38
502.55	16486.73
502.72	16533.54
502.90	16451.63
503.07	16545.25
503.25	16552.27
503.43	16547.59
503.60	16889.31
503.78	16802.71
503.95	16798.02
504.13	17195.92
504.30	17172.51
504.48	16994.63
504.65	17043.78
504.83	17383.16
505.01	17334.01
505.18	17214.64
505.36	17680.41
505.53	17338.69
505.71	17397.20
505.88	17535.29
506.06	17757.64
506.23	17762.33
506.41	17799.77
506.58	17612.53
506.76	18003.40
506.93	17972.97
507.11	17802.11
507.28	17926.16
507.46	17790.41
507.63	18064.25
507.81	18452.78
507.98	18267.88
508.16	18434.06
508.33	18270.22
508.50	18401.29
508.68	18317.03
508.85	18614.28
509.03	18604.92
509.20	18583.85
509.38	18778.12
509.55	18958.34
509.73	18555.77
509.90	18728.97
510.08	18735.99
510.25	18909.19
510.42	19136.22
510.60	19150.26
510.77	19124.52
510.95	19274.31
511.12	18895.14
511.30	19126.86
511.47	19304.74
511.64	19501.34
511.82	19442.83
511.99	19499.00
512.17	19569.22
512.34	19506.02
512.51	19543.47
512.69	19887.53
512.86	19775.19
513.04	19845.40
513.21	19810.29
513.38	19761.14
513.56	20044.35
513.73	20016.26
513.90	20074.77
514.08	19995.20
514.25	20168.40
514.43	20334.57
514.60	20163.72
514.77	20425.86
514.95	20381.38
515.12	20308.83
515.29	20327.55
515.47	20446.92
515.64	20638.84
515.81	20393.09
515.99	20917.37
516.16	20912.69
516.33	21013.33
516.51	20893.96
516.68	20563.95
516.85	20730.12
517.03	20877.58
517.20	20966.52
517.37	20856.51
517.54	21090.57
517.72	21188.87
517.89	21135.04
518.06	20805.02
518.24	21270.79
518.41	21406.54
518.58	21170.15
518.75	21231.00
518.93	21617.19
519.10	21420.58
519.27	21411.22
519.45	21678.04
519.62	21542.29
519.79	21876.99
519.96	21720.17
520.14	21937.84
520.31	21738.90
520.48	21785.71
520.65	21731.87
520.83	21860.60
521.00	21820.81
521.17	21781.03
521.34	21848.90
521.52	22445.74
521.69	22265.52
521.86	22424.67
522.03	22225.73
522.20	22089.98
522.38	22059.55
522.55	22141.47
522.72	22129.77
522.89	22539.36
523.07	22707.88
523.24	22609.58
523.41	22508.93
523.58	22417.65
523.75	22867.03
523.92	22466.80
524.10	22436.38
524.27	22878.74
524.44	22836.61
524.61	22869.37
524.78	23042.57
524.96	22651.70
525.13	23138.54
525.30	23346.84
525.47	23145.56
525.64	22939.59
525.81	23264.92
525.98	23391.31
526.16	23367.91
526.33	23447.49
526.50	23466.21
526.67	23098.75
526.84	23634.73
527.01	23538.77
527.18	23421.74
527.36	23410.04
527.53	23854.74
527.70	23861.76
527.87	23978.79
528.04	23550.47
528.21	23758.78
528.38	23943.68
528.55	23976.45
528.72	23899.21
528.89	24224.54
529.07	23758.78
529.24	24030.28
529.41	24177.73
529.58	24079.43
529.75	23611.32
529.92	23735.37
530.09	24126.24
530.26	24039.64
530.43	24369.66
530.60	23955.38
530.77	24357.96
530.94	24409.45
531.11	24060.71
531.28	24170.71
531.46	23922.62
531.63	24648.18
531.80	24390.72
531.97	24706.70
532.14	24744.14
532.31	24540.52
532.48	24769.89
532.65	24758.19
532.82	24549.88
532.99	24744.14
533.16	24603.71
533.33	25053.09
533.50	25022.67
533.67	25465.03
533.84	24966.49
534.01	24875.21
534.18	24975.86
534.35	25177.14
534.52	25212.25
534.69	25223.95
534.86	25387.79
535.03	25364.39
535.20	25179.48
535.37	25558.65
535.54	25235.66
535.71	24830.74
535.88	25336.30
536.05	25528.22
536.22	25706.10
536.38	25689.72
536.55	25696.74
536.72	25584.40
536.89	25682.70
537.06	25671.00
537.23	25923.77
537.40	25474.39
537.57	25795.04
537.74	25635.89
537.91	26071.23
538.08	25968.24
538.25	25741.21
538.42	25680.36
538.59	25970.58
538.75	25685.04
538.92	26045.48
539.09	26333.37
539.26	26171.87
539.43	26136.76
539.60	26373.16
539.77	25963.56
539.94	26302.94
540.11	26387.20
540.28	26197.62
540.44	26192.94
540.61	26242.09
540.78	26078.25
540.95	26167.19
541.12	26057.18
541.29	26387.20
541.46	26436.35
541.62	26515.93
541.79	26434.01
541.96	26232.72
542.13	26412.95
542.30	26719.56
542.47	26499.55
542.63	26986.38
542.80	26792.11
542.97	27138.51
543.14	27005.10
543.31	27087.02
543.48	26920.84
543.64	27096.38
543.81	27431.08
543.98	27438.10
544.15	27129.15
544.32	27080.00
544.48	27421.72
544.65	27400.65
544.82	27063.61
544.99	27161.92
545.16	27133.83
545.32	26995.74
545.49	27323.41
545.66	27522.36
545.83	27658.11
546.00	27894.50
546.16	27246.18
546.33	27054.25
546.50	27218.09
546.67	27489.59
546.83	27115.11
547.00	27536.40
547.17	27271.92
547.34	27573.85
547.50	27938.97
547.67	27976.42
547.84	27641.73
548.00	27924.93
548.17	27929.61
548.34	27910.89
548.51	27501.29
548.67	28114.52
548.84	28060.68
549.01	27943.66
549.18	27906.21
549.34	28086.43
549.51	27885.14
549.68	27845.35
549.84	28053.66
550.01	28095.79
550.18	27953.02
550.34	28484.32
550.51	28194.09
550.68	28369.63
550.84	28114.52
551.01	28144.94
551.18	28198.77
551.34	28264.31
551.51	28325.16
551.68	28301.76
551.84	28259.63
552.01	28135.58
552.18	28643.48
552.34	28257.29
552.51	28430.49
552.68	28261.97
552.84	28556.88
553.01	28774.55
553.18	28650.50
553.34	28503.04
553.51	28615.39
553.67	28496.02
553.84	28795.61
554.01	28940.72
554.17	28802.63
554.34	28751.14
554.51	28397.72
554.67	29074.13
554.84	28905.62
555.00	28968.81
555.17	28992.22
555.33	28863.49
555.50	29008.60
555.67	28893.91
555.83	28975.83
556.00	28961.79
556.16	29144.35
556.33	28952.43
556.50	28819.02
556.66	29200.52
556.83	28900.94
556.99	29209.89
557.16	29429.90
557.32	29436.92
557.49	29420.53
557.65	28959.45
557.82	28716.03
557.98	29350.32
558.15	29195.84
558.32	29455.64
558.48	29074.13
558.65	29127.97
558.81	29521.18
558.98	29696.72
559.14	29394.79
559.31	29184.14
559.47	29380.74
559.64	29184.14
559.80	29497.77
559.97	29724.80
560.13	29383.09
560.30	29343.30
560.46	29652.25
560.63	29898.00
560.79	29535.22
560.96	29867.58
561.12	29436.92
561.29	29640.54
561.45	29771.61
561.61	29972.90
561.78	29699.06
561.94	29607.78
562.11	29986.94
562.27	29771.61
562.44	29914.39
562.60	29642.88
562.77	29476.71
562.93	29635.86
563.10	29923.75
563.26	29795.02
563.42	30110.99
563.59	29776.30
563.75	29890.98
563.92	30075.88
564.08	29759.91
564.24	29666.29
564.41	29806.72
564.57	29811.40
564.74	29876.94
564.90	29816.08
565.07	30068.86
565.23	29921.41
565.39	29984.60
565.56	29972.90
565.72	29951.84
565.88	29762.25
566.05	30120.35
566.21	30094.61
566.38	29982.26
566.54	29827.79
566.70	30089.93
566.87	30340.36
567.03	30113.33
567.19	30527.61
567.36	30274.83
567.52	30366.11
567.68	30026.73
567.85	29902.68
568.01	30160.14
568.17	29876.94
568.34	30419.94
568.50	30359.09
568.66	30237.38
568.83	30323.98
568.99	30354.41
569.15	30384.83
569.32	30057.16
569.48	29956.52
569.64	29853.53
569.81	30333.34
569.97	30415.26
570.13	30270.15
570.30	30047.80
570.46	30466.75
570.62	29755.23
570.78	30045.46
570.95	30052.48
571.11	30211.64
571.27	30012.69
571.43	30368.45
571.60	30050.14
571.76	30569.74
571.92	30272.49
572.09	30682.08
572.25	30024.39
572.41	30595.48
572.57	30363.77
572.74	30328.66
572.90	30237.38
573.06	30600.16
573.22	30508.88
573.38	30572.08
573.55	30410.58
573.71	30960.61
573.87	30569.74
574.03	30508.88
574.20	30576.76
574.36	30263.13
574.52	30218.66
574.68	30192.91
574.84	30366.11
575.01	30625.91
575.17	30799.11
575.33	30778.04
575.49	30553.35
575.65	30349.73
575.82	30852.94
575.98	30396.54
576.14	30836.56
576.30	30251.42
576.46	30656.34
576.62	30504.20
576.79	30670.38
576.95	30478.46
577.11	30536.97
577.27	30836.56
577.43	30630.59
577.59	30682.08
577.75	30654.00
577.92	30171.85
578.08	30349.73
578.24	30391.86
578.40	30415.26
578.56	30756.98
578.72	30574.42
578.88	30824.86
579.04	30803.79
579.21	30705.49
579.37	30646.97
579.53	30618.89
579.69	30546.33
579.85	30333.34
580.01	30719.53
580.17	30508.88
580.33	30731.23
580.49	30593.14
580.65	30764.00
580.82	30684.42
580.98	30843.58
581.14	30370.79
581.30	30967.63
581.46	30551.01
581.62	30572.08
581.78	30651.66
581.94	30738.26
582.10	30679.74
582.26	30967.63
582.42	30742.94
582.58	30862.30
582.74	30728.89
582.90	30672.72
583.06	30689.10
583.22	30625.91
583.38	30478.46
583.54	30565.06
583.70	30710.17
583.86	31023.80
584.02	30707.83
584.18	31042.53
584.34	31185.30
584.50	30831.88
584.66	30768.68
584.82	30239.72
584.98	30822.51
585.14	30581.44
585.30	30298.23
585.46	30796.77
585.62	30700.81
585.78	31002.74
585.94	30588.46
586.10	30658.68
586.26	30581.44
586.42	30991.03
586.58	30965.29
586.74	30906.77
586.90	30628.25
587.06	30941.88
587.22	30780.39
587.38	31054.23
587.54	30670.38
587.70	30799.11
587.86	31079.97
588.02	30780.39
588.18	31213.38
588.34	31096.36
588.49	31077.63
588.65	31002.74
588.81	30888.05
588.97	30728.89
589.13	30986.35
589.29	30829.54
589.45	30742.94
589.61	31295.30
589.77	30904.43
589.93	31175.94
590.08	31424.03
590.24	31304.67
590.40	31290.62
590.56	31564.46
590.72	30848.26
590.88	31063.59
591.04	31208.70
591.20	31611.28
591.35	31449.78
591.51	31562.12
591.67	31028.48
591.83	31452.12
591.99	31571.49
592.15	31302.32
592.31	30976.99
592.46	31175.94
592.62	31117.42
592.78	31189.98
592.94	30918.48
593.10	31330.41
593.26	31735.32
593.41	31234.45
593.57	31428.71
593.73	31337.43
593.89	31630.00
594.05	31213.38
594.20	30955.93
594.36	31332.75
594.52	30958.27
594.68	30993.37
594.84	30693.79
594.99	31517.65
595.15	31370.20
595.31	31325.73
595.47	31470.84
595.62	31414.67
595.78	31515.31
595.94	31541.06
596.10	31564.46
596.25	31098.70
596.41	30920.82
596.57	30995.71
596.73	31342.11
596.88	31063.59
597.04	31693.19
597.20	31398.29
597.36	31613.62
597.51	31449.78
597.67	31126.78
597.83	31674.47
597.99	31363.18
598.14	31580.85
598.30	31449.78
598.46	31328.07
598.61	31342.11
598.77	31129.12
598.93	31239.13
599.09	31637.02
599.24	31529.36
599.40	31590.21
599.56	31419.35
599.71	31630.00
599.87	31805.54
600.03	31409.99
600.18	31042.53
600.34	31583.19
600.50	31283.60
600.65	31225.09
600.81	31517.65
600.97	31452.12
601.12	31665.11
601.28	31800.86
601.44	31484.89
601.59	31826.60
601.75	31529.36
601.91	31491.91
602.06	31360.84
602.22	31433.39
602.37	31271.90
602.53	31304.67
602.69	31070.61
602.84	31524.68
603.00	31246.15
603.16	31491.91
603.31	31243.81
603.47	31587.87
603.62	31246.15
603.78	31388.92
603.94	31138.49
604.09	31225.09
604.25	31442.76
604.40	31578.51
604.56	31438.08
604.71	31690.85
604.87	31227.43
605.03	31463.82
605.18	31718.94
605.34	31597.23
605.49	31281.26
605.65	31449.78
605.80	30965.29
605.96	31452.12
606.12	31323.39
606.27	31297.64
606.43	31220.41
606.58	31564.46
606.74	31395.95
606.89	31515.31
607.05	31517.65
607.20	31255.51
607.36	31372.54
607.51	31316.37
607.67	31496.59
607.82	30892.73
607.98	31075.29
608.13	31452.12
608.29	31299.98
608.44	31192.32
608.60	31672.13
608.75	31285.94
608.91	31419.35
609.06	30988.69
609.22	31332.75
609.37	31304.67
609.53	30920.82
609.68	30941.88
609.84	30934.86
609.99	30799.11
610.15	30838.90
610.30	31164.23
610.46	30815.49
610.61	31079.97
610.76	31325.73
610.92	31108.06
611.07	31211.04
611.23	31178.28
611.38	30728.89
611.54	31077.63
611.69	31194.66
611.84	31012.10
612.00	30918.48
612.15	30749.96
612.31	31241.47
612.46	30895.07
612.62	31026.14
612.77	31304.67
612.92	31002.74
613.08	31033.16
613.23	30656.34
613.39	30960.61
613.54	31145.51
613.69	31117.42
613.85	31087.00
614.00	30513.56
614.15	30944.22
614.31	30628.25
614.46	31129.12
614.62	31215.72
614.77	31234.45
614.92	30625.91
615.08	30944.22
615.23	30761.66
615.38	30930.18
615.54	30859.96
615.69	30466.75
615.84	30487.82
616.00	30518.25
616.15	30637.61
616.30	30724.21
616.46	30782.73
616.61	30721.87
616.76	30785.07
616.92	30352.07
617.07	30747.62
617.22	30375.47
617.37	30490.16
617.53	30668.04
617.68	30307.60
617.83	30478.46
617.99	30302.92
618.14	30644.63
618.29	30349.73
618.45	30375.47
618.60	30593.14
618.75	30609.53
618.90	30174.19
619.06	30338.02
619.21	30249.08
619.36	30796.77
619.51	30583.78
619.67	29867.58
619.82	30249.08
619.97	30567.40
620.12	30354.41
620.28	30064.18
620.43	30759.32
620.58	30464.41
620.73	30316.96
620.89	30380.15
621.04	30426.96
621.19	30340.36
621.34	30204.61
621.49	30590.80
621.65	29886.30
621.80	30017.37
621.95	29956.52
622.10	30176.53
622.25	29996.31
622.41	29792.68
622.56	30082.91
622.71	29895.66
622.86	29923.75
623.01	29954.18
623.16	29984.60
623.32	29713.10
623.47	30005.67
623.62	30089.93
623.77	29792.68
623.92	30113.33
624.07	29598.41
624.23	29687.36
624.38	29855.87
624.53	29823.11
624.68	29879.28
624.83	29895.66
624.98	30129.72
625.13	29668.63
625.29	29748.21
625.44	29619.48
625.59	29780.98
625.74	29790.34
625.89	29439.26
626.04	29303.51
626.19	29223.93
626.34	29563.31
626.49	29577.35
626.65	29593.73
626.80	29923.75
626.95	29771.61
627.10	29455.64
627.25	29507.13
627.40	29139.67
627.55	28966.47
627.70	29603.10
627.85	29181.80
628.00	29039.03
628.15	29240.31
628.30	29350.32
628.45	29502.45
628.60	29397.13
628.76	29399.47
628.91	29500.11
629.06	29551.60
629.21	29170.10
629.36	29511.81
629.51	29158.39
629.66	29195.84
629.81	29127.97
629.96	29345.64
630.11	29104.56
630.26	29095.20
630.41	29254.36
630.56	29029.66
630.71	28851.78
630.86	29076.48
631.01	28931.36
631.16	28999.24
631.31	28975.83
631.46	29268.40
631.61	28952.43
631.76	29226.27
631.91	29050.73
632.06	28711.35
632.21	28498.36
632.36	28720.71
632.51	28720.71
632.66	29076.48
632.81	28751.14
632.96	29195.84
633.10	28577.94
633.25	28982.85
633.40	29024.98
633.55	28608.37
633.70	28446.87
633.85	28287.71
634.00	28432.83
634.15	28549.85
634.30	28645.82
634.45	28477.30
634.60	28404.74
634.75	28343.89
634.90	28608.37
635.05	28800.29
635.19	28723.05
635.34	29078.82
635.49	28709.01
635.64	28540.49
635.79	28500.70
635.94	28580.28
636.09	28503.04
636.24	28409.42
636.39	28514.75
636.53	28072.39
636.68	28201.11
636.83	28442.19
636.98	28418.78
637.13	28091.11
637.28	28589.64
637.43	28903.28
637.57	28423.47
637.72	27768.12
637.87	28421.13
638.02	28189.41
638.17	28343.89
638.32	28058.34
638.46	27770.46
638.61	28025.57
638.76	27775.14
638.91	27733.01
639.06	28063.02
639.20	27892.16
639.35	28177.71
639.50	28423.47
639.65	28371.97
639.80	28023.23
639.94	27910.89
640.09	28107.49
640.24	28051.32
640.39	27999.83
640.54	27915.57
640.68	28292.40
640.83	27817.27
640.98	27571.51
641.13	27742.37
641.27	27740.03
641.42	27892.16
641.57	27814.93
641.72	28147.28
641.86	27733.01
642.01	27742.37
642.16	27618.32
642.31	27737.69
642.45	27517.68
642.60	27044.89
642.75	27489.59
642.90	27548.11
643.04	27468.53
643.19	27173.62
643.34	27658.11
643.48	27683.86
643.63	27564.49
643.78	27733.01
643.93	27484.91
644.07	27318.73
644.22	27489.59
644.37	27534.06
644.51	27538.74
644.66	27089.36
644.81	27253.20
644.95	27147.87
645.10	26979.36
645.25	27253.20
645.39	27328.10
645.54	27264.90
645.69	27400.65
645.83	27534.06
645.98	27426.40
646.13	27206.39
646.27	27398.31
646.42	27187.66
646.57	27028.51
646.71	26991.06
646.86	27117.45
647.00	27096.38
647.15	27049.57
647.30	27271.92
647.44	27131.49
647.59	27037.87
647.74	26977.01
647.88	26834.24
648.03	27019.14
648.17	27328.10
648.32	26925.52
648.47	27356.18
648.61	27358.52
648.76	27021.48
648.90	26918.50
649.05	27087.02
649.20	26998.08
649.34	26806.16
649.49	26909.14
649.63	26639.98
649.78	26937.23
649.92	26930.20
650.07	26700.83
650.21	26551.04
650.36	26567.42
650.51	26649.34
650.65	26972.33
650.80	26895.10
650.94	27161.92
651.09	26813.18
651.23	26749.98
651.38	26607.21
651.52	26375.50
651.67	26918.50
651.81	26375.50
651.96	26544.02
652.10	26539.33
652.25	26361.45
652.39	26684.45
652.54	26822.54
652.68	26857.65
652.83	26354.43
652.97	26738.28
653.12	26808.50
653.26	26349.75
653.41	26532.31
653.55	26443.37
653.70	26284.22
653.84	26506.57
653.99	26419.97
654.13	26284.22
654.27	26403.58
654.42	26272.51
654.56	26476.14
654.71	26588.49
654.85	26609.55
655.00	26434.01
655.14	26197.62
655.29	26209.32
655.43	26249.11
655.57	26331.03
655.72	26008.03
655.86	25949.52
656.01	26349.75
656.15	25898.03
656.30	26169.53
656.44	26155.49
656.58	25839.51
656.73	26031.44
656.87	26401.24
657.01	26064.21
657.16	25998.67
657.30	26181.23
657.45	26464.44
657.59	26031.44
657.73	25600.78
657.88	25928.45
658.02	25923.77
658.16	25820.79
658.31	26160.17
658.45	25818.45
658.60	25523.54
658.74	25649.93
658.88	25750.57
659.03	25743.55
659.17	25876.96
659.31	25635.89
659.46	25773.98
659.60	25860.58
659.74	25493.12
659.89	25710.78
660.03	25546.95
660.17	25039.05
660.32	25633.55
660.46	24854.15
660.60	25085.86
660.74	25343.32
660.89	25308.21
661.03	24812.02
661.17	25111.61
661.32	25214.59
661.46	25188.85
661.60	25088.20
661.74	25338.64
661.89	25359.70
662.03	25245.02
662.17	25238.00
662.31	24891.60
662.46	25123.31
662.60	25181.82
662.74	24592.01
662.88	24730.10
663.03	24912.66
663.17	24423.49
663.31	24599.03
663.45	24470.30
663.60	24856.49
663.74	24617.75
663.88	24858.83
664.02	24507.75
664.17	24975.86
664.31	24329.87
664.45	24638.82
664.59	24496.05
664.73	24533.50
664.88	24390.72
665.02	24063.05
665.16	24039.64
665.30	24336.89
665.44	24442.21
665.59	23814.95
665.73	24009.22
665.87	23939.00
666.01	24006.87
666.15	24226.89
666.29	24189.44
666.44	24388.38
666.58	23793.89
666.72	24175.39
666.86	23988.15
667.00	24156.67
667.14	23616.01
667.28	24156.67
667.43	24074.75
667.57	24034.96
667.71	23414.72
667.85	23543.45
667.99	23379.61
668.13	23688.56
668.27	23990.49
668.41	23992.83
668.56	23447.49
668.70	23606.64
668.84	23850.06
668.98	23730.69
669.12	23536.43
669.26	23403.02
669.40	23414.72
669.54	23342.16
669.68	23379.61
669.82	23414.72
669.96	23393.65
670.10	23250.88
670.25	23194.71
670.39	23033.21
670.53	23002.78
670.67	23096.41
670.81	23185.35
670.95	23157.26
671.09	23077.68
671.23	22750.01
671.37	23381.95
671.51	23115.13
671.65	22836.61
671.79	22635.32
671.93	22661.07
672.07	22815.54
672.21	22534.68
672.35	22302.96
672.49	22647.02
672.63	22567.45
672.77	22235.09
672.91	22267.86
673.05	22441.06
673.19	22319.35
673.33	22513.61
673.47	22565.10
673.61	22279.56
673.75	22080.61
673.89	22155.51
674.03	22148.49
674.17	22291.26
674.31	22040.82
674.45	22108.70
674.59	21764.64
674.73	22089.98
674.87	21664.00
675.01	21944.86
675.15	21523.57
675.29	21563.36
675.43	21659.32
675.56	21750.60
675.70	21598.46
675.84	21823.16
675.98	21078.86
676.12	21518.89
676.26	21649.96
676.40	21411.22
676.54	21446.33
676.68	21397.18
676.82	21027.37
676.96	21139.72
677.10	21062.48
677.23	20964.18
677.37	20786.30
677.51	21158.44
677.65	21010.99
677.79	20769.91
677.93	20641.18
678.07	20582.67
678.21	20273.72
678.34	19976.47
678.48	20259.68
678.62	20121.59
678.76	20107.54
678.90	20372.02
679.04	20189.46
679.18	19974.13
679.31	20013.92
679.45	19592.62
679.59	19676.88
679.73	19716.67
679.87	19880.51
680.00	19777.53
680.14	19520.07
680.28	19541.13
680.42	19587.94
680.56	19749.44
680.70	19644.12
680.83	19822.00
680.97	19604.33
681.11	19405.38
681.25	19197.07
681.39	18970.04
681.52	19239.20
681.66	19243.88
681.80	19030.90
681.94	19133.88
682.07	19140.90
682.21	18665.77
682.35	18822.59
682.49	18649.39
682.62	18579.17
682.76	18572.15
682.90	18792.16
683.04	18862.38
683.17	18853.02
683.31	18546.40
683.45	18602.58
683.59	18239.79
683.72	18600.24
683.86	18506.62
684.00	18157.88
684.13	18111.07
684.27	18012.76
684.41	18143.83
684.55	18052.55
684.68	17862.97
684.82	17825.52
684.96	17720.20
685.09	17469.76
685.23	17678.07
685.37	17839.56
685.50	17834.88
685.64	17504.87
685.78	17902.76
685.91	17713.17
686.05	17537.63
686.19	17626.57
686.32	17418.27
686.46	17160.81
686.60	16966.54
686.73	17041.44
686.87	17104.64
687.01	16994.63
687.14	16746.53
687.28	16741.85
687.42	16971.22
687.55	17013.35
687.69	16828.45
687.82	16671.64
687.96	16514.82
688.10	16688.02
688.23	16465.67
688.37	16690.36
688.50	16301.83
688.64	16341.62
688.78	16224.59
688.91	16191.83
689.05	16203.53
689.18	16140.33
689.32	15864.15
689.46	15873.51
689.59	15920.32
689.73	16020.97
689.86	15988.20
690.00	15602.01
690.13	15859.47
690.27	15627.76
690.41	15611.37
690.54	15587.97
690.68	15604.35
690.81	15772.87
690.95	15328.17
691.08	15772.87
691.22	15276.68
691.35	15440.51
691.49	15452.22
691.62	15337.53
691.76	15272.00
691.89	15028.58
692.03	15047.30
692.16	14867.08
692.30	14464.51
692.43	14949.00
692.57	14607.28
692.70	14731.33
692.84	14745.38
692.97	14628.35
693.11	14546.43
693.24	14707.93
693.38	14675.16
693.51	14347.48
693.65	14698.56
693.78	14218.75
693.92	14431.74
694.05	14242.16
694.19	14043.21
694.32	13998.74
694.45	14136.84
694.59	13736.60
694.72	13841.93
694.86	13865.33
694.99	13762.35
695.13	13811.50
695.26	13720.22
695.39	13657.03
695.53	13720.22
695.66	13481.49
695.80	13284.88
695.93	13500.21
696.07	13596.17
696.20	13823.20
696.33	13528.30
696.47	13177.22
696.60	13357.44
696.73	13186.58
696.87	13015.72
697.00	13116.36
697.14	12894.01
697.27	12929.12
697.40	12835.50
697.54	12882.31
697.67	12655.28
697.80	12711.45
697.94	12486.76
698.07	12655.28
698.21	12400.16
698.34	12500.80
698.47	12531.23
698.61	12472.71
698.74	12428.24
698.87	12313.56
699.01	12301.86
699.14	12285.47
699.27	12145.04
699.40	12353.35
699.54	11988.22
699.67	11999.93
699.80	11887.58
699.94	12032.69
700.07	11838.43
700.20	11747.15
700.34	11688.64
700.47	11716.72
700.60	11758.85
700.73	11503.73
700.87	11527.14
701.00	11653.53
701.13	11538.84
701.26	11569.27
701.40	11461.60
701.53	11485.01
701.66	11367.98
701.79	11293.08
701.93	11180.74
702.06	11222.87
702.19	11094.14
702.32	11131.59
702.46	10878.81
702.59	11019.24
702.72	10951.37
702.85	10974.77
702.99	10841.36
703.12	10895.19
703.25	10670.50
703.38	10544.11
703.51	10663.48
703.65	10560.50
703.78	10518.37
703.91	10387.30
704.04	10665.82
704.17	10553.48
704.31	10534.75
704.44	10576.88
704.57	10422.41
704.70	9987.07
704.83	10024.51
704.96	10181.33
705.10	9961.32
705.23	10005.79
>>>>>End Processed Spectral Data<<<<<
