SpectraSuite Data File
++++++++++++++++++++++++++++++++++++
Date: Fri Oct 18 13:58:20 GMT-05:00 2013
User: bianchi
Dark Spectrum Present: No
Reference Spectrum Present: No
Number of Sampled Component Spectra: 1
Spectrometers: USB2+H05261
Integration Time (usec): 50000 (USB2+H05261)
Spectra Averaged: 1 (USB2+H05261)
Boxcar Smoothing: 0 (USB2+H05261)
Correct for Electrical Dark: No (USB2+H05261)
Strobe/Lamp Enabled: No (USB2+H05261)
Correct for Detector Non-linearity: No (USB2+H05261)
Correct for Stray Light: No (USB2+H05261)
Number of Pixels in Processed Spectrum: 2048
>>>>>Begin Processed Spectral Data<<<<<
365.73	0.00
365.92	0.00
366.12	0.00
366.32	0.00
366.52	0.00
366.72	0.00
366.91	0.00
367.11	0.00
367.31	0.00
367.51	0.00
367.70	0.00
367.90	0.00
368.10	0.00
368.30	0.00
368.49	0.00
368.69	0.00
368.89	0.00
369.09	0.00
369.28	0.00
369.48	0.00
369.68	0.00
369.87	0.00
370.07	0.00
370.27	0.00
370.47	0.00
370.66	88.94
370.86	77.24
371.06	98.30
371.25	170.86
371.45	112.35
371.65	187.24
371.84	105.32
372.04	105.32
372.24	191.92
372.44	222.35
372.63	152.13
372.83	161.50
373.03	170.86
373.22	222.35
373.42	198.95
373.62	313.63
373.81	250.44
374.01	189.58
374.21	187.24
374.40	180.22
374.60	322.99
374.79	276.18
374.99	142.77
375.19	238.73
375.38	271.50
375.58	259.80
375.78	238.73
375.97	301.93
376.17	224.69
376.37	292.57
376.56	210.65
376.76	292.57
376.95	297.25
377.15	301.93
377.35	250.44
377.54	241.08
377.74	360.44
377.93	278.52
378.13	362.78
378.33	294.91
378.52	238.73
378.72	301.93
378.91	306.61
379.11	311.29
379.31	306.61
379.50	287.89
379.70	220.01
379.89	301.93
380.09	306.61
380.28	294.91
380.48	294.91
380.68	278.52
380.87	238.73
381.07	402.57
381.26	337.04
381.46	372.15
381.65	339.38
381.85	304.27
382.04	271.50
382.24	292.57
382.43	337.04
382.63	271.50
382.83	315.97
383.02	273.84
383.22	355.76
383.41	327.68
383.61	353.42
383.80	353.42
384.00	332.36
384.19	393.21
384.39	346.40
384.58	362.78
384.78	369.80
384.97	395.55
385.17	376.83
385.36	372.15
385.56	425.98
385.75	313.63
385.95	376.83
386.14	423.64
386.34	425.98
386.53	472.79
386.72	414.27
386.92	442.36
387.11	393.21
387.31	440.02
387.50	423.64
387.70	437.68
387.89	425.98
388.09	428.32
388.28	484.49
388.48	376.83
388.67	400.23
388.86	472.79
389.06	458.74
389.25	533.64
389.45	507.90
389.64	451.72
389.84	510.24
390.03	463.43
390.22	514.92
390.42	458.74
390.61	472.79
390.81	458.74
391.00	461.09
391.19	500.87
391.39	526.62
391.58	514.92
391.78	442.36
391.97	557.05
392.16	503.22
392.36	552.37
392.55	519.60
392.75	613.22
392.94	528.96
393.13	503.22
393.33	475.13
393.52	535.98
393.71	578.11
393.91	498.53
394.10	528.96
394.29	561.73
394.49	561.73
394.68	580.45
394.88	559.39
395.07	585.13
395.26	603.86
395.46	709.18
395.65	589.82
395.84	592.16
396.04	732.59
396.23	615.56
396.42	638.97
396.62	638.97
396.81	753.65
397.00	617.90
397.19	667.05
397.39	702.16
397.58	697.48
397.77	688.12
397.97	669.39
398.16	585.13
398.35	709.18
398.55	634.29
398.74	732.59
398.93	660.03
399.12	741.95
399.32	709.18
399.51	657.69
399.70	702.16
399.90	828.55
400.09	748.97
400.28	732.59
400.47	688.12
400.67	800.46
400.86	692.80
401.05	695.14
401.24	772.38
401.44	798.12
401.63	842.59
401.82	753.65
402.01	828.55
402.21	746.63
402.40	767.70
402.59	856.64
402.78	884.72
402.97	861.32
403.17	861.32
403.36	950.26
403.55	844.93
403.74	868.34
403.93	835.57
404.13	938.55
404.32	880.04
404.51	938.55
404.70	950.26
404.89	924.51
405.09	1064.94
405.28	903.45
405.47	1027.50
405.66	947.92
405.85	950.26
406.05	861.32
406.24	985.37
406.43	1013.45
406.62	945.58
406.81	1034.52
407.00	978.34
407.20	1006.43
407.39	1043.88
407.58	1093.03
407.77	1064.94
407.96	1160.91
408.15	1008.77
408.34	1034.52
408.54	1102.39
408.73	1109.41
408.92	1151.54
409.11	1116.44
409.30	1123.46
409.49	1137.50
409.68	1228.78
409.87	1181.97
410.07	1235.80
410.26	1210.06
410.45	1177.29
410.64	1100.05
410.83	1203.04
411.02	1273.25
411.21	1308.36
411.40	1196.01
411.59	1308.36
411.78	1235.80
411.98	1268.57
412.17	1284.95
412.36	1397.30
412.55	1366.87
412.74	1338.79
412.93	1343.47
413.12	1306.02
413.31	1472.20
413.50	1371.55
413.69	1291.98
413.88	1425.39
414.07	1322.40
414.26	1465.18
414.45	1331.76
414.64	1458.15
414.83	1533.05
415.02	1446.45
415.22	1551.78
415.41	1432.41
415.60	1544.75
415.79	1474.54
415.98	1582.20
416.17	1579.86
416.36	1528.37
416.55	1657.10
416.74	1657.10
416.93	1666.46
417.12	1579.86
417.31	1633.69
417.50	1593.90
417.69	1746.04
417.88	1750.72
418.07	1710.93
418.26	1788.17
418.45	1706.25
418.64	1844.34
418.83	1849.02
419.02	1774.13
419.21	1710.93
419.39	1799.87
419.58	1853.70
419.77	1877.11
419.96	1867.75
420.15	1849.02
420.34	1834.98
420.53	1900.52
420.72	1781.15
420.91	1926.26
421.10	1895.83
421.29	1858.39
421.48	1790.51
421.67	1935.62
421.86	1928.60
422.05	1952.01
422.24	1942.64
422.43	1937.96
422.61	1907.54
422.80	2015.20
422.99	1987.11
423.18	2003.50
423.37	2057.33
423.56	2097.12
423.75	1888.81
423.94	1994.14
424.13	1755.40
424.32	1891.15
424.50	2033.93
424.69	2087.76
424.88	2120.53
425.07	2033.93
425.26	2062.01
425.45	2064.35
425.64	2069.03
425.83	1998.82
426.01	2045.63
426.20	2040.95
426.39	2071.37
426.58	1984.77
426.77	2029.24
426.96	2033.93
427.15	2162.66
427.33	2148.61
427.52	2129.89
427.71	2214.15
427.90	2204.78
428.09	2218.83
428.28	2153.29
428.46	2216.49
428.65	2122.87
428.84	2139.25
429.03	2165.00
429.22	2134.57
429.40	2195.42
429.59	2167.34
429.78	2270.32
429.97	2057.33
430.16	2251.60
430.34	2338.20
430.53	2172.02
430.72	2326.49
430.91	2356.92
431.10	2303.09
431.28	2387.35
431.47	2375.64
431.66	2385.01
431.85	2401.39
432.03	2438.84
432.22	2420.11
432.41	2462.24
432.60	2356.92
432.79	2506.71
432.97	2525.44
433.16	2394.37
433.35	2450.54
433.54	2457.56
433.72	2464.58
433.91	2581.61
434.10	2541.82
434.28	2509.05
434.47	2637.78
434.66	2583.95
434.85	2600.34
435.03	2558.21
435.22	2590.97
435.41	2586.29
435.59	2612.04
435.78	2546.50
435.97	2553.52
436.16	2719.70
436.34	2548.84
436.53	2796.94
436.72	2745.45
436.90	2665.87
437.09	2708.00
437.28	2628.42
437.46	2810.98
437.65	2579.27
437.84	2745.45
438.02	2731.41
438.21	2794.60
438.40	2775.88
438.58	2935.03
438.77	2939.71
438.96	2888.22
439.14	2963.12
439.33	2909.29
439.52	3009.93
439.70	2935.03
439.89	3047.38
440.08	2923.33
440.26	2928.01
440.45	3016.95
440.63	3021.63
440.82	3255.69
441.01	2993.55
441.19	3129.30
441.38	3222.92
441.57	3148.02
441.75	3222.92
441.94	3178.45
442.12	3279.09
442.31	3248.66
442.50	3400.80
442.68	3351.65
442.87	3316.54
443.05	3384.41
443.24	3400.80
443.43	3375.05
443.61	3405.48
443.80	3506.12
443.98	3351.65
444.17	3307.18
444.35	3433.57
444.54	3473.36
444.73	3356.33
444.91	3466.33
445.10	3471.01
445.28	3307.18
445.47	3358.67
445.65	3487.40
445.84	3520.17
446.02	3442.93
446.21	3288.45
446.39	3452.29
446.58	3552.93
446.77	3449.95
446.95	3449.95
447.14	3405.48
447.32	3562.30
447.51	3496.76
447.69	3538.89
447.88	3508.46
448.06	3536.55
448.25	3442.93
448.43	3536.55
448.62	3449.95
448.80	3613.79
448.99	3562.30
449.17	3576.34
449.36	3641.87
449.54	3712.09
449.73	3702.73
449.91	3679.32
450.10	3590.38
450.28	3707.41
450.46	3772.94
450.65	3669.96
450.83	3695.71
451.02	3698.05
451.20	3744.86
451.39	3805.71
451.57	3857.20
451.76	3838.48
451.94	3817.41
452.13	3840.82
452.31	3712.09
452.49	3719.11
452.68	3929.76
452.86	3817.41
453.05	3969.55
453.23	3925.08
453.42	3882.95
453.60	3719.11
453.78	3798.69
453.97	3861.88
454.15	3882.95
454.34	3791.67
454.52	4018.70
454.70	3932.10
454.89	3971.89
455.07	4102.96
455.26	3948.48
455.44	4044.45
455.62	4021.04
455.81	3985.93
455.99	4105.30
456.17	4035.08
456.36	4154.45
456.54	4196.58
456.73	4301.90
456.91	4454.04
457.09	4280.84
457.28	4404.89
457.46	4131.05
457.64	4299.56
457.83	4273.82
458.01	4344.03
458.19	4381.48
458.38	4449.36
458.56	4447.02
458.74	4428.29
458.93	4458.72
459.11	4496.17
459.29	4454.04
459.48	4484.47
459.66	4456.38
459.84	4521.92
460.03	4592.13
460.21	4624.90
460.39	4601.49
460.57	4545.32
460.76	4519.57
460.94	4587.45
461.12	4641.28
461.31	4589.79
461.49	4631.92
461.67	4641.28
461.85	4674.05
462.04	4706.82
462.22	4908.10
462.40	4690.43
462.59	4741.93
462.77	4732.56
462.95	4884.70
463.13	4821.50
463.32	4791.08
463.50	4770.01
463.68	4830.87
463.86	4840.23
464.05	4809.80
464.23	4812.14
464.41	4968.96
464.59	4805.12
464.78	4880.02
464.96	4788.74
465.14	4840.23
465.32	4816.82
465.50	5020.45
465.69	5055.56
465.87	4933.85
466.05	5067.26
466.23	4945.55
466.41	5046.20
466.60	5238.12
466.78	5064.92
466.96	4966.62
467.14	5093.01
467.32	5261.52
467.51	5064.92
467.69	5151.52
467.87	5083.64
468.05	5184.29
468.23	5132.79
468.41	5191.31
468.60	5170.24
468.78	5301.31
468.96	5170.24
469.14	5238.12
469.32	5369.19
469.50	5090.67
469.69	5301.31
469.87	5406.64
470.05	5542.39
470.23	5371.53
470.41	5406.64
470.59	5432.38
470.77	5614.95
470.95	5418.34
471.14	5467.49
471.32	5516.64
471.50	5540.05
471.68	5441.75
471.86	5614.95
472.04	5514.30
472.22	5804.53
472.40	5582.18
472.58	5647.71
472.77	5668.78
472.95	5921.56
473.13	6054.97
473.31	5877.09
473.49	5755.38
473.67	5820.91
473.85	5959.00
474.03	6054.97
474.21	6008.16
474.39	6022.20
474.57	6216.46
474.75	6136.88
474.93	6157.95
475.12	6094.76
475.30	6253.91
475.48	6284.34
475.66	6279.66
475.84	6197.74
476.02	6410.73
476.20	6347.53
476.38	6375.62
476.56	6497.33
476.74	6539.46
476.92	6740.74
477.10	6583.93
477.28	6497.33
477.46	6656.48
477.64	6642.44
477.82	6558.18
478.00	6998.20
478.18	6939.69
478.36	6958.41
478.54	7131.61
478.72	7016.93
478.90	7101.19
479.08	7084.80
479.26	7140.97
479.44	7410.14
479.62	7344.60
479.80	7386.73
479.98	7353.96
480.16	7559.93
480.34	7396.09
480.52	7676.96
480.70	7545.89
480.88	7435.88
481.06	7424.18
481.24	7639.51
481.41	7826.75
481.59	8084.21
481.77	7981.23
481.95	7939.10
482.13	8091.23
482.31	7932.08
482.49	8276.13
482.67	8344.01
482.85	8271.45
483.03	8304.22
483.21	8631.90
483.39	8549.98
483.57	8526.57
483.74	8730.20
483.92	8709.13
484.10	8659.98
484.28	8788.71
484.46	8854.25
484.64	9160.86
484.82	8985.32
485.00	9139.79
485.18	9320.01
485.35	9453.42
485.53	9221.71
485.71	9273.20
485.89	9427.68
486.07	9603.22
486.25	9432.36
486.43	9483.85
486.61	9661.73
486.78	9858.34
486.96	9893.44
487.14	9844.29
487.32	10171.97
487.50	9860.68
487.68	10284.31
487.85	10174.31
488.03	10408.36
488.21	10738.38
488.39	10588.58
488.57	10623.69
488.75	10698.59
488.92	10827.32
489.10	10796.89
489.28	10860.09
489.46	11094.14
489.64	11232.23
489.81	11129.25
489.99	11204.14
490.17	11234.57
490.35	11564.59
490.53	11239.25
490.70	11660.55
490.88	11637.14
491.06	11826.73
491.24	11754.17
491.41	11758.85
491.59	12123.98
491.77	11964.82
491.95	12121.63
492.13	12140.36
492.30	12212.92
492.48	12145.04
492.66	12248.02
492.84	12290.15
493.01	12414.20
493.19	12636.55
493.37	12535.91
493.54	12716.13
493.72	12800.39
493.90	12755.92
494.08	13107.00
494.25	13121.04
494.43	12957.21
494.61	13312.97
494.79	13329.35
494.96	13170.19
495.14	13453.40
495.32	13378.50
495.49	13741.29
495.67	13736.60
495.85	13809.16
496.02	13617.24
496.20	13977.68
496.38	13933.21
496.55	14005.77
496.73	13928.53
496.91	14174.28
497.09	14256.20
497.26	14288.97
497.44	14499.62
497.62	14246.84
497.79	14546.43
497.97	14443.45
498.14	14668.14
498.32	14693.88
498.50	14696.22
498.67	14829.63
498.85	14920.92
499.03	14909.21
499.20	15091.77
499.38	14944.32
499.56	15169.01
499.73	15269.66
499.91	15452.22
500.08	15154.97
500.26	15403.07
500.44	15583.29
500.61	15459.24
500.79	15396.04
500.97	15758.83
501.14	15538.82
501.32	15868.83
501.49	15833.72
501.67	15843.09
501.84	16081.82
502.02	15913.30
502.20	16037.35
502.37	15955.43
502.55	16149.70
502.72	16170.76
502.90	16182.46
503.07	16142.67
503.25	16376.73
503.43	16444.60
503.60	16486.73
503.78	16531.20
503.95	16379.07
504.13	16594.40
504.30	16669.30
504.48	16692.70
504.65	16535.88
504.83	16739.51
505.01	16989.95
505.18	16659.93
505.36	17020.38
505.53	17270.81
505.71	16697.38
505.88	17177.19
506.06	16868.24
506.23	17390.18
506.41	17642.96
506.58	17387.84
506.76	17448.69
506.93	17488.48
507.11	17224.00
507.28	17434.65
507.46	17572.74
507.63	17774.03
507.81	17811.48
507.98	17696.79
508.16	17710.83
508.33	17481.46
508.50	17944.89
508.68	17659.34
508.85	17968.29
509.03	17813.82
509.20	18345.12
509.38	18609.60
509.55	18438.74
509.73	18064.25
509.90	18349.80
510.08	18326.39
510.25	18239.79
510.42	18342.78
510.60	18501.93
510.77	18338.10
510.95	18635.35
511.12	18361.50
511.30	18541.72
511.47	18892.80
511.64	18785.14
511.82	18693.86
511.99	18979.40
512.17	18899.83
512.34	18883.44
512.51	18899.83
512.69	19213.46
512.86	19314.10
513.04	19475.60
513.21	19276.65
513.38	19477.94
513.56	19374.95
513.73	19421.77
513.90	19599.65
514.08	19520.07
514.25	19569.22
514.43	19604.33
514.60	19847.74
514.77	20100.52
514.95	19822.00
515.12	19632.41
515.29	19690.93
515.47	19819.66
515.64	20187.12
515.81	19728.38
515.99	19934.34
516.16	20215.21
516.33	20173.08
516.51	20479.69
516.68	20009.24
516.85	20362.66
517.03	19978.81
517.20	20652.89
517.37	20147.33
517.54	20283.08
517.72	20376.70
517.89	20362.66
518.06	20622.46
518.24	20467.98
518.41	20486.71
518.58	20861.19
518.75	20919.71
518.93	20664.59
519.10	20779.28
519.27	21238.02
519.45	20879.92
519.62	21078.86
519.79	21076.52
519.96	20877.58
520.14	21263.77
520.31	21238.02
520.48	21177.17
520.65	21324.62
520.83	21483.78
521.00	21532.93
521.17	21266.11
521.34	21310.58
521.52	21322.28
521.69	21355.05
521.86	21919.12
522.03	21811.45
522.20	21774.00
522.38	21654.64
522.55	21715.49
522.72	21415.90
522.89	21846.56
523.07	22225.73
523.24	22218.71
523.41	22097.00
523.58	21724.85
523.75	22118.06
523.92	21652.30
524.10	22384.88
524.27	22111.04
524.44	22335.73
524.61	22302.96
524.78	22492.55
524.96	22614.26
525.13	22597.87
525.30	22445.74
525.47	22874.06
525.64	22160.19
525.81	22513.61
525.98	22696.17
526.16	22813.20
526.33	22658.73
526.50	23040.23
526.67	22625.96
526.84	22455.10
527.01	22363.82
527.18	22890.44
527.36	23276.63
527.53	23087.04
527.70	23288.33
527.87	23058.96
528.04	23131.51
528.21	23318.76
528.38	23166.62
528.55	23527.06
528.72	23314.08
528.89	23168.96
529.07	23342.16
529.24	23421.74
529.41	23255.56
529.58	23271.95
529.75	23349.18
529.92	23489.62
530.09	23276.63
530.26	23410.04
530.43	23349.18
530.60	23445.15
530.77	23386.63
530.94	23693.24
531.11	23700.26
531.28	23468.55
531.46	23782.18
531.63	23761.12
531.80	24077.09
531.97	23885.17
532.14	23735.37
532.31	23974.11
532.48	23885.17
532.65	24081.77
532.82	24116.88
532.99	24170.71
533.16	23850.06
533.33	24421.15
533.50	24261.99
533.67	24622.44
533.84	24418.81
534.01	24376.68
534.18	24329.87
534.35	24173.05
534.52	24126.24
534.69	24449.24
534.86	24624.78
535.03	24292.42
535.20	24416.47
535.37	24341.57
535.54	24854.15
535.71	24599.03
535.88	24643.50
536.05	24891.60
536.22	24753.51
536.38	24613.07
536.55	25102.25
536.72	25015.65
536.89	24858.83
537.06	24826.06
537.23	25074.16
537.40	24971.18
537.57	25039.05
537.74	25046.07
537.91	25366.73
538.08	25191.19
538.25	25144.38
538.42	25006.28
538.59	25376.09
538.75	25280.13
538.92	25088.20
539.09	25614.82
539.26	25308.21
539.43	25319.92
539.60	25600.78
539.77	25252.04
539.94	25429.92
540.11	25441.62
540.28	25493.12
540.44	25408.86
540.61	25521.20
540.78	25373.75
540.95	25614.82
541.12	25523.54
541.29	25458.01
541.46	26052.50
541.62	25813.77
541.79	25628.87
541.96	25186.50
542.13	25708.44
542.30	25816.11
542.47	26167.19
542.63	26085.27
542.80	26185.91
542.97	25881.64
543.14	26499.55
543.31	26380.18
543.48	26272.51
543.64	26403.58
543.81	26471.46
543.98	26412.95
544.15	26520.61
544.32	26663.38
544.48	26471.46
544.65	26712.53
544.82	26583.80
544.99	26345.07
545.16	26541.68
545.32	26288.90
545.49	26726.58
545.66	26904.46
545.83	26845.94
546.00	26848.29
546.16	26775.73
546.33	26494.86
546.50	26576.78
546.67	26817.86
546.83	26480.82
547.00	26775.73
547.17	27061.27
547.34	26700.83
547.50	27044.89
547.67	26909.14
547.84	26588.49
548.00	27070.64
548.17	26944.25
548.34	27002.76
548.51	27239.15
548.67	27182.98
548.84	27615.98
549.01	27199.37
549.18	27220.43
549.34	26962.97
549.51	27239.15
549.68	27117.45
549.84	27126.81
550.01	27360.86
550.18	27410.01
550.34	27545.76
550.51	27374.91
550.68	27550.45
550.84	26991.06
551.01	27264.90
551.18	27300.01
551.34	27122.13
551.51	27187.66
551.68	27737.69
551.84	27604.28
552.01	27466.19
552.18	27513.00
552.34	27428.74
552.51	27517.68
552.68	27573.85
552.84	27522.36
553.01	27594.92
553.18	27536.40
553.34	28004.51
553.51	27754.07
553.67	27896.85
553.84	28088.77
554.01	28025.57
554.17	27924.93
554.34	28084.09
554.51	28065.36
554.67	28060.68
554.84	27953.02
555.00	28247.93
555.17	27709.60
555.33	27688.54
555.50	28098.13
555.67	27964.72
555.83	28215.16
556.00	27969.40
556.16	28161.33
556.33	28168.35
556.50	28456.23
556.66	28510.07
556.83	28030.26
556.99	28479.64
557.16	28456.23
557.32	28449.21
557.49	28573.26
557.65	28299.42
557.82	28170.69
557.98	28395.38
558.15	28503.04
558.32	28397.72
558.48	28568.58
558.65	28215.16
558.81	28917.32
558.98	28379.00
559.14	28730.08
559.31	28584.96
559.47	28292.40
559.64	28856.46
559.80	28629.43
559.97	28526.45
560.13	28514.75
560.30	28636.45
560.46	28634.11
560.63	28769.86
560.79	28783.91
560.96	28694.97
561.12	28575.60
561.29	28456.23
561.45	28840.08
561.61	29046.05
561.78	28786.25
561.94	28671.56
562.11	28643.48
562.27	28900.94
562.44	28765.18
562.60	28734.76
562.77	28753.48
562.93	28842.42
563.10	28774.55
563.26	28790.93
563.42	29411.17
563.59	28891.57
563.75	29303.51
563.92	29001.58
564.08	28648.16
564.24	28690.29
564.41	28617.73
564.57	28996.90
564.74	28713.69
564.90	28730.08
565.07	29095.20
565.23	29064.77
565.39	29289.46
565.56	28922.00
565.72	29289.46
565.88	29039.03
566.05	29036.69
566.21	29069.45
566.38	29165.42
566.54	28966.47
566.70	29336.27
566.87	29336.27
567.03	29785.66
567.19	29958.86
567.36	29560.97
567.52	29256.70
567.68	29521.18
567.85	28966.47
568.01	29298.83
568.17	29181.80
568.34	29537.56
568.50	29275.42
568.66	29289.46
568.83	29448.62
568.99	29677.99
569.15	29621.82
569.32	29242.65
569.48	29411.17
569.64	29266.06
569.81	29266.06
569.97	29191.16
570.13	29429.90
570.30	28968.81
570.46	29886.30
570.62	29336.27
570.78	29193.50
570.95	29055.41
571.11	29408.83
571.27	29055.41
571.43	29502.45
571.60	29476.71
571.76	29645.23
571.92	29535.22
572.09	29703.74
572.25	29570.33
572.41	29228.61
572.57	29380.74
572.74	29570.33
572.90	29521.18
573.06	29839.49
573.22	29149.03
573.38	29589.05
573.55	29462.66
573.71	30059.50
573.87	29535.22
574.03	29560.97
574.20	29523.52
574.36	29479.05
574.52	29600.76
574.68	29144.35
574.84	29369.04
575.01	29638.20
575.17	29572.67
575.33	29593.73
575.49	29525.86
575.65	29633.52
575.82	29483.73
575.98	29411.17
576.14	29687.36
576.30	29663.95
576.46	29771.61
576.62	29579.69
576.79	29893.32
576.95	29310.53
577.11	29649.91
577.27	29965.88
577.43	29535.22
577.59	29867.58
577.75	29823.11
577.92	29053.07
578.08	29315.21
578.24	29692.04
578.40	29692.04
578.56	29734.17
578.72	29687.36
578.88	29982.26
579.04	29951.84
579.21	29670.97
579.37	29563.31
579.53	29893.32
579.69	29453.30
579.85	29640.54
580.01	29537.56
580.17	29642.88
580.33	29745.87
580.49	29448.62
580.65	29923.75
580.82	29954.18
580.98	29919.07
581.14	29654.59
581.30	29865.24
581.46	29635.86
581.62	29441.60
581.78	29750.55
581.94	29736.51
582.10	30071.20
582.26	29853.53
582.42	29549.26
582.58	29596.07
582.74	29926.09
582.90	29830.13
583.06	29699.06
583.22	29701.40
583.38	30005.67
583.54	29565.65
583.70	29575.01
583.86	29661.61
584.02	29457.98
584.18	29448.62
584.34	30185.89
584.50	30103.97
584.66	30066.52
584.82	29467.34
584.98	29933.11
585.14	29841.83
585.30	29720.12
585.46	29642.88
585.62	29537.56
585.78	29993.97
585.94	29853.53
586.10	30394.20
586.26	29933.11
586.42	29860.55
586.58	29820.77
586.74	29862.90
586.90	29673.31
587.06	29324.57
587.22	29706.08
587.38	29724.80
587.54	29633.52
587.70	30246.74
587.86	30092.27
588.02	30038.44
588.18	30171.85
588.34	29879.28
588.49	29909.71
588.65	29937.79
588.81	29862.90
588.97	29886.30
589.13	29968.22
589.29	29734.17
589.45	30136.74
589.61	30408.24
589.77	30008.01
589.93	30132.06
590.08	30160.14
590.24	30508.88
590.40	30405.90
590.56	29717.78
590.72	30150.78
590.88	29795.02
591.04	30309.94
591.20	30691.44
591.35	30527.61
591.51	30366.11
591.67	30485.48
591.83	30520.59
591.99	30202.27
592.15	29986.94
592.31	30181.21
592.46	29905.02
592.62	29890.98
592.78	30202.27
592.94	30204.61
593.10	30316.96
593.26	30206.95
593.41	30272.49
593.57	30050.14
593.73	30024.39
593.89	30195.25
594.05	30335.68
594.20	30127.38
594.36	30155.46
594.52	30202.27
594.68	29919.07
594.84	30167.16
594.99	30195.25
595.15	30155.46
595.31	30843.58
595.47	30527.61
595.62	30567.40
595.78	30239.72
595.94	30288.87
596.10	30150.78
596.25	29848.85
596.41	29968.22
596.57	30239.72
596.73	30405.90
596.88	30490.16
597.04	30349.73
597.20	30754.64
597.36	29888.64
597.51	30471.43
597.67	29944.81
597.83	30632.93
597.99	30445.69
598.14	30387.18
598.30	30866.98
598.46	30249.08
598.61	30221.00
598.77	30162.48
598.93	30359.09
599.09	30256.11
599.24	30710.17
599.40	30494.84
599.56	30508.88
599.71	30380.15
599.87	30480.80
600.03	29867.58
600.18	30340.36
600.34	30429.30
600.50	30148.44
600.65	30518.25
600.81	30684.42
600.97	30347.39
601.12	30546.33
601.28	30618.89
601.44	30663.36
601.59	30405.90
601.75	30314.62
601.91	30478.46
602.06	30209.29
602.22	30419.94
602.37	30354.41
602.53	30359.09
602.69	30590.80
602.84	30108.65
603.00	30551.01
603.16	30246.74
603.31	30415.26
603.47	30548.67
603.62	30515.90
603.78	30394.20
603.94	30260.79
604.09	30464.41
604.25	30569.74
604.40	30632.93
604.56	30529.95
604.71	30710.17
604.87	30438.67
605.03	30426.96
605.18	30305.26
605.34	30265.47
605.49	30235.04
605.65	30522.93
605.80	30223.34
605.96	30433.99
606.12	30249.08
606.27	30707.83
606.43	30433.99
606.58	30675.06
606.74	30522.93
606.89	30356.75
607.05	30792.09
607.20	30756.98
607.36	30263.13
607.51	30316.96
607.67	30085.25
607.82	30122.69
607.98	30443.35
608.13	30103.97
608.29	30499.52
608.44	30249.08
608.60	30412.92
608.75	30525.27
608.91	29947.15
609.06	30373.13
609.22	30298.23
609.37	30162.48
609.53	30015.03
609.68	30094.61
609.84	30108.65
609.99	30323.98
610.15	30181.21
610.30	29778.64
610.46	29972.90
610.61	30314.62
610.76	30050.14
610.92	29940.13
611.07	30033.75
611.23	30092.27
611.38	30008.01
611.54	29834.81
611.69	29928.43
611.84	29919.07
612.00	29656.93
612.15	29776.30
612.31	30101.63
612.46	29837.15
612.62	30075.88
612.77	30143.76
612.92	30113.33
613.08	30024.39
613.23	29972.90
613.39	30012.69
613.54	29596.07
613.69	30096.95
613.85	29715.44
614.00	29883.96
614.15	29795.02
614.31	29504.79
614.46	29912.05
614.62	29982.26
614.77	29560.97
614.92	29759.91
615.08	29743.53
615.23	29804.38
615.38	29888.64
615.54	29605.44
615.69	29769.27
615.84	29685.01
616.00	29984.60
616.15	29509.47
616.30	29848.85
616.46	29483.73
616.61	29626.50
616.76	29663.95
616.92	29542.24
617.07	29694.38
617.22	29558.63
617.37	29457.98
617.53	29593.73
617.68	29385.43
617.83	29233.29
617.99	29493.09
618.14	29486.07
618.29	29769.27
618.45	29282.44
618.60	29462.66
618.75	29612.46
618.90	29347.98
619.06	29563.31
619.21	29633.52
619.36	29219.25
619.51	29413.51
619.67	28989.88
619.82	28877.53
619.97	29090.52
620.12	29102.22
620.28	28713.69
620.43	29127.97
620.58	29069.45
620.73	29537.56
620.89	29078.82
621.04	29656.93
621.19	29460.32
621.34	29223.93
621.49	29022.64
621.65	29041.37
621.80	28943.06
621.95	28821.36
622.10	29125.63
622.25	28980.51
622.41	28912.64
622.56	29273.08
622.71	29032.00
622.86	28945.41
623.01	29324.57
623.16	28828.38
623.32	28751.14
623.47	28989.88
623.62	29060.09
623.77	28924.34
623.92	29060.09
624.07	28783.91
624.23	28599.01
624.38	28994.56
624.53	28912.64
624.68	28587.30
624.83	29397.13
624.98	29287.12
625.13	28905.62
625.29	28947.75
625.44	29022.64
625.59	28528.79
625.74	28566.24
625.89	28521.77
626.04	28926.68
626.19	28268.99
626.34	28273.67
626.49	28187.07
626.65	28421.13
626.80	28919.66
626.95	28636.45
627.10	28741.78
627.25	28533.47
627.40	28247.93
627.55	28519.43
627.70	28435.17
627.85	27892.16
628.00	28196.43
628.15	28360.27
628.30	28357.93
628.45	28524.11
628.60	28126.22
628.76	28636.45
628.91	28776.89
629.06	28283.03
629.21	28357.93
629.36	28610.71
629.51	28107.49
629.66	28123.88
629.81	28126.22
629.96	28280.69
630.11	27693.22
630.26	28119.20
630.41	28088.77
630.56	27997.49
630.71	28229.20
630.86	27875.78
631.01	28133.24
631.16	28112.17
631.31	28170.69
631.46	27821.95
631.61	27955.36
631.76	27721.30
631.91	27714.28
632.06	27707.26
632.21	27889.82
632.36	27878.12
632.51	28020.89
632.66	27953.02
632.81	27433.42
632.96	27906.21
633.10	27339.80
633.25	27819.61
633.40	27833.65
633.55	27669.81
633.70	27555.13
633.85	27323.41
634.00	27777.48
634.15	27964.72
634.30	27433.42
634.45	27594.92
634.60	27590.24
634.75	27454.48
634.90	27082.34
635.05	27417.04
635.19	27424.06
635.34	27917.91
635.49	27730.67
635.64	27564.49
635.79	27730.67
635.94	27351.50
636.09	27669.81
636.24	27236.81
636.39	27433.42
636.53	27438.10
636.68	26948.93
636.83	27290.65
636.98	27660.45
637.13	27276.60
637.28	27747.05
637.43	27482.57
637.57	27342.14
637.72	26960.63
637.87	27215.75
638.02	27049.57
638.17	27644.07
638.32	27154.90
638.46	27115.11
638.61	26930.20
638.76	27131.49
638.91	26941.91
639.06	27096.38
639.20	27693.22
639.35	27150.21
639.50	27311.71
639.65	27342.14
639.80	27257.88
639.94	27131.49
640.09	27285.97
640.24	26972.33
640.39	27115.11
640.54	26885.73
640.68	27215.75
640.83	26939.57
640.98	26831.90
641.13	26464.44
641.27	26902.12
641.42	26504.23
641.57	26668.06
641.72	26993.40
641.86	26782.75
642.01	27063.61
642.16	26768.71
642.31	26529.97
642.45	26642.32
642.60	26345.07
642.75	26499.55
642.90	26342.73
643.04	26497.20
643.19	26150.81
643.34	26274.85
643.48	26625.93
643.63	26700.83
643.78	26834.24
643.93	26934.88
644.07	26749.98
644.22	26555.72
644.37	26485.50
644.51	26909.14
644.66	26597.85
644.81	26436.35
644.95	26431.67
645.10	26403.58
645.25	26178.89
645.39	26335.71
645.54	26284.22
645.69	26216.34
645.83	26373.16
645.98	26691.47
646.13	26539.33
646.27	26429.33
646.42	26012.71
646.57	26326.35
646.71	26108.68
646.86	26354.43
647.00	26270.17
647.15	26068.89
647.30	26050.16
647.44	25991.65
647.59	26202.30
647.74	26103.99
647.88	26281.88
648.03	26309.96
648.17	26195.28
648.32	26122.72
648.47	26532.31
648.61	26263.15
648.76	26185.91
648.90	26494.86
649.05	26146.12
649.20	25909.73
649.34	26242.09
649.49	25647.59
649.63	25909.73
649.78	25993.99
649.92	25769.30
650.07	26197.62
650.21	25635.89
650.36	25907.39
650.51	25766.96
650.65	25635.89
650.80	25996.33
650.94	25975.27
651.09	25968.24
651.23	25689.72
651.38	25434.60
651.52	25380.77
651.67	25682.70
651.81	25696.74
651.96	25539.93
652.10	25413.54
652.25	25614.82
652.39	25804.41
652.54	25764.62
652.68	26061.87
652.83	25762.28
652.97	25839.51
653.12	25582.06
653.26	25694.40
653.41	25757.60
653.55	25640.57
653.70	25338.64
653.84	25343.32
653.99	25432.26
654.13	25488.43
654.27	25450.99
654.42	25596.10
654.56	25254.38
654.71	25439.28
654.85	25553.97
655.00	25617.16
655.14	25069.48
655.29	25397.15
655.43	25436.94
655.57	25226.29
655.72	25130.33
655.86	24952.45
656.01	25270.76
656.15	24999.26
656.30	24907.98
656.44	24900.96
656.58	24741.80
656.73	25102.25
656.87	25118.63
657.01	25284.81
657.16	25326.94
657.30	25415.88
657.45	25109.27
657.59	25078.84
657.73	24907.98
657.88	24968.84
658.02	24669.25
658.16	24982.88
658.31	24788.61
658.45	24669.25
658.60	25212.25
658.74	24872.87
658.88	24627.12
659.03	24947.77
659.17	24769.89
659.31	24779.25
659.46	24847.13
659.60	24903.30
659.74	25039.05
659.89	24687.97
660.03	24283.06
660.17	24704.35
660.32	24285.40
660.46	24187.10
660.60	24435.19
660.74	24196.46
660.89	24343.91
661.03	24283.06
661.17	24177.73
661.32	23889.85
661.46	24622.44
661.60	24046.66
661.74	24641.16
661.89	24222.20
662.03	24325.19
662.17	24149.65
662.31	24133.26
662.46	24226.89
662.60	24425.83
662.74	24006.87
662.88	23941.34
663.03	23981.13
663.17	23639.41
663.31	23543.45
663.45	23751.76
663.60	23922.62
663.74	23899.21
663.88	23978.79
664.02	23800.91
664.17	23817.29
664.31	23599.62
664.45	23866.44
664.59	23599.62
664.73	23693.24
664.88	23524.72
665.02	23594.94
665.16	23733.03
665.30	23243.86
665.44	23414.72
665.59	22963.00
665.73	23311.74
665.87	23084.70
666.01	23227.48
666.15	23264.92
666.29	23241.52
666.44	23421.74
666.58	23449.83
666.72	22806.18
666.86	23248.54
667.00	23131.51
667.14	23157.26
667.28	22960.66
667.43	23211.09
667.57	23236.84
667.71	23012.15
667.85	22906.82
667.99	22675.11
668.13	23073.00
668.27	22710.22
668.41	23101.09
668.56	22738.30
668.70	22504.25
668.84	22637.66
668.98	22719.58
669.12	22911.50
669.26	22581.49
669.40	22539.36
669.54	22661.07
669.68	22682.13
669.82	21954.22
669.96	22036.14
670.10	22073.59
670.25	22155.51
670.39	22258.49
670.53	22347.44
670.67	22010.40
670.81	22209.34
670.95	21916.78
671.09	22387.22
671.23	22211.68
671.37	22164.87
671.51	22001.04
671.65	22216.36
671.79	22155.51
671.93	22284.24
672.07	21926.14
672.21	21759.96
672.35	21626.55
672.49	21752.94
672.63	21891.03
672.77	21322.28
672.91	21771.66
673.05	21612.51
673.19	21406.54
673.33	21582.08
673.47	21352.71
673.61	21490.80
673.75	21413.56
673.89	21736.56
674.03	21451.01
674.17	21149.08
674.31	21006.31
674.45	21071.84
674.59	21326.96
674.73	20900.98
674.87	20851.83
675.01	21177.17
675.15	21158.44
675.29	20648.21
675.43	21076.52
675.56	20910.35
675.70	21139.72
675.84	20676.29
675.98	20070.09
676.12	21010.99
676.26	20627.14
676.40	21142.06
676.54	20779.28
676.68	20416.49
676.82	20032.65
676.96	20203.50
677.10	20128.61
677.23	20095.84
677.37	20042.01
677.51	20119.24
677.65	20102.86
677.79	19992.86
677.93	19749.44
678.07	19936.68
678.21	19999.88
678.34	19859.45
678.48	19683.91
678.62	19756.46
678.76	19274.31
678.90	19468.58
679.04	19562.20
679.18	19051.96
679.31	19115.16
679.45	19150.26
679.59	19101.11
679.73	19133.88
679.87	18970.04
680.00	19168.99
680.14	19089.41
680.28	19058.98
680.42	19152.60
680.56	18787.48
680.70	18855.36
680.83	18834.29
680.97	18712.58
681.11	18691.52
681.25	18717.26
681.39	18541.72
681.52	18747.69
681.66	18324.05
681.80	18333.42
681.94	18024.47
682.07	18551.09
682.21	18176.60
682.35	17877.01
682.49	18122.77
682.62	18293.63
682.76	17884.03
682.90	18019.78
683.04	17949.57
683.17	18029.15
683.31	18026.81
683.45	18078.30
683.59	17710.83
683.72	17736.58
683.86	17736.58
684.00	17668.70
684.13	17572.74
684.27	17462.74
684.41	17336.35
684.55	17118.68
684.68	17364.43
684.82	17027.40
684.96	16915.05
685.09	16968.88
685.23	16835.47
685.37	16828.45
685.50	17240.39
685.64	17224.00
685.78	16765.26
685.91	16877.60
686.05	16863.56
686.19	16856.54
686.32	16823.77
686.46	16926.75
686.60	16535.88
686.73	16346.30
686.87	16210.55
687.01	16278.43
687.14	16325.24
687.28	16084.16
687.42	16266.72
687.55	16280.77
687.69	15978.84
687.82	16088.84
687.96	15854.79
688.10	15786.91
688.23	15999.90
688.37	16030.33
688.50	15763.51
688.64	15786.91
688.78	15800.96
688.91	15623.08
689.05	15719.04
689.18	15508.39
689.32	15154.97
689.46	15424.13
689.59	15147.95
689.73	15431.15
689.86	14970.07
690.00	15269.66
690.13	15330.51
690.27	15176.03
690.41	15171.35
690.54	14995.81
690.68	15002.83
690.81	14930.28
690.95	15161.99
691.08	15105.82
691.22	14747.72
691.35	14728.99
691.49	15075.39
691.62	14525.36
691.76	14719.63
691.89	14466.85
692.03	14314.72
692.16	14200.03
692.30	14195.35
692.43	14202.37
692.57	14361.53
692.70	14092.37
692.84	14284.29
692.97	13970.66
693.11	14043.21
693.24	13816.18
693.38	14204.71
693.51	13926.19
693.65	13804.48
693.78	13724.90
693.92	13757.67
694.05	13738.94
694.19	13458.08
694.32	13593.83
694.45	13617.24
694.59	13312.97
694.72	13289.56
694.86	12952.52
694.99	12996.99
695.13	13125.72
695.26	13090.62
695.39	13144.45
695.53	13217.01
695.66	12938.48
695.80	12793.37
695.93	13118.70
696.07	13121.04
696.20	13135.09
696.33	12727.83
696.47	12695.07
696.60	12603.78
696.73	12535.91
696.87	12641.23
697.00	12645.91
697.14	12329.94
697.27	12250.36
697.40	12381.43
697.54	12243.34
697.67	12100.57
697.80	12196.53
697.94	11889.92
698.07	11950.78
698.21	12018.65
698.34	12065.46
698.47	12114.61
698.61	11920.35
698.74	12067.80
698.87	11948.43
699.01	11644.17
699.14	11779.92
699.27	11754.17
699.40	11871.20
699.54	11550.54
699.67	11396.07
699.80	11110.52
699.94	11300.11
700.07	11297.77
700.20	11190.10
700.34	11204.14
700.47	11040.31
700.60	11059.03
700.73	11342.24
700.87	11126.91
701.00	11159.67
701.13	11042.65
701.26	11000.52
701.40	11089.46
701.53	10998.18
701.66	10930.30
701.79	10923.28
701.93	10691.57
702.06	10729.02
702.19	10501.98
702.32	10764.12
702.46	10424.75
702.59	10476.24
702.72	10277.29
702.85	10427.09
702.99	10195.37
703.12	10345.17
703.25	10134.52
703.38	10291.34
703.51	10136.86
703.65	10296.02
703.78	10164.95
703.91	10026.86
704.04	10115.80
704.17	10244.52
704.31	10017.49
704.44	9795.14
704.57	10129.84
704.70	10017.49
704.83	9647.69
704.96	9504.92
705.10	9577.47
705.23	9664.07
>>>>>End Processed Spectral Data<<<<<
