SpectraSuite Data File
++++++++++++++++++++++++++++++++++++
Date: Fri Oct 18 13:57:58 GMT-05:00 2013
User: bianchi
Dark Spectrum Present: No
Reference Spectrum Present: No
Number of Sampled Component Spectra: 1
Spectrometers: USB2+H05261
Integration Time (usec): 50000 (USB2+H05261)
Spectra Averaged: 1 (USB2+H05261)
Boxcar Smoothing: 0 (USB2+H05261)
Correct for Electrical Dark: No (USB2+H05261)
Strobe/Lamp Enabled: No (USB2+H05261)
Correct for Detector Non-linearity: No (USB2+H05261)
Correct for Stray Light: No (USB2+H05261)
Number of Pixels in Processed Spectrum: 2048
>>>>>Begin Processed Spectral Data<<<<<
365.73	0.00
365.92	0.00
366.12	0.00
366.32	0.00
366.52	0.00
366.72	0.00
366.91	0.00
367.11	0.00
367.31	0.00
367.51	0.00
367.70	0.00
367.90	0.00
368.10	0.00
368.30	0.00
368.49	0.00
368.69	0.00
368.89	0.00
369.09	0.00
369.28	0.00
369.48	0.00
369.68	0.00
369.87	0.00
370.07	0.00
370.27	0.00
370.47	0.00
370.66	147.45
370.86	112.35
371.06	110.01
371.25	156.82
371.45	126.39
371.65	198.95
371.84	98.30
372.04	135.75
372.24	201.29
372.44	161.50
372.63	147.45
372.83	222.35
373.03	135.75
373.22	142.77
373.42	229.37
373.62	229.37
373.81	180.22
374.01	276.18
374.21	191.92
374.40	287.89
374.60	285.55
374.79	205.97
374.99	269.16
375.19	266.82
375.38	203.63
375.58	250.44
375.78	243.42
375.97	266.82
376.17	241.08
376.37	198.95
376.56	297.25
376.76	255.12
376.95	229.37
377.15	208.31
377.35	245.76
377.54	311.29
377.74	292.57
377.93	276.18
378.13	224.69
378.33	262.14
378.52	322.99
378.72	231.71
378.91	238.73
379.11	301.93
379.31	271.50
379.50	334.70
379.70	421.30
379.89	311.29
380.09	299.59
380.28	327.68
380.48	241.08
380.68	241.08
380.87	332.36
381.07	236.39
381.26	383.85
381.46	294.91
381.65	369.80
381.85	327.68
382.04	285.55
382.24	351.08
382.43	376.83
382.63	334.70
382.83	388.53
383.02	393.21
383.22	337.04
383.41	341.72
383.61	327.68
383.80	510.24
384.00	313.63
384.19	454.06
384.39	423.64
384.58	358.10
384.78	411.93
384.97	423.64
385.17	442.36
385.36	358.10
385.56	334.70
385.75	344.06
385.95	491.51
386.14	496.19
386.34	351.08
386.53	404.91
386.72	414.27
386.92	486.83
387.11	414.27
387.31	407.25
387.50	416.62
387.70	430.66
387.89	416.62
388.09	521.94
388.28	376.83
388.48	463.43
388.67	482.15
388.86	456.40
389.06	470.45
389.25	578.11
389.45	559.39
389.64	510.24
389.84	535.98
390.03	491.51
390.22	463.43
390.42	547.69
390.61	500.87
390.81	500.87
391.00	472.79
391.19	599.18
391.39	477.47
391.58	489.17
391.78	510.24
391.97	540.66
392.16	589.82
392.36	552.37
392.55	561.73
392.75	507.90
392.94	585.13
393.13	582.79
393.33	524.28
393.52	582.79
393.71	662.37
393.91	594.50
394.10	543.00
394.29	608.54
394.49	592.16
394.68	688.12
394.88	566.41
395.07	557.05
395.26	589.82
395.46	638.97
395.65	608.54
395.84	610.88
396.04	601.52
396.23	697.48
396.42	645.99
396.62	638.97
396.81	667.05
397.00	655.35
397.19	610.88
397.39	631.94
397.58	753.65
397.77	723.23
397.97	758.33
398.16	674.07
398.35	699.82
398.55	648.33
398.74	599.18
398.93	711.52
399.12	774.72
399.32	723.23
399.51	758.33
399.70	795.78
399.90	788.76
400.09	753.65
400.28	737.27
400.47	844.93
400.67	765.36
400.86	828.55
401.05	727.91
401.24	793.44
401.44	823.87
401.63	835.57
401.82	891.74
402.01	844.93
402.21	868.34
402.40	774.72
402.59	842.59
402.78	809.83
402.97	842.59
403.17	912.81
403.36	837.91
403.55	840.25
403.74	842.59
403.93	924.51
404.13	980.68
404.32	887.06
404.51	905.79
404.70	990.05
404.89	891.74
405.09	943.24
405.28	1015.79
405.47	1013.45
405.66	987.71
405.85	1060.26
406.05	950.26
406.24	1104.73
406.43	971.32
406.62	997.07
406.81	1116.44
407.00	1069.62
407.20	976.00
407.39	1109.41
407.58	1095.37
407.77	1109.41
407.96	1104.73
408.15	1137.50
408.34	1188.99
408.54	1149.20
408.73	1008.77
408.92	1146.86
409.11	1172.61
409.30	1153.88
409.49	1193.67
409.68	1132.82
409.87	1153.88
410.07	1210.06
410.26	1245.16
410.45	1181.97
410.64	1109.41
410.83	1313.04
411.02	1205.38
411.21	1320.06
411.40	1380.92
411.59	1397.30
411.78	1284.95
411.98	1270.91
412.17	1336.45
412.36	1245.16
412.55	1352.83
412.74	1364.53
412.93	1401.98
413.12	1376.24
413.31	1453.47
413.50	1432.41
413.69	1462.83
413.88	1399.64
414.07	1404.32
414.26	1437.09
414.45	1544.75
414.64	1537.73
414.83	1598.59
415.02	1488.58
415.22	1521.35
415.41	1535.39
415.60	1652.42
415.79	1661.78
415.98	1717.95
416.17	1734.34
416.36	1659.44
416.55	1750.72
416.74	1664.12
416.93	1750.72
417.12	1729.66
417.31	1624.33
417.50	1795.19
417.69	1839.66
417.88	1923.92
418.07	1799.87
418.26	1804.55
418.45	1872.43
418.64	1837.32
418.83	1825.62
419.02	1799.87
419.21	1895.83
419.39	1923.92
419.58	1797.53
419.77	1818.60
419.96	1881.79
420.15	1893.49
420.34	1909.88
420.53	1975.41
420.72	2024.56
420.91	1975.41
421.10	2036.27
421.29	2062.01
421.48	1856.04
421.67	2015.20
421.86	1987.11
422.05	1984.77
422.24	2024.56
422.43	2080.74
422.61	2087.76
422.80	2090.10
422.99	2064.35
423.18	2057.33
423.37	2113.50
423.56	2090.10
423.75	2099.46
423.94	2120.53
424.13	1970.73
424.32	2019.88
424.50	2157.97
424.69	2129.89
424.88	2249.25
425.07	2066.69
425.26	2012.86
425.45	2146.27
425.64	2022.22
425.83	2143.93
426.01	2019.88
426.20	2125.21
426.39	2057.33
426.58	2052.65
426.77	2202.44
426.96	2176.70
427.15	2108.82
427.33	2176.70
427.52	2155.63
427.71	2223.51
427.90	2265.64
428.09	2256.28
428.28	2207.13
428.46	2211.81
428.65	2300.75
428.84	2172.02
429.03	2347.56
429.22	2263.30
429.40	2237.55
429.59	2349.90
429.78	2132.23
429.97	2186.06
430.16	2260.96
430.34	2314.79
430.53	2319.47
430.72	2389.69
430.91	2368.62
431.10	2441.18
431.28	2319.47
431.47	2413.09
431.66	2422.45
431.85	2431.82
432.03	2457.56
432.22	2520.76
432.41	2555.86
432.60	2445.86
432.79	2464.58
432.97	2586.29
433.16	2593.31
433.35	2569.91
433.54	2546.50
433.72	2499.69
433.91	2469.27
434.10	2504.37
434.28	2682.25
434.47	2511.39
434.66	2621.40
434.85	2679.91
435.03	2635.44
435.22	2579.27
435.41	2586.29
435.59	2731.41
435.78	2637.78
435.97	2644.81
436.16	2736.09
436.34	2658.85
436.53	2796.94
436.72	2761.83
436.90	2757.15
437.09	2670.55
437.28	2860.13
437.46	2881.20
437.65	2801.62
437.84	2932.69
438.02	2846.09
438.21	2967.80
438.40	2862.48
438.58	2949.08
438.77	3038.02
438.96	3002.91
439.14	2911.63
439.33	2986.52
439.52	3035.67
439.70	3026.31
439.89	3136.32
440.08	3049.72
440.26	3077.80
440.45	3148.02
440.63	3012.27
440.82	3108.23
441.01	3155.04
441.19	3206.53
441.38	3375.05
441.57	3173.77
441.75	3419.52
441.94	3368.03
442.12	3337.60
442.31	3405.48
442.50	3391.44
442.68	3400.80
442.87	3391.44
443.05	3400.80
443.24	3492.08
443.43	3494.42
443.61	3428.88
443.80	3445.27
443.98	3463.99
444.17	3478.04
444.35	3520.17
444.54	3620.81
444.73	3522.51
444.91	3644.21
445.10	3662.94
445.28	3602.08
445.47	3515.48
445.65	3536.55
445.84	3531.87
446.02	3627.83
446.21	3583.36
446.39	3529.53
446.58	3611.45
446.77	3555.27
446.95	3543.57
447.14	3496.76
447.32	3733.15
447.51	3679.32
447.69	3667.62
447.88	3714.43
448.06	3658.26
448.25	3669.96
448.43	3723.79
448.62	3595.06
448.80	3662.94
448.99	3597.40
449.17	3707.41
449.36	3679.32
449.54	3700.39
449.73	3702.73
449.91	3829.12
450.10	3772.94
450.28	3913.38
450.46	3934.44
450.65	3875.93
450.83	4070.19
451.02	3925.08
451.20	3859.54
451.39	3878.27
451.57	3920.40
451.76	3840.82
451.94	3964.87
452.13	4025.72
452.31	4035.08
452.49	3861.88
452.68	3946.14
452.86	3866.56
453.05	3955.51
453.23	4063.17
453.42	3983.59
453.60	3985.93
453.78	4018.70
453.97	3997.64
454.15	3955.51
454.34	4011.68
454.52	4081.89
454.70	3946.14
454.89	4051.47
455.07	4184.88
455.26	4147.43
455.44	4285.52
455.62	4201.26
455.81	4189.56
455.99	4259.78
456.17	4147.43
456.36	4290.20
456.54	4222.33
456.73	4346.37
456.91	4416.59
457.09	4386.16
457.28	4510.21
457.46	4329.99
457.64	4585.11
457.83	4402.55
458.01	4484.47
458.19	4538.30
458.38	4489.15
458.56	4634.26
458.74	4468.08
458.93	4585.11
459.11	4573.41
459.29	4655.33
459.48	4599.15
459.66	4592.13
459.84	4770.01
460.03	4552.34
460.21	4620.22
460.39	4550.00
460.57	4566.39
460.76	4601.49
460.94	4744.27
461.12	4692.77
461.31	4711.50
461.49	4681.07
461.67	4627.24
461.85	4791.08
462.04	5025.13
462.22	5071.94
462.40	5025.13
462.59	4812.14
462.77	4842.57
462.95	5015.77
463.13	4887.04
463.32	4912.78
463.50	4973.64
463.68	5029.81
463.86	4940.87
464.05	4990.02
464.23	4915.12
464.41	5135.14
464.59	4983.00
464.78	4987.68
464.96	5102.37
465.14	5135.14
465.32	5170.24
465.50	5078.96
465.69	5153.86
465.87	5053.22
466.05	4975.98
466.23	5057.90
466.41	5188.97
466.60	5097.69
466.78	5111.73
466.96	5114.07
467.14	5193.65
467.32	5390.25
467.51	5238.12
467.69	5153.86
467.87	5324.72
468.05	5303.65
468.23	5310.68
468.41	5263.86
468.60	5277.91
468.78	5441.75
468.96	5224.08
469.14	5481.53
469.32	5533.03
469.50	5313.02
469.69	5474.51
469.87	5600.90
470.05	5689.84
470.23	5582.18
470.41	5549.41
470.59	5563.45
470.77	5596.22
470.95	5589.20
471.14	5776.44
471.32	5579.84
471.50	5811.55
471.68	5652.39
471.86	5654.73
472.04	5762.40
472.22	6022.20
472.40	5788.14
472.58	5797.51
472.77	6024.54
472.95	5785.80
473.13	6073.69
473.31	5966.03
473.49	6022.20
473.67	6043.26
473.85	6134.54
474.03	6242.21
474.21	6204.76
474.39	6200.08
474.57	6270.30
474.75	6342.85
474.93	6443.49
475.12	6277.32
475.30	6443.49
475.48	6403.71
475.66	6363.92
475.84	6366.26
476.02	6441.15
476.20	6436.47
476.38	6502.01
476.56	6904.58
476.74	6977.14
476.92	6780.53
477.10	6562.86
477.28	6792.23
477.46	6635.42
477.64	6817.98
477.82	6986.50
478.00	7014.59
478.18	7119.91
478.36	7293.11
478.54	7274.38
478.72	7232.26
478.90	7246.30
479.08	7332.90
479.26	7529.50
479.44	7487.37
479.62	7620.78
479.80	7751.85
479.98	7653.55
480.16	7892.29
480.34	7662.91
480.52	7765.90
480.70	7721.43
480.88	7908.67
481.06	7892.29
481.24	7955.48
481.41	8009.31
481.59	8060.80
481.77	8149.75
481.95	8315.92
482.13	8229.32
482.31	8381.46
482.49	8631.90
482.67	8365.07
482.85	8627.21
483.03	8777.01
483.21	8617.85
483.39	8788.71
483.57	8868.29
483.74	8809.78
483.92	8769.99
484.10	8992.34
484.28	9261.50
484.46	9202.99
484.64	9535.34
484.82	9177.24
485.00	9287.25
485.18	9628.96
485.35	9563.43
485.53	9603.22
485.71	9776.42
485.89	9818.55
486.07	9909.83
486.25	9797.48
486.43	9886.42
486.61	10127.50
486.78	10024.51
486.96	10232.82
487.14	10181.33
487.32	10443.47
487.50	10464.54
487.68	10523.05
487.85	10754.76
488.03	10890.51
488.21	10960.73
488.39	10834.34
488.57	10998.18
488.75	10949.03
488.92	11119.89
489.10	11445.22
489.28	11384.37
489.46	11407.77
489.64	11485.01
489.81	11480.33
489.99	11499.05
490.17	11686.29
490.35	11747.15
490.53	11662.89
490.70	11936.73
490.88	11925.03
491.06	11908.65
491.24	12011.63
491.41	12285.47
491.59	12098.23
491.77	12133.34
491.95	12484.42
492.13	12620.17
492.30	12493.78
492.48	12791.03
492.66	12650.60
492.84	12802.73
493.01	12931.46
493.19	12905.71
493.37	13186.58
493.54	13149.13
493.72	13263.82
493.90	13188.92
494.08	13458.08
494.25	13472.12
494.43	13474.46
494.61	13652.34
494.79	13839.59
494.96	13736.60
495.14	13867.67
495.32	14200.03
495.49	13942.57
495.67	14047.90
495.85	14464.51
496.02	14293.65
496.20	14377.91
496.38	14164.92
496.55	14506.64
496.73	14743.03
496.91	14560.47
497.09	14848.36
497.26	14782.82
497.44	14630.69
497.62	14824.95
497.79	14876.44
497.97	15314.13
498.14	15068.37
498.32	15246.25
498.50	15190.08
498.67	15796.28
498.85	15304.76
499.03	15557.54
499.20	15765.85
499.38	15634.78
499.56	15730.74
499.73	15503.71
499.91	15829.04
500.08	15995.22
500.26	15602.01
500.44	16161.40
500.61	15962.45
500.79	15662.86
500.97	16088.84
501.14	16332.26
501.32	16201.19
501.49	15899.26
501.67	16198.85
501.84	16184.80
502.02	16638.87
502.20	16690.36
502.37	16837.81
502.55	16545.25
502.72	16926.75
502.90	16767.60
503.07	16863.56
503.25	16798.02
503.43	16830.79
503.60	16929.09
503.78	16985.27
503.95	17083.57
504.13	17114.00
504.30	17259.11
504.48	17238.05
504.65	17270.81
504.83	17481.46
505.01	17561.04
505.18	17495.50
505.36	17645.30
505.53	17518.91
505.71	17570.40
505.88	17516.57
506.06	17708.49
506.23	17713.17
506.41	17762.33
506.58	17898.08
506.76	17675.73
506.93	17790.41
507.11	17811.48
507.28	18302.99
507.46	18218.73
507.63	18258.52
507.81	18401.29
507.98	18478.53
508.16	18239.79
508.33	18368.52
508.50	18534.70
508.68	18333.42
508.85	18778.12
509.03	18511.30
509.20	18705.56
509.38	18754.71
509.55	19082.39
509.73	18810.89
509.90	18670.45
510.08	19168.99
510.25	19206.44
510.42	19056.64
510.60	19087.07
510.77	19440.49
510.95	19264.95
511.12	19138.56
511.30	19166.65
511.47	19527.09
511.64	19300.06
511.82	19613.69
511.99	19765.82
512.17	19609.01
512.34	19616.03
512.51	19630.07
512.69	19763.48
512.86	19929.66
513.04	20311.17
513.21	19920.30
513.38	19967.11
513.56	20137.97
513.73	20065.41
513.90	20458.62
514.08	20173.08
514.25	20245.63
514.43	20379.04
514.60	20491.39
514.77	20355.64
514.95	20327.55
515.12	20559.27
515.29	20428.20
515.47	20753.53
515.64	20554.58
515.81	20737.15
515.99	20805.02
516.16	20594.37
516.33	20793.32
516.51	21013.33
516.68	20688.00
516.85	21081.21
517.03	21245.04
517.20	21095.25
517.37	20973.54
517.54	21523.57
517.72	21411.22
517.89	21359.73
518.06	21556.33
518.24	21408.88
518.41	20968.86
518.58	21589.10
518.75	21371.43
518.93	21586.76
519.10	21724.85
519.27	21678.04
519.45	21511.86
519.62	21472.07
519.79	21446.33
519.96	21792.73
520.14	21729.53
520.31	21720.17
520.48	22125.08
520.65	21703.79
520.83	21865.28
521.00	22321.69
521.17	22019.76
521.34	22361.48
521.52	22176.58
521.69	22438.72
521.86	22555.74
522.03	22403.61
522.20	22586.17
522.38	22492.55
522.55	22537.02
522.72	22560.42
522.89	22642.34
523.07	22764.05
523.24	22560.42
523.41	22988.74
523.58	22860.01
523.75	22670.43
523.92	22862.35
524.10	22808.52
524.27	22988.74
524.44	23185.35
524.61	23307.05
524.78	23075.34
524.96	23234.50
525.13	22918.53
525.30	23058.96
525.47	23440.47
525.64	23161.94
525.81	23594.94
525.98	23597.28
526.16	23758.78
526.33	23901.55
526.50	23587.92
526.67	23253.22
526.84	23480.25
527.01	23393.65
527.18	23590.26
527.36	23798.57
527.53	23789.20
527.70	23850.06
527.87	23917.93
528.04	23718.99
528.21	23887.51
528.38	23882.83
528.55	24194.12
528.72	23946.02
528.89	24297.10
529.07	24102.84
529.24	23976.45
529.41	24159.01
529.58	24233.91
529.75	24201.14
529.92	24231.57
530.09	24322.85
530.26	24666.91
530.43	24400.08
530.60	24807.34
530.77	24507.75
530.94	24470.30
531.11	24348.59
531.28	24772.23
531.46	24638.82
531.63	24498.39
531.80	24786.27
531.97	24634.14
532.14	24886.92
532.31	24900.96
532.48	24896.28
532.65	24989.90
532.82	24692.65
532.99	24945.43
533.16	24915.00
533.33	25036.71
533.50	25137.35
533.67	25202.89
533.84	25305.87
534.01	25036.71
534.18	25165.44
534.35	25383.11
534.52	24959.47
534.69	25404.17
534.86	25584.40
535.03	25401.83
535.20	24992.24
535.37	25397.15
535.54	25242.68
535.71	25429.92
535.88	25518.86
536.05	25333.96
536.22	25640.57
536.38	25401.83
536.55	25703.76
536.72	25750.57
536.89	25720.15
537.06	25809.09
537.23	25909.73
537.40	25715.47
537.57	25743.55
537.74	26136.76
537.91	26326.35
538.08	26139.10
538.25	25832.49
538.42	26146.12
538.59	25766.96
538.75	25738.87
538.92	26529.97
539.09	26604.87
539.26	26150.81
539.43	26080.59
539.60	26338.05
539.77	26267.83
539.94	26384.86
540.11	26272.51
540.28	26319.32
540.44	26539.33
540.61	26295.92
540.78	26398.90
540.95	26644.66
541.12	26539.33
541.29	26429.33
541.46	26448.05
541.62	26443.37
541.79	26576.78
541.96	26412.95
542.13	26689.13
542.30	26417.63
542.47	26639.98
542.63	26843.60
542.80	26939.57
542.97	27201.71
543.14	27178.30
543.31	27517.68
543.48	27054.25
543.64	27260.22
543.81	26979.36
543.98	27606.62
544.15	27194.68
544.32	27592.58
544.48	27730.67
544.65	27417.04
544.82	27461.51
544.99	27424.06
545.16	27653.43
545.32	27524.70
545.49	27353.84
545.66	27840.67
545.83	27812.59
546.00	27772.80
546.16	27323.41
546.33	27707.26
546.50	27417.04
546.67	27765.78
546.83	27255.54
547.00	27599.60
547.17	27543.42
547.34	27775.14
547.50	28025.57
547.67	28121.54
547.84	28308.78
548.00	27983.44
548.17	27871.10
548.34	27740.03
548.51	28048.98
548.67	28020.89
548.84	28460.91
549.01	28168.35
549.18	28067.70
549.34	28088.77
549.51	28013.87
549.68	28222.18
549.84	27838.33
550.01	28535.81
550.18	28402.40
550.34	28112.17
550.51	28156.64
550.68	28411.76
550.84	28142.60
551.01	28606.03
551.18	28489.00
551.34	28170.69
551.51	28418.78
551.68	28727.74
551.84	28697.31
552.01	28627.09
552.18	28659.86
552.34	28524.11
552.51	28493.68
552.68	28804.97
552.84	28575.60
553.01	28751.14
553.18	28446.87
553.34	28718.37
553.51	28795.61
553.67	29006.26
553.84	29062.43
554.01	29022.64
554.17	29106.90
554.34	29221.59
554.51	28872.85
554.67	28872.85
554.84	29308.19
555.00	28971.15
555.17	29191.16
555.33	28821.36
555.50	28936.04
555.67	28968.81
555.83	28943.06
556.00	29064.77
556.16	29626.50
556.33	29469.69
556.50	29146.69
556.66	29441.60
556.83	28975.83
556.99	29523.52
557.16	29523.52
557.32	29301.17
557.49	29633.52
557.65	29256.70
557.82	29259.04
557.98	28994.56
558.15	29034.35
558.32	29537.56
558.48	29233.29
558.65	29661.61
558.81	29909.71
558.98	29422.87
559.14	29710.76
559.31	29567.99
559.47	29530.54
559.64	29247.33
559.80	29759.91
559.97	29839.49
560.13	29736.51
560.30	29607.78
560.46	29912.05
560.63	29975.24
560.79	29600.76
560.96	29809.06
561.12	29773.95
561.29	29846.51
561.45	30068.86
561.61	29600.76
561.78	29670.97
561.94	30279.51
562.11	30206.95
562.27	29827.79
562.44	29844.17
562.60	29867.58
562.77	29565.65
562.93	29717.78
563.10	29940.13
563.26	29895.66
563.42	30286.53
563.59	29535.22
563.75	29551.60
563.92	30015.03
564.08	30253.76
564.24	30541.65
564.41	29780.98
564.57	29909.71
564.74	29982.26
564.90	30038.44
565.07	30073.54
565.23	30185.89
565.39	29818.42
565.56	30579.10
565.72	29968.22
565.88	30146.10
566.05	30029.07
566.21	29663.95
566.38	30305.26
566.54	30260.79
566.70	30370.79
566.87	30553.35
567.03	30539.31
567.19	30450.37
567.36	30319.30
567.52	30059.50
567.68	30471.43
567.85	30204.61
568.01	30464.41
568.17	29949.50
568.34	30312.28
568.50	30441.01
568.66	30616.55
568.83	30728.89
568.99	30356.75
569.15	30656.34
569.32	30778.04
569.48	30211.64
569.64	30590.80
569.81	30340.36
569.97	30338.02
570.13	30363.77
570.30	30478.46
570.46	30546.33
570.62	30831.88
570.78	30195.25
570.95	30485.48
571.11	30649.32
571.27	30047.80
571.43	30171.85
571.60	30462.07
571.76	30661.02
571.92	30930.18
572.09	30820.17
572.25	30469.09
572.41	30565.06
572.57	30448.03
572.74	30539.31
572.90	30670.38
573.06	30672.72
573.22	30253.76
573.38	30595.48
573.55	30635.27
573.71	31054.23
573.87	30829.54
574.03	30661.02
574.20	30572.08
574.36	30646.97
574.52	30515.90
574.68	30478.46
574.84	30885.71
575.01	30984.01
575.17	30796.77
575.33	30803.79
575.49	30462.07
575.65	30925.50
575.82	30623.57
575.98	30621.23
576.14	30827.20
576.30	30607.19
576.46	30747.62
576.62	30771.02
576.79	30539.31
576.95	30534.63
577.11	30724.21
577.27	30780.39
577.43	30883.37
577.59	31262.54
577.75	31276.58
577.92	30630.59
578.08	30513.56
578.24	30735.92
578.40	30768.68
578.56	30565.06
578.72	30930.18
578.88	31171.25
579.04	31152.53
579.21	31138.49
579.37	30986.35
579.53	30946.56
579.69	30813.15
579.85	30593.14
580.01	30857.62
580.17	30625.91
580.33	30656.34
580.49	30691.44
580.65	31075.29
580.82	30948.90
580.98	30925.50
581.14	30768.68
581.30	31187.64
581.46	30796.77
581.62	30976.99
581.78	30895.07
581.94	31103.38
582.10	30764.00
582.26	31040.18
582.42	30803.79
582.58	31150.19
582.74	31136.15
582.90	31103.38
583.06	30951.24
583.22	31311.69
583.38	30745.28
583.54	31168.91
583.70	31108.06
583.86	31044.87
584.02	30553.35
584.18	31023.80
584.34	31063.59
584.50	31077.63
584.66	31070.61
584.82	30803.79
584.98	30906.77
585.14	31009.76
585.30	30895.07
585.46	30841.24
585.62	30913.80
585.78	30911.46
585.94	30616.55
586.10	31131.47
586.26	31147.85
586.42	31246.15
586.58	30974.65
586.74	31311.69
586.90	31033.16
587.06	30721.87
587.22	31370.20
587.38	30981.67
587.54	31218.07
587.70	31351.48
587.86	31578.51
588.02	31082.31
588.18	31325.73
588.34	31356.16
588.49	31037.84
588.65	31028.48
588.81	31314.03
588.97	31096.36
589.13	31187.64
589.29	31431.05
589.45	31325.73
589.61	31101.04
589.77	31559.78
589.93	31538.72
590.08	31400.63
590.24	31758.73
590.40	31192.32
590.56	31253.17
590.72	31040.18
590.88	31232.11
591.04	31269.56
591.20	31456.80
591.35	31674.47
591.51	31838.31
591.67	31424.03
591.83	31798.52
591.99	31674.47
592.15	31480.21
592.31	31344.45
592.46	31101.04
592.62	31131.47
592.78	31150.19
592.94	31330.41
593.10	31014.44
593.26	31257.85
593.41	31658.09
593.57	31330.41
593.73	31325.73
593.89	31695.53
594.05	31159.55
594.20	31601.91
594.36	31545.74
594.52	31255.51
594.68	31669.79
594.84	31344.45
594.99	30932.52
595.15	31651.06
595.31	31548.08
595.47	31931.93
595.62	31431.05
595.78	31346.79
595.94	31566.81
596.10	31395.95
596.25	31812.56
596.41	31407.65
596.57	31456.80
596.73	31702.56
596.88	31676.81
597.04	31466.16
597.20	31615.96
597.36	31740.00
597.51	31569.15
597.67	31428.71
597.83	31161.89
597.99	31470.84
598.14	31468.50
598.30	31519.99
598.46	31461.48
598.61	31466.16
598.77	31819.58
598.93	31711.92
599.09	31536.38
599.24	31583.19
599.40	31686.17
599.56	31817.24
599.71	31707.24
599.87	31700.22
600.03	31782.13
600.18	31559.78
600.34	31594.89
600.50	31035.50
600.65	31721.28
600.81	31735.32
600.97	31887.46
601.12	31999.80
601.28	31723.62
601.44	31676.81
601.59	31885.12
601.75	31519.99
601.91	31564.46
602.06	31358.50
602.22	31644.04
602.37	31564.46
602.53	31651.06
602.69	31716.60
602.84	31669.79
603.00	31737.66
603.16	31648.72
603.31	31564.46
603.47	31695.53
603.62	31681.49
603.78	31562.12
603.94	31929.59
604.09	31388.92
604.25	31475.52
604.40	31725.96
604.56	31527.02
604.71	31864.05
604.87	31857.03
605.03	32002.14
605.18	31714.26
605.34	31292.96
605.49	31548.08
605.65	31608.93
605.80	31466.16
605.96	31374.88
606.12	31559.78
606.27	31271.90
606.43	31208.70
606.58	31864.05
606.74	31796.18
606.89	31824.26
607.05	31644.04
607.20	31578.51
607.36	31798.52
607.51	31803.20
607.67	31519.99
607.82	31253.17
607.98	31754.05
608.13	31407.65
608.29	31981.08
608.44	31482.55
608.60	31424.03
608.75	31770.43
608.91	31585.53
609.06	32006.83
609.22	31297.64
609.37	31337.43
609.53	31833.63
609.68	31524.68
609.84	31285.94
609.99	31669.79
610.15	31309.35
610.30	31288.28
610.46	31204.02
610.61	31339.77
610.76	31388.92
610.92	31124.44
611.07	31229.77
611.23	31365.52
611.38	31433.39
611.54	31215.72
611.69	30869.33
611.84	30944.22
612.00	31063.59
612.15	30618.89
612.31	31206.36
612.46	31187.64
612.62	31204.02
612.77	31281.26
612.92	31459.14
613.08	31335.09
613.23	31332.75
613.39	31058.91
613.54	30981.67
613.69	31225.09
613.85	30944.22
614.00	30738.26
614.15	31615.96
614.31	31087.00
614.46	31302.32
614.62	31372.54
614.77	31033.16
614.92	31068.27
615.08	31215.72
615.23	31115.08
615.38	30944.22
615.54	30801.45
615.69	31087.00
615.84	30651.66
616.00	30902.09
616.15	31494.25
616.30	30895.07
616.46	31014.44
616.61	30742.94
616.76	30841.24
616.92	30810.81
617.07	30899.75
617.22	30576.76
617.37	30410.58
617.53	30558.03
617.68	30906.77
617.83	30906.77
617.99	31012.10
618.14	30506.54
618.29	30101.63
618.45	30492.50
618.60	30541.65
618.75	30588.46
618.90	30724.21
619.06	30616.55
619.21	30824.86
619.36	30651.66
619.51	30380.15
619.67	30380.15
619.82	30597.82
619.97	30719.53
620.12	30464.41
620.28	30380.15
620.43	30618.89
620.58	30408.24
620.73	30604.84
620.89	30541.65
621.04	30951.24
621.19	30637.61
621.34	30462.07
621.49	30181.21
621.65	30326.32
621.80	30462.07
621.95	30373.13
622.10	30448.03
622.25	30316.96
622.41	30125.04
622.56	30099.29
622.71	30747.62
622.86	30366.11
623.01	30492.50
623.16	30064.18
623.32	30003.33
623.47	29947.15
623.62	29795.02
623.77	29977.58
623.92	30361.43
624.07	30206.95
624.23	30305.26
624.38	30171.85
624.53	30078.22
624.68	30024.39
624.83	30403.56
624.98	30352.07
625.13	30052.48
625.29	30340.36
625.44	29841.83
625.59	30026.73
625.74	29600.76
625.89	29645.23
626.04	29640.54
626.19	29736.51
626.34	29612.46
626.49	29390.11
626.65	29832.47
626.80	29961.20
626.95	30003.33
627.10	29766.93
627.25	29668.63
627.40	29734.17
627.55	29207.55
627.70	29282.44
627.85	29490.75
628.00	29640.54
628.15	29890.98
628.30	29509.47
628.45	29460.32
628.60	29631.18
628.76	29745.87
628.91	29104.56
629.06	29310.53
629.21	29483.73
629.36	29780.98
629.51	29413.51
629.66	29539.90
629.81	29263.72
629.96	29083.50
630.11	29153.71
630.26	29144.35
630.41	29282.44
630.56	29219.25
630.71	29605.44
630.86	29088.18
631.01	29439.26
631.16	29429.90
631.31	29125.63
631.46	28877.53
631.61	29392.45
631.76	29427.56
631.91	29001.58
632.06	28746.46
632.21	29146.69
632.36	29249.67
632.51	28872.85
632.66	29205.20
632.81	28711.35
632.96	29015.62
633.10	29060.09
633.25	28840.08
633.40	29193.50
633.55	29102.22
633.70	28821.36
633.85	28924.34
634.00	28858.81
634.15	28739.44
634.30	28999.24
634.45	28547.51
634.60	28570.92
634.75	28929.02
634.90	28732.42
635.05	28854.12
635.19	28769.86
635.34	29053.07
635.49	28666.88
635.64	28762.84
635.79	29120.95
635.94	28437.51
636.09	28472.62
636.24	28521.77
636.39	28191.75
636.53	28739.44
636.68	28444.53
636.83	28519.43
636.98	28540.49
637.13	28587.30
637.28	28650.50
637.43	28694.97
637.57	28797.95
637.72	28442.19
637.87	28409.42
638.02	28254.95
638.17	28292.40
638.32	28870.51
638.46	28479.64
638.61	28318.14
638.76	28285.37
638.91	28182.39
639.06	28046.64
639.20	28430.49
639.35	28442.19
639.50	28360.27
639.65	28339.21
639.80	28170.69
639.94	28404.74
640.09	28353.25
640.24	28205.80
640.39	27850.03
640.54	28112.17
640.68	28051.32
640.83	28210.48
640.98	27814.93
641.13	27742.37
641.27	28240.90
641.42	28058.34
641.57	28130.90
641.72	27992.81
641.86	27505.98
642.01	27845.35
642.16	28023.23
642.31	27845.35
642.45	27948.34
642.60	27735.35
642.75	27831.31
642.90	28070.04
643.04	27824.29
643.19	27756.41
643.34	27571.51
643.48	28044.30
643.63	27723.65
643.78	27978.76
643.93	27620.66
644.07	27910.89
644.22	27744.71
644.37	27929.61
644.51	27812.59
644.66	27693.22
644.81	27304.69
644.95	27611.30
645.10	27475.55
645.25	27508.32
645.39	27711.94
645.54	27620.66
645.69	27615.98
645.83	27321.07
645.98	27508.32
646.13	27459.16
646.27	27541.08
646.42	27571.51
646.57	27709.60
646.71	27543.42
646.86	27557.47
647.00	27585.55
647.15	27447.46
647.30	27321.07
647.44	27058.93
647.59	27400.65
647.74	27344.48
647.88	27297.67
648.03	27679.18
648.17	27267.24
648.32	27454.48
648.47	27332.78
648.61	27456.82
648.76	27615.98
648.90	27318.73
649.05	27304.69
649.20	26998.08
649.34	27222.77
649.49	26831.90
649.63	26855.31
649.78	26906.80
649.92	27023.83
650.07	27108.08
650.21	27021.48
650.36	27454.48
650.51	26796.79
650.65	27033.19
650.80	27108.08
650.94	27180.64
651.09	26876.37
651.23	26754.66
651.38	26841.26
651.52	26902.12
651.67	26796.79
651.81	26984.04
651.96	26967.65
652.10	26944.25
652.25	26927.86
652.39	26890.41
652.54	26700.83
652.68	26941.91
652.83	26953.61
652.97	26654.02
653.12	26761.69
653.26	26785.09
653.41	26508.91
653.55	26637.64
653.70	26511.25
653.84	26857.65
653.99	26890.41
654.13	26670.40
654.27	26307.62
654.42	26735.94
654.56	26387.20
654.71	26625.93
654.85	26841.26
655.00	26733.60
655.14	26965.31
655.29	26546.36
655.43	26455.08
655.57	26246.77
655.72	26403.58
655.86	26457.42
656.01	26230.38
656.15	26457.42
656.30	26562.74
656.44	25923.77
656.58	26054.84
656.73	26288.90
656.87	26319.32
657.01	26094.63
657.16	26183.57
657.30	26448.05
657.45	26338.05
657.59	26309.96
657.73	25898.03
657.88	26235.06
658.02	25956.54
658.16	25933.14
658.31	25823.13
658.45	25891.01
658.60	25811.43
658.74	26073.57
658.88	25689.72
659.03	25759.94
659.17	25678.02
659.31	25839.51
659.46	26111.02
659.60	25891.01
659.74	25816.11
659.89	25680.36
660.03	25673.34
660.17	25937.82
660.32	25668.66
660.46	25614.82
660.60	25289.49
660.74	25745.89
660.89	25530.56
661.03	25369.07
661.17	25305.87
661.32	25411.20
661.46	25773.98
661.60	25701.42
661.74	25296.51
661.89	25799.73
662.03	25411.20
662.17	25273.10
662.31	24933.73
662.46	25322.26
662.60	25207.57
662.74	25095.22
662.88	24975.86
663.03	24776.91
663.17	24858.83
663.31	24716.06
663.45	24797.98
663.60	24835.42
663.74	25048.41
663.88	25165.44
664.02	24575.62
664.17	25003.94
664.31	24741.80
664.45	24521.79
664.59	24613.07
664.73	24608.39
664.88	24556.90
665.02	24519.45
665.16	24411.79
665.30	24643.50
665.44	24631.80
665.59	24393.06
665.73	24336.89
665.87	24182.42
666.01	24554.56
666.15	24372.00
666.29	24060.71
666.44	24135.60
666.58	24013.90
666.72	24205.82
666.86	24037.30
667.00	24210.50
667.14	24397.74
667.28	24215.18
667.43	24156.67
667.57	23864.10
667.71	24229.23
667.85	23817.29
667.99	23990.49
668.13	23812.61
668.27	23992.83
668.41	24044.32
668.56	23428.76
668.70	23756.44
668.84	23730.69
668.98	23737.71
669.12	24058.37
669.26	23800.91
669.40	23777.50
669.54	23538.77
669.68	23646.43
669.82	23342.16
669.96	23143.22
670.10	23578.56
670.25	23250.88
670.39	23325.78
670.53	23508.34
670.67	23129.17
670.81	23229.82
670.95	23145.56
671.09	23087.04
671.23	23264.92
671.37	22925.55
671.51	22967.68
671.65	23302.37
671.79	22993.42
671.93	22911.50
672.07	23117.47
672.21	22785.12
672.35	22609.58
672.49	22693.83
672.63	22775.75
672.77	22422.33
672.91	22534.68
673.05	22443.40
673.19	22682.13
673.33	22302.96
673.47	22312.33
673.61	22405.95
673.75	22412.97
673.89	22333.39
674.03	22284.24
674.17	22305.31
674.31	22242.11
674.45	22157.85
674.59	22052.53
674.73	22155.51
674.87	21844.22
675.01	22185.94
675.15	21891.03
675.29	21678.04
675.43	21895.71
675.56	21876.99
675.70	21598.46
675.84	21937.84
675.98	20931.41
676.12	21954.22
676.26	21778.68
676.40	21668.68
676.54	21418.24
676.68	21418.24
676.82	20744.17
676.96	21057.80
677.10	21200.57
677.23	21085.89
677.37	21231.00
677.51	21109.29
677.65	21144.40
677.79	21111.63
677.93	20519.48
678.07	20842.47
678.21	20762.89
678.34	20465.64
678.48	20526.50
678.62	20650.55
678.76	20636.50
678.90	20446.92
679.04	20247.97
679.18	20313.51
679.31	20093.50
679.45	20318.19
679.59	19943.70
679.73	19826.68
679.87	19761.14
680.00	19964.77
680.14	19728.38
680.28	20037.33
680.42	19852.42
680.56	19913.28
680.70	19744.76
680.83	19807.95
680.97	19679.22
681.11	19840.72
681.25	19508.37
681.39	19377.30
681.52	19548.15
681.66	19412.40
681.80	19227.50
681.94	19129.20
682.07	19145.58
682.21	18986.43
682.35	18773.44
682.49	19201.76
682.62	19037.92
682.76	18958.34
682.90	18710.24
683.04	18747.69
683.17	18862.38
683.31	18590.88
683.45	18504.28
683.59	18469.17
683.72	18635.35
683.86	18504.28
684.00	18354.48
684.13	18314.69
684.27	18572.15
684.41	18066.60
684.55	18064.25
684.68	17919.14
684.82	17935.53
684.96	18066.60
685.09	17879.35
685.23	18068.94
685.37	17647.64
685.50	17888.71
685.64	17970.63
685.78	17638.28
685.91	18001.06
686.05	17848.93
686.19	17507.21
686.32	17706.15
686.46	17380.82
686.60	17095.27
686.73	17334.01
686.87	17193.58
687.01	17186.55
687.14	17048.46
687.28	16802.71
687.42	16931.44
687.55	16847.18
687.69	16889.31
687.82	16805.05
687.96	17053.14
688.10	16664.61
688.23	16662.27
688.37	16837.81
688.50	16641.21
688.64	16369.71
688.78	16594.40
688.91	16664.61
689.05	16297.15
689.18	16126.29
689.32	16067.78
689.46	16156.72
689.59	16065.44
689.73	16077.14
689.86	16102.89
690.00	15810.32
690.13	15697.97
690.27	15950.75
690.41	15714.36
690.54	15625.42
690.68	15859.47
690.81	15756.49
690.95	15730.74
691.08	15784.57
691.22	15501.37
691.35	15410.09
691.49	15400.72
691.62	15569.24
691.76	15288.38
691.89	15117.52
692.03	14848.36
692.16	15037.94
692.30	14876.44
692.43	14981.77
692.57	14527.71
692.70	14888.15
692.84	14782.82
692.97	14682.18
693.11	14602.60
693.24	14721.97
693.38	14862.40
693.51	14485.58
693.65	14817.93
693.78	14452.81
693.92	14403.66
694.05	14450.47
694.19	14244.50
694.32	14129.81
694.45	13996.40
694.59	14239.82
694.72	13813.84
694.86	13792.78
694.99	13598.51
695.13	13631.28
695.26	13977.68
695.39	13769.37
695.53	13848.95
695.66	13870.01
695.80	13771.71
695.93	13827.88
696.07	13551.70
696.20	13432.33
696.33	13495.53
696.47	13233.39
696.60	13312.97
696.73	13224.03
696.87	13458.08
697.00	13249.77
697.14	12922.10
697.27	12760.60
697.40	12903.37
697.54	13025.08
697.67	12821.45
697.80	12606.13
697.94	12615.49
698.07	12456.33
698.21	12437.61
698.34	12781.67
698.47	12629.53
698.61	12519.53
698.74	12533.57
698.87	12461.01
699.01	12208.23
699.14	12231.64
699.27	12285.47
699.40	12376.75
699.54	12362.71
699.67	11929.71
699.80	12102.91
699.94	11964.82
700.07	11824.39
700.20	11910.99
700.34	11822.05
700.47	11700.34
700.60	11693.32
700.73	11564.59
700.87	11744.81
701.00	11309.47
701.13	11782.26
701.26	11772.89
701.40	11627.78
701.53	11564.59
701.66	11496.71
701.79	11529.48
701.93	11391.39
702.06	11239.25
702.19	11084.78
702.32	11002.86
702.46	11059.03
702.59	11082.44
702.72	11077.76
702.85	10906.90
702.99	11089.46
703.12	10710.29
703.25	10817.96
703.38	10792.21
703.51	10649.44
703.65	10754.76
703.78	10565.18
703.91	10501.98
704.04	10724.33
704.17	10583.90
704.31	10530.07
704.44	10394.32
704.57	10305.38
704.70	10265.59
704.83	10064.30
704.96	10012.81
705.10	10223.46
705.23	10118.14
>>>>>End Processed Spectral Data<<<<<
