SpectraSuite Data File
++++++++++++++++++++++++++++++++++++
Date: Fri Oct 18 13:58:10 GMT-05:00 2013
User: bianchi
Dark Spectrum Present: No
Reference Spectrum Present: No
Number of Sampled Component Spectra: 1
Spectrometers: USB2+H05261
Integration Time (usec): 50000 (USB2+H05261)
Spectra Averaged: 1 (USB2+H05261)
Boxcar Smoothing: 0 (USB2+H05261)
Correct for Electrical Dark: No (USB2+H05261)
Strobe/Lamp Enabled: No (USB2+H05261)
Correct for Detector Non-linearity: No (USB2+H05261)
Correct for Stray Light: No (USB2+H05261)
Number of Pixels in Processed Spectrum: 2048
>>>>>Begin Processed Spectral Data<<<<<
365.73	0.00
365.92	0.00
366.12	0.00
366.32	0.00
366.52	0.00
366.72	0.00
366.91	0.00
367.11	0.00
367.31	0.00
367.51	0.00
367.70	0.00
367.90	0.00
368.10	0.00
368.30	0.00
368.49	0.00
368.69	0.00
368.89	0.00
369.09	0.00
369.28	0.00
369.48	0.00
369.68	0.00
369.87	0.00
370.07	0.00
370.27	0.00
370.47	49.15
370.66	126.39
370.86	124.05
371.06	142.77
371.25	114.69
371.45	152.13
371.65	208.31
371.84	147.45
372.04	112.35
372.24	215.33
372.44	168.52
372.63	145.11
372.83	245.76
373.03	170.86
373.22	173.20
373.42	180.22
373.62	257.46
373.81	210.65
374.01	285.55
374.21	191.92
374.40	259.80
374.60	297.25
374.79	159.16
374.99	311.29
375.19	255.12
375.38	238.73
375.58	255.12
375.78	252.78
375.97	243.42
376.17	299.59
376.37	215.33
376.56	360.44
376.76	224.69
376.95	220.01
377.15	292.57
377.35	248.10
377.54	215.33
377.74	278.52
377.93	234.05
378.13	301.93
378.33	327.68
378.52	299.59
378.72	294.91
378.91	346.40
379.11	243.42
379.31	290.23
379.50	306.61
379.70	280.86
379.89	330.02
380.09	351.08
380.28	252.78
380.48	346.40
380.68	346.40
380.87	315.97
381.07	311.29
381.26	348.74
381.46	301.93
381.65	330.02
381.85	344.06
382.04	287.89
382.24	374.49
382.43	353.42
382.63	341.72
382.83	353.42
383.02	428.32
383.22	367.46
383.41	367.46
383.61	304.27
383.80	435.34
384.00	372.15
384.19	365.12
384.39	393.21
384.58	409.59
384.78	423.64
384.97	369.80
385.17	395.55
385.36	402.57
385.56	411.93
385.75	409.59
385.95	353.42
386.14	379.17
386.34	397.89
386.53	465.77
386.72	428.32
386.92	344.06
387.11	461.09
387.31	393.21
387.50	414.27
387.70	421.30
387.89	461.09
388.09	458.74
388.28	491.51
388.48	360.44
388.67	465.77
388.86	498.53
389.06	486.83
389.25	557.05
389.45	514.92
389.64	397.89
389.84	568.75
390.03	498.53
390.22	470.45
390.42	559.39
390.61	414.27
390.81	479.81
391.00	540.66
391.19	587.47
391.39	493.85
391.58	512.58
391.78	552.37
391.97	496.19
392.16	479.81
392.36	547.69
392.55	561.73
392.75	622.58
392.94	629.60
393.13	489.17
393.33	566.41
393.52	531.30
393.71	543.00
393.91	596.84
394.10	613.22
394.29	557.05
394.49	531.30
394.68	627.26
394.88	594.50
395.07	636.63
395.26	667.05
395.46	603.86
395.65	601.52
395.84	631.94
396.04	748.97
396.23	615.56
396.42	657.69
396.62	650.67
396.81	610.88
397.00	580.45
397.19	730.25
397.39	641.31
397.58	741.95
397.77	723.23
397.97	667.05
398.16	706.84
398.35	692.80
398.55	716.20
398.74	739.61
398.93	763.01
399.12	711.52
399.32	716.20
399.51	774.72
399.70	823.87
399.90	833.23
400.09	805.14
400.28	880.04
400.47	788.76
400.67	866.00
400.86	821.53
401.05	777.06
401.24	760.67
401.44	868.34
401.63	866.00
401.82	842.59
402.01	788.76
402.21	777.06
402.40	854.30
402.59	830.89
402.78	847.27
402.97	840.25
403.17	912.81
403.36	896.43
403.55	903.45
403.74	851.96
403.93	816.85
404.13	912.81
404.32	978.34
404.51	760.67
404.70	884.72
404.89	891.74
405.09	961.96
405.28	968.98
405.47	957.28
405.66	992.39
405.85	987.71
406.05	966.64
406.24	964.30
406.43	1018.13
406.62	964.30
406.81	1095.37
407.00	983.02
407.20	1036.86
407.39	1034.52
407.58	1043.88
407.77	1076.65
407.96	1053.24
408.15	1093.03
408.34	1104.73
408.54	1111.75
408.73	1088.35
408.92	1158.57
409.11	1167.93
409.30	1167.93
409.49	1144.52
409.68	1163.25
409.87	1226.44
410.07	1135.16
410.26	1273.25
410.45	1231.12
410.64	1146.86
410.83	1228.78
411.02	1252.19
411.21	1261.55
411.40	1259.21
411.59	1226.44
411.78	1303.68
411.98	1327.08
412.17	1357.51
412.36	1287.29
412.55	1296.66
412.74	1263.89
412.93	1460.49
413.12	1378.58
413.31	1430.07
413.50	1455.81
413.69	1427.73
413.88	1409.00
414.07	1413.68
414.26	1483.90
414.45	1451.13
414.64	1425.39
414.83	1544.75
415.02	1605.61
415.22	1561.14
415.41	1579.86
415.60	1533.05
415.79	1591.56
415.98	1633.69
416.17	1584.54
416.36	1497.94
416.55	1647.74
416.74	1722.63
416.93	1703.91
417.12	1706.25
417.31	1708.59
417.50	1710.93
417.69	1781.15
417.88	1732.00
418.07	1816.26
418.26	1806.89
418.45	1788.17
418.64	1788.17
418.83	1818.60
419.02	1750.72
419.21	1863.07
419.39	1907.54
419.58	1872.43
419.77	1870.09
419.96	1863.07
420.15	1844.34
420.34	1842.00
420.53	1870.09
420.72	1930.94
420.91	1842.00
421.10	1895.83
421.29	1966.05
421.48	1849.02
421.67	1949.67
421.86	1937.96
422.05	1996.48
422.24	2026.90
422.43	1963.71
422.61	2078.40
422.80	2136.91
422.99	2083.08
423.18	2019.88
423.37	2085.42
423.56	2036.27
423.75	2101.80
423.94	2076.06
424.13	1867.75
424.32	1973.07
424.50	2115.84
424.69	2150.95
424.88	2071.37
425.07	2029.24
425.26	2057.33
425.45	2059.67
425.64	2069.03
425.83	2076.06
426.01	2143.93
426.20	2024.56
426.39	2036.27
426.58	2080.74
426.77	2017.54
426.96	2076.06
427.15	2136.91
427.33	2169.68
427.52	2260.96
427.71	2113.50
427.90	2242.23
428.09	2160.31
428.28	2148.61
428.46	2303.09
428.65	2230.53
428.84	2279.68
429.03	2333.51
429.22	2162.66
429.40	2267.98
429.59	2314.79
429.78	2125.21
429.97	2202.44
430.16	2155.63
430.34	2272.66
430.53	2385.01
430.72	2324.15
430.91	2263.30
431.10	2265.64
431.28	2422.45
431.47	2480.97
431.66	2457.56
431.85	2427.14
432.03	2490.33
432.22	2422.45
432.41	2445.86
432.60	2520.76
432.79	2429.48
432.97	2471.61
433.16	2527.78
433.35	2450.54
433.54	2527.78
433.72	2558.21
433.91	2457.56
434.10	2520.76
434.28	2485.65
434.47	2647.15
434.66	2612.04
434.85	2677.57
435.03	2644.81
435.22	2623.74
435.41	2689.28
435.59	2619.06
435.78	2509.05
435.97	2719.70
436.16	2595.65
436.34	2703.32
436.53	2738.43
436.72	2761.83
436.90	2677.57
437.09	2829.71
437.28	2693.96
437.46	2799.28
437.65	2904.60
437.84	2771.19
438.02	2782.90
438.21	2818.00
438.40	2848.43
438.58	2909.29
438.77	3019.29
438.96	2916.31
439.14	3096.53
439.33	2984.18
439.52	3091.85
439.70	3122.27
439.89	3169.09
440.08	3021.63
440.26	3075.46
440.45	3080.14
440.63	3096.53
440.82	3206.53
441.01	3148.02
441.19	3157.38
441.38	3286.11
441.57	3206.53
441.75	3332.92
441.94	3361.01
442.12	3412.50
442.31	3410.16
442.50	3412.50
442.68	3466.33
442.87	3417.18
443.05	3391.44
443.24	3452.29
443.43	3475.70
443.61	3431.23
443.80	3606.77
443.98	3421.86
444.17	3375.05
444.35	3475.70
444.54	3557.61
444.73	3454.63
444.91	3536.55
445.10	3391.44
445.28	3400.80
445.47	3351.65
445.65	3447.61
445.84	3627.83
446.02	3686.34
446.21	3562.30
446.39	3590.38
446.58	3431.23
446.77	3545.91
446.95	3522.51
447.14	3536.55
447.32	3564.64
447.51	3559.95
447.69	3698.05
447.88	3524.85
448.06	3583.36
448.25	3566.98
448.43	3562.30
448.62	3566.98
448.80	3515.48
448.99	3672.30
449.17	3679.32
449.36	3721.45
449.54	3782.31
449.73	3768.26
449.91	3798.69
450.10	3833.80
450.28	3791.67
450.46	3873.59
450.65	3901.67
450.83	3880.61
451.02	3805.71
451.20	3831.46
451.39	3920.40
451.57	3782.31
451.76	3618.47
451.94	3779.97
452.13	3911.04
452.31	3845.50
452.49	3808.05
452.68	3974.23
452.86	3922.74
453.05	4142.75
453.23	4025.72
453.42	3978.91
453.60	3995.29
453.78	4119.34
453.97	3829.12
454.15	3904.01
454.34	4105.30
454.52	4163.81
454.70	4028.06
454.89	4140.41
455.07	4070.19
455.26	4081.89
455.44	4205.94
455.62	4196.58
455.81	4227.01
455.99	4252.75
456.17	4269.14
456.36	4189.56
456.54	4322.97
456.73	4243.39
456.91	4404.89
457.09	4285.52
457.28	4418.93
457.46	4414.25
457.64	4463.40
457.83	4498.51
458.01	4430.63
458.19	4458.72
458.38	4468.08
458.56	4486.81
458.74	4468.08
458.93	4409.57
459.11	4636.60
459.29	4404.89
459.48	4580.43
459.66	4547.66
459.84	4526.60
460.03	4723.20
460.21	4615.54
460.39	4617.88
460.57	4660.01
460.76	4795.76
460.94	4638.94
461.12	4566.39
461.31	4688.09
461.49	4716.18
461.67	4596.81
461.85	4678.73
462.04	4793.42
462.22	4987.68
462.40	4912.78
462.59	4847.25
462.77	4767.67
462.95	4940.87
463.13	4917.47
463.32	4901.08
463.50	4835.55
463.68	4931.51
463.86	4945.55
464.05	4973.64
464.23	4978.32
464.41	5167.90
464.59	4985.34
464.78	5135.14
464.96	4915.12
465.14	4929.17
465.32	5020.45
465.50	5039.17
465.69	5245.14
465.87	5022.79
466.05	5060.24
466.23	5025.13
466.41	4997.04
466.60	5195.99
466.78	5097.69
466.96	5186.63
467.14	5210.03
467.32	5057.90
467.51	5268.55
467.69	5156.20
467.87	5289.61
468.05	5266.21
468.23	5062.58
468.41	5116.41
468.60	5184.29
468.78	5198.33
468.96	5228.76
469.14	5336.42
469.32	5455.79
469.50	5247.48
469.69	5406.64
469.87	5359.83
470.05	5589.20
470.23	5453.45
470.41	5366.85
470.59	5668.78
470.77	5448.77
470.95	5497.92
471.14	5610.26
471.32	5624.31
471.50	5682.82
471.68	5621.97
471.86	5685.16
472.04	5654.73
472.22	5832.62
472.40	5682.82
472.58	5813.89
472.77	5912.19
472.95	5989.43
473.13	6064.33
473.31	5851.34
473.49	5947.30
473.67	5930.92
473.85	5982.41
474.03	6087.73
474.21	6300.72
474.39	6211.78
474.57	6167.31
474.75	6263.27
474.93	6211.78
475.12	6305.40
475.30	6260.93
475.48	6406.05
475.66	6347.53
475.84	6356.90
476.02	6335.83
476.20	6436.47
476.38	6642.44
476.56	6623.72
476.74	6691.59
476.92	6551.16
477.10	6766.49
477.28	6764.15
477.46	6593.29
477.64	6909.26
477.82	7030.97
478.00	7171.40
478.18	7045.01
478.36	7108.21
478.54	7166.72
478.72	7178.42
478.90	7335.24
479.08	7176.08
479.26	7438.22
479.44	7403.11
479.62	7424.18
479.80	7588.02
479.98	7393.75
480.16	7712.07
480.34	7637.17
480.52	7906.33
480.70	7747.17
480.88	7925.05
481.06	7911.01
481.24	7929.74
481.41	7906.33
481.59	8175.49
481.77	8072.51
481.95	8107.62
482.13	8278.47
482.31	8226.98
482.49	8367.42
482.67	8468.06
482.85	8564.02
483.03	8739.56
483.21	8791.05
483.39	8889.35
483.57	8812.12
483.74	8954.89
483.92	8739.56
484.10	8739.56
484.28	8957.23
484.46	9177.24
484.64	9165.54
484.82	9193.62
485.00	8978.30
485.18	9490.87
485.35	9334.06
485.53	9624.28
485.71	9811.53
485.89	9673.43
486.07	9565.77
486.25	9654.71
486.43	9769.40
486.61	10080.69
486.78	10036.22
486.96	10139.20
487.14	10223.46
487.32	10340.49
487.50	10485.60
487.68	10441.13
487.85	10520.71
488.03	10527.73
488.21	10771.15
488.39	10853.06
488.57	10916.26
488.75	10953.71
488.92	10993.50
489.10	11028.60
489.28	11000.52
489.46	11318.83
489.64	11098.82
489.81	11470.97
489.99	11541.18
490.17	11688.64
490.35	11838.43
490.53	11873.54
490.70	11749.49
490.88	11761.19
491.06	12046.74
491.24	12018.65
491.41	12159.08
491.59	12105.25
491.77	12133.34
491.95	12599.10
492.13	12421.22
492.30	12437.61
492.48	12517.18
492.66	12753.58
492.84	12496.12
493.01	12802.73
493.19	12889.33
493.37	13153.81
493.54	12903.37
493.72	13291.90
493.90	12891.67
494.08	13280.20
494.25	13556.38
494.43	13490.85
494.61	13509.57
494.79	13444.04
494.96	13664.05
495.14	13741.29
495.32	13870.01
495.49	14019.81
495.67	13933.21
495.85	14265.57
496.02	14104.07
496.20	14024.49
496.38	14083.00
496.55	14181.31
496.73	14588.56
496.91	14424.72
497.09	14499.62
497.26	14874.10
497.44	14644.73
497.62	14597.92
497.79	15061.35
497.97	14883.47
498.14	15016.88
498.32	15253.27
498.50	15096.46
498.67	15190.08
498.85	15204.12
499.03	15145.61
499.20	15232.21
499.38	15557.54
499.56	15751.81
499.73	15585.63
499.91	15555.20
500.08	16023.31
500.26	15892.24
500.44	15805.64
500.61	15791.59
500.79	15906.28
500.97	16042.03
501.14	16070.12
501.32	16367.37
501.49	16215.23
501.67	16037.35
501.84	16533.54
502.02	16327.58
502.20	16629.51
502.37	16554.61
502.55	16421.20
502.72	16774.62
502.90	16444.60
503.07	16379.07
503.25	16961.86
503.43	16847.18
503.60	17064.85
503.78	16947.82
503.95	16695.04
504.13	16800.37
504.30	17121.02
504.48	16940.80
504.65	17207.62
504.83	17324.65
505.01	17488.48
505.18	17741.26
505.36	17539.97
505.53	17577.42
505.71	17467.42
505.88	17334.01
506.06	17628.92
506.23	17256.77
506.41	17453.37
506.58	17776.37
506.76	17750.62
506.93	17855.95
507.11	17764.67
507.28	17963.61
507.46	17884.03
507.63	18033.83
507.81	18333.42
507.98	18143.83
508.16	18300.65
508.33	18134.47
508.50	18225.75
508.68	18160.22
508.85	18422.36
509.03	18448.10
509.20	18518.32
509.38	18464.49
509.55	18750.03
509.73	18857.70
509.90	18735.99
510.08	18927.91
510.25	18932.59
510.42	19152.60
510.60	19138.56
510.77	19066.00
510.95	19332.82
511.12	18897.49
511.30	18988.77
511.47	19302.40
511.64	19243.88
511.82	19679.22
511.99	19744.76
512.17	19609.01
512.34	19171.33
512.51	19328.14
512.69	19697.95
512.86	19831.36
513.04	19653.48
513.21	19903.92
513.38	19924.98
513.56	19978.81
513.73	19826.68
513.90	19833.70
514.08	19805.61
514.25	20144.99
514.43	20276.06
514.60	20016.26
514.77	20079.46
514.95	20243.29
515.12	19969.45
515.29	20201.16
515.47	20512.46
515.64	20776.94
515.81	20418.83
515.99	20465.64
516.16	20608.42
516.33	20627.14
516.51	20980.56
516.68	20671.61
516.85	20582.67
517.03	20931.41
517.20	20814.38
517.37	21029.71
517.54	21247.38
517.72	20985.24
517.89	20882.26
518.06	21125.68
518.24	21158.44
518.41	21202.91
518.58	21322.28
518.75	21153.76
518.93	21312.92
519.10	21549.31
519.27	21476.76
519.45	21579.74
519.62	21802.09
519.79	21502.50
519.96	21301.22
520.14	21497.82
520.31	21198.23
520.48	21816.13
520.65	21633.57
520.83	21671.02
521.00	21986.99
521.17	21614.85
521.34	21930.82
521.52	21937.84
521.69	22207.00
521.86	21958.91
522.03	22209.34
522.20	22195.30
522.38	22335.73
522.55	22352.12
522.72	22125.08
522.89	22183.60
523.07	22864.69
523.24	22696.17
523.41	22656.39
523.58	22478.50
523.75	22675.11
523.92	22827.24
524.10	22871.72
524.27	22670.43
524.44	22848.31
524.61	23094.07
524.78	22780.43
524.96	22904.48
525.13	23103.43
525.30	22946.61
525.47	22904.48
525.64	23248.54
525.81	23508.34
525.98	23396.00
526.16	23288.33
526.33	23405.36
526.50	23566.85
526.67	23428.76
526.84	23208.75
527.01	23297.69
527.18	23396.00
527.36	23805.59
527.53	23641.75
527.70	23789.20
527.87	23875.80
528.04	23768.14
528.21	23742.39
528.38	23541.11
528.55	23707.29
528.72	23777.50
528.89	24065.39
529.07	23805.59
529.24	24109.86
529.41	23929.64
529.58	23730.69
529.75	23997.51
529.92	24056.03
530.09	23922.62
530.26	24311.14
530.43	24112.20
530.60	24397.74
530.77	24182.42
530.94	24554.56
531.11	24254.97
531.28	24130.92
531.46	24531.15
531.63	24294.76
531.80	24388.38
531.97	24723.08
532.14	24442.21
532.31	24528.81
532.48	24498.39
532.65	24732.44
532.82	24650.52
532.99	24704.35
533.16	24645.84
533.33	24886.92
533.50	24992.24
533.67	24692.65
533.84	24774.57
534.01	24882.24
534.18	24854.15
534.35	25041.39
534.52	25017.99
534.69	25497.80
534.86	25017.99
535.03	25336.30
535.20	25542.27
535.37	25120.97
535.54	25188.85
535.71	25039.05
535.88	25015.65
536.05	25289.49
536.22	25390.13
536.38	25710.78
536.55	25703.76
536.72	25680.36
536.89	25640.57
537.06	25247.36
537.23	25348.00
537.40	25661.63
537.57	25781.00
537.74	25825.47
537.91	25663.97
538.08	26181.23
538.25	25699.08
538.42	25771.64
538.59	25818.45
538.75	25724.83
538.92	26155.49
539.09	26003.35
539.26	25809.09
539.43	25806.75
539.60	26129.74
539.77	25977.61
539.94	26382.52
540.11	26103.99
540.28	25993.99
540.44	26478.48
540.61	25921.43
540.78	26185.91
540.95	26052.50
541.12	26391.88
541.29	25844.20
541.46	26190.59
541.62	26258.47
541.79	26361.45
541.96	26174.21
542.13	26185.91
542.30	26609.55
542.47	26834.24
542.63	26726.58
542.80	26810.84
542.97	27105.74
543.14	27178.30
543.31	26506.57
543.48	27037.87
543.64	27007.44
543.81	27051.91
543.98	27388.95
544.15	26752.32
544.32	26995.74
544.48	27292.99
544.65	27182.98
544.82	26717.22
544.99	26979.36
545.16	26991.06
545.32	27033.19
545.49	27346.82
545.66	27576.19
545.83	27360.86
546.00	27974.08
546.16	27276.60
546.33	27229.79
546.50	27012.12
546.67	27672.15
546.83	26799.13
547.00	27225.11
547.17	27824.29
547.34	27768.12
547.50	27459.16
547.67	27751.73
547.84	28051.32
548.00	27725.99
548.17	27875.78
548.34	27536.40
548.51	27431.08
548.67	28102.81
548.84	28100.47
549.01	28128.56
549.18	27697.90
549.34	27679.18
549.51	27854.72
549.68	27740.03
549.84	27707.26
550.01	27866.42
550.18	27845.35
550.34	28051.32
550.51	28276.01
550.68	28056.00
550.84	27740.03
551.01	28369.63
551.18	27754.07
551.34	28100.47
551.51	28196.43
551.68	28432.83
551.84	28407.08
552.01	28196.43
552.18	28596.67
552.34	28400.06
552.51	28561.56
552.68	28402.40
552.84	28421.13
553.01	28418.78
553.18	28383.68
553.34	28376.66
553.51	28496.02
553.67	28376.66
553.84	28793.27
554.01	28950.09
554.17	28797.95
554.34	28538.15
554.51	28938.38
554.67	28549.85
554.84	28856.46
555.00	28938.38
555.17	29060.09
555.33	28772.21
555.50	28268.99
555.67	28587.30
555.83	28936.04
556.00	28573.26
556.16	29230.95
556.33	28994.56
556.50	28664.54
556.66	29432.24
556.83	29457.98
556.99	29221.59
557.16	29261.38
557.32	28973.49
557.49	29465.00
557.65	28940.72
557.82	29212.23
557.98	28753.48
558.15	29041.37
558.32	29340.96
558.48	28996.90
558.65	29195.84
558.81	29359.68
558.98	29476.71
559.14	29212.23
559.31	29076.48
559.47	28987.53
559.64	29434.58
559.80	29411.17
559.97	29511.81
560.13	29205.20
560.30	29523.52
560.46	29535.22
560.63	29406.49
560.79	29586.71
560.96	29462.66
561.12	29546.92
561.29	29434.58
561.45	29387.77
561.61	29530.54
561.78	29319.89
561.94	29308.19
562.11	29912.05
562.27	29799.70
562.44	29509.47
562.60	29663.95
562.77	29408.83
562.93	29476.71
563.10	29642.88
563.26	29624.16
563.42	29984.60
563.59	29860.55
563.75	29844.17
563.92	29736.51
564.08	29708.42
564.24	29855.87
564.41	29649.91
564.57	29518.84
564.74	29848.85
564.90	30040.78
565.07	29610.12
565.23	29780.98
565.39	29708.42
565.56	29940.13
565.72	30073.54
565.88	30036.09
566.05	29783.32
566.21	29717.78
566.38	30235.04
566.54	29736.51
566.70	30082.91
566.87	30213.98
567.03	29888.64
567.19	30340.36
567.36	30258.45
567.52	29546.92
567.68	30228.02
567.85	29872.26
568.01	29984.60
568.17	29823.11
568.34	30080.56
568.50	30022.05
568.66	30513.56
568.83	30569.74
568.99	30059.50
569.15	30047.80
569.32	30178.87
569.48	29731.83
569.64	30267.81
569.81	30221.00
569.97	29834.81
570.13	30204.61
570.30	29834.81
570.46	30422.28
570.62	30373.13
570.78	30190.57
570.95	29769.27
571.11	30448.03
571.27	29905.02
571.43	29832.47
571.60	30125.04
571.76	30167.16
571.92	30164.82
572.09	30518.25
572.25	30600.16
572.41	30005.67
572.57	30265.47
572.74	30249.08
572.90	30298.23
573.06	30029.07
573.22	30066.52
573.38	30232.70
573.55	29722.46
573.71	30396.54
573.87	30483.14
574.03	30391.86
574.20	30342.70
574.36	30469.09
574.52	30583.78
574.68	30033.75
574.84	30307.60
575.01	30923.16
575.17	30092.27
575.33	30515.90
575.49	30665.70
575.65	30810.81
575.82	30302.92
575.98	30410.58
576.14	30609.53
576.30	30438.67
576.46	30637.61
576.62	30391.86
576.79	30431.65
576.95	30403.56
577.11	30127.38
577.27	30288.87
577.43	30565.06
577.59	30459.73
577.75	30522.93
577.92	30188.23
578.08	30422.28
578.24	30216.32
578.40	30752.30
578.56	30438.67
578.72	30408.24
578.88	30909.11
579.04	30855.28
579.21	30361.43
579.37	30792.09
579.53	30698.47
579.69	30808.47
579.85	30471.43
580.01	30455.05
580.17	30183.55
580.33	30934.86
580.49	30616.55
580.65	30948.90
580.82	30724.21
580.98	30686.76
581.14	30359.09
581.30	30939.54
581.46	30426.96
581.62	30345.05
581.78	30096.95
581.94	30209.29
582.10	30632.93
582.26	30319.30
582.42	30345.05
582.58	30885.71
582.74	30717.19
582.90	30579.10
583.06	30696.13
583.22	30827.20
583.38	30368.45
583.54	30520.59
583.70	30366.11
583.86	30845.92
584.02	30338.02
584.18	30658.68
584.34	30848.26
584.50	30822.51
584.66	30441.01
584.82	30307.60
584.98	30874.01
585.14	30679.74
585.30	30859.96
585.46	30756.98
585.62	30756.98
585.78	30670.38
585.94	30651.66
586.10	30799.11
586.26	30780.39
586.42	31061.25
586.58	30511.22
586.74	30518.25
586.90	30457.39
587.06	30490.16
587.22	30726.55
587.38	30895.07
587.54	30866.98
587.70	30960.61
587.86	30614.21
588.02	31466.16
588.18	30974.65
588.34	30764.00
588.49	31110.40
588.65	30572.08
588.81	30827.20
588.97	30911.46
589.13	30883.37
589.29	30558.03
589.45	30820.17
589.61	31194.66
589.77	31381.90
589.93	31012.10
590.08	31445.10
590.24	31103.38
590.40	31154.87
590.56	31283.60
590.72	30806.13
590.88	31007.42
591.04	30916.14
591.20	30824.86
591.35	31744.69
591.51	31601.91
591.67	31569.15
591.83	31304.67
591.99	31445.10
592.15	31047.21
592.31	31426.37
592.46	30932.52
592.62	31178.28
592.78	30969.97
592.94	30831.88
593.10	30859.96
593.26	30829.54
593.41	31124.44
593.57	31124.44
593.73	31597.23
593.89	31295.30
594.05	31353.82
594.20	31314.03
594.36	31241.47
594.52	31005.08
594.68	31213.38
594.84	31318.71
594.99	31161.89
595.15	31138.49
595.31	31548.08
595.47	31138.49
595.62	31473.18
595.78	31414.67
595.94	31290.62
596.10	31143.17
596.25	31201.68
596.41	31161.89
596.57	30986.35
596.73	30974.65
596.88	31255.51
597.04	31494.25
597.20	31885.12
597.36	31325.73
597.51	31592.55
597.67	31122.10
597.83	31412.33
597.99	31386.58
598.14	31459.14
598.30	31178.28
598.46	31438.08
598.61	31337.43
598.77	31042.53
598.93	31271.90
599.09	31089.34
599.24	31335.09
599.40	31751.71
599.56	31461.48
599.71	31737.66
599.87	31433.39
600.03	31491.91
600.18	31358.50
600.34	30916.14
600.50	31262.54
600.65	31091.68
600.81	31393.61
600.97	31587.87
601.12	31578.51
601.28	31655.75
601.44	31824.26
601.59	31075.29
601.75	31358.50
601.91	31604.25
602.06	31271.90
602.22	31402.97
602.37	31215.72
602.53	31365.52
602.69	31138.49
602.84	31669.79
603.00	31758.73
603.16	31407.65
603.31	31241.47
603.47	31379.56
603.62	31363.18
603.78	31117.42
603.94	31117.42
604.09	31035.50
604.25	31227.43
604.40	31510.63
604.56	31019.12
604.71	31414.67
604.87	31634.68
605.03	31681.49
605.18	31700.22
605.34	31299.98
605.49	30974.65
605.65	31545.74
605.80	31021.46
605.96	31204.02
606.12	30993.37
606.27	31407.65
606.43	31187.64
606.58	31477.86
606.74	31180.62
606.89	31447.44
607.05	31508.29
607.20	31199.34
607.36	31517.65
607.51	31491.91
607.67	30906.77
607.82	31342.11
607.98	31077.63
608.13	30642.29
608.29	31126.78
608.44	30984.01
608.60	31222.75
608.75	31555.10
608.91	31274.24
609.06	30927.84
609.22	31405.31
609.37	31007.42
609.53	31414.67
609.68	31339.77
609.84	30909.11
609.99	31550.42
610.15	31077.63
610.30	30998.06
610.46	31023.80
610.61	31260.20
610.76	31068.27
610.92	31267.22
611.07	31227.43
611.23	30995.71
611.38	31044.87
611.54	31089.34
611.69	30995.71
611.84	30817.83
612.00	30572.08
612.15	30925.50
612.31	30979.33
612.46	30785.07
612.62	31129.12
612.77	31204.02
612.92	31232.11
613.08	31058.91
613.23	31323.39
613.39	30738.26
613.54	30787.41
613.69	30705.49
613.85	30677.40
614.00	30595.48
614.15	30630.59
614.31	30841.24
614.46	30953.58
614.62	30448.03
614.77	30855.28
614.92	30756.98
615.08	31035.50
615.23	30918.48
615.38	30775.70
615.54	30202.27
615.69	30438.67
615.84	30569.74
616.00	30216.32
616.15	30429.30
616.30	30927.84
616.46	30567.40
616.61	30518.25
616.76	30682.08
616.92	30457.39
617.07	30541.65
617.22	30457.39
617.37	30834.22
617.53	30459.73
617.68	30593.14
617.83	30347.39
617.99	30258.45
618.14	30272.49
618.29	30373.13
618.45	30532.29
618.60	30377.81
618.75	30609.53
618.90	30611.87
619.06	30256.11
619.21	30356.75
619.36	30321.64
619.51	29769.27
619.67	30162.48
619.82	29797.36
619.97	30291.21
620.12	30242.06
620.28	29769.27
620.43	30293.55
620.58	30153.12
620.73	30579.10
620.89	30239.72
621.04	30066.52
621.19	30099.29
621.34	29865.24
621.49	29778.64
621.65	29860.55
621.80	29855.87
621.95	29916.73
622.10	30150.78
622.25	29820.77
622.41	30073.54
622.56	29642.88
622.71	29790.34
622.86	29867.58
623.01	30050.14
623.16	29933.11
623.32	29914.39
623.47	29591.39
623.62	29834.81
623.77	29813.74
623.92	30082.91
624.07	29670.97
624.23	29610.12
624.38	30068.86
624.53	30185.89
624.68	29902.68
624.83	29914.39
624.98	29736.51
625.13	30024.39
625.29	29722.46
625.44	29558.63
625.59	29472.03
625.74	29497.77
625.89	29296.49
626.04	29624.16
626.19	29656.93
626.34	29598.41
626.49	29312.87
626.65	29558.63
626.80	29460.32
626.95	29383.09
627.10	29137.33
627.25	29535.22
627.40	29235.63
627.55	29399.47
627.70	29071.79
627.85	29413.51
628.00	29305.85
628.15	29448.62
628.30	28947.75
628.45	29221.59
628.60	28936.04
628.76	29233.29
628.91	29167.76
629.06	29385.43
629.21	29530.54
629.36	28975.83
629.51	29125.63
629.66	29034.35
629.81	29032.00
629.96	29092.86
630.11	28872.85
630.26	29053.07
630.41	29123.29
630.56	28975.83
630.71	28830.72
630.86	28709.01
631.01	28914.98
631.16	29198.18
631.31	28870.51
631.46	28437.51
631.61	28622.41
631.76	28954.77
631.91	28755.82
632.06	28701.99
632.21	28807.31
632.36	28613.05
632.51	28577.94
632.66	28837.74
632.81	28840.08
632.96	28912.64
633.10	28676.24
633.25	28547.51
633.40	28701.99
633.55	28701.99
633.70	28451.55
633.85	28292.40
634.00	28287.71
634.15	27981.10
634.30	28343.89
634.45	28554.54
634.60	28198.77
634.75	28411.76
634.90	28208.14
635.05	28290.06
635.19	28493.68
635.34	28725.39
635.49	28718.37
635.64	28425.81
635.79	28570.92
635.94	28444.53
636.09	28362.61
636.24	28098.13
636.39	28404.74
636.53	28048.98
636.68	28072.39
636.83	28252.61
636.98	28161.33
637.13	28205.80
637.28	28510.07
637.43	28627.09
637.57	28444.53
637.72	28044.30
637.87	28006.85
638.02	27913.23
638.17	28048.98
638.32	28025.57
638.46	28051.32
638.61	28086.43
638.76	27641.73
638.91	27758.75
639.06	27903.87
639.20	28037.28
639.35	28322.82
639.50	27733.01
639.65	28137.92
639.80	27917.91
639.94	27964.72
640.09	27917.91
640.24	27903.87
640.39	27606.62
640.54	27969.40
640.68	27529.38
640.83	28009.19
640.98	27541.08
641.13	27388.95
641.27	27981.10
641.42	27835.99
641.57	27964.72
641.72	28264.31
641.86	27089.36
642.01	27798.54
642.16	27564.49
642.31	27115.11
642.45	27828.97
642.60	27407.67
642.75	27475.55
642.90	27536.40
643.04	27716.62
643.19	27702.58
643.34	27309.37
643.48	27363.20
643.63	27637.05
643.78	27686.20
643.93	27461.51
644.07	27700.24
644.22	27566.83
644.37	27733.01
644.51	27477.89
644.66	27311.71
644.81	27145.53
644.95	26960.63
645.10	27353.84
645.25	27271.92
645.39	27157.24
645.54	27168.94
645.69	27178.30
645.83	27297.67
645.98	26988.72
646.13	26986.38
646.27	27192.34
646.42	26808.50
646.57	27101.06
646.71	27190.00
646.86	27180.64
647.00	27147.87
647.15	27234.47
647.30	26998.08
647.44	26712.53
647.59	27084.68
647.74	27175.96
647.88	26946.59
648.03	27105.74
648.17	27208.73
648.32	27288.31
648.47	26902.12
648.61	26923.18
648.76	26937.23
648.90	26859.99
649.05	26785.09
649.20	26855.31
649.34	26473.80
649.49	26757.00
649.63	26778.07
649.78	27178.30
649.92	26698.49
650.07	26572.10
650.21	27084.68
650.36	26410.60
650.51	26581.46
650.65	26799.13
650.80	26806.16
650.94	26625.93
651.09	26705.51
651.23	26462.10
651.38	26675.09
651.52	26389.54
651.67	26324.01
651.81	27030.85
651.96	26757.00
652.10	26534.65
652.25	26572.10
652.39	26366.13
652.54	26761.69
652.68	26520.61
652.83	26302.94
652.97	26621.25
653.12	26625.93
653.26	26281.88
653.41	26618.91
653.55	26558.06
653.70	26455.08
653.84	26295.92
653.99	26087.61
654.13	26293.58
654.27	26216.34
654.42	26160.17
654.56	26478.48
654.71	26450.39
654.85	26153.15
655.00	26424.65
655.14	26134.42
655.29	26263.15
655.43	26295.92
655.57	26047.82
655.72	26003.35
655.86	25872.28
656.01	25970.58
656.15	25930.80
656.30	26199.96
656.44	26050.16
656.58	26113.36
656.73	26300.60
656.87	25724.83
657.01	25717.81
657.16	25827.81
657.30	26291.24
657.45	26146.12
657.59	25968.24
657.73	25783.34
657.88	25762.28
658.02	25738.87
658.16	25790.36
658.31	25352.68
658.45	25743.55
658.60	25560.99
658.74	25876.96
658.88	25598.44
659.03	25371.41
659.17	25661.63
659.31	25570.35
659.46	25696.74
659.60	25757.60
659.74	25783.34
659.89	25448.64
660.03	25493.12
660.17	25270.76
660.32	25450.99
660.46	25170.12
660.60	25193.53
660.74	25120.97
660.89	25502.48
661.03	25069.48
661.17	25109.27
661.32	25322.26
661.46	25191.19
661.60	24943.09
661.74	24989.90
661.89	25570.35
662.03	25355.02
662.17	24903.30
662.31	24772.23
662.46	25097.56
662.60	24903.30
662.74	24844.79
662.88	24662.22
663.03	24491.37
663.17	24606.05
663.31	24510.09
663.45	24592.01
663.60	24531.15
663.74	24428.17
663.88	24620.10
664.02	24559.24
664.17	24643.50
664.31	24610.73
664.45	24386.04
664.59	24320.51
664.73	24772.23
664.88	24360.30
665.02	24133.26
665.16	24102.84
665.30	23817.29
665.44	24313.48
665.59	24367.32
665.73	23992.83
665.87	23920.28
666.01	24367.32
666.15	23922.62
666.29	24388.38
666.44	24130.92
666.58	23985.81
666.72	24112.20
666.86	24006.87
667.00	23943.68
667.14	23885.17
667.28	24170.71
667.43	23772.82
667.57	23587.92
667.71	23400.68
667.85	23814.95
667.99	23356.21
668.13	23517.70
668.27	24086.45
668.41	23779.84
668.56	23616.01
668.70	23585.58
668.84	23297.69
668.98	23281.31
669.12	23508.34
669.26	23571.54
669.40	23412.38
669.54	23384.29
669.68	23260.24
669.82	23447.49
669.96	23206.41
670.10	23183.01
670.25	23316.42
670.39	22909.16
670.53	22867.03
670.67	22721.92
670.81	22604.89
670.95	23110.45
671.09	22555.74
671.23	23077.68
671.37	22707.88
671.51	22668.09
671.65	22679.79
671.79	22656.39
671.93	23040.23
672.07	22742.99
672.21	22574.47
672.35	22518.29
672.49	22211.68
672.63	22396.59
672.77	22335.73
672.91	22223.39
673.05	22490.21
673.19	22586.17
673.33	22356.80
673.47	22237.43
673.61	22389.56
673.75	22190.62
673.89	22101.68
674.03	21965.93
674.17	22099.34
674.31	22361.48
674.45	21841.88
674.59	21851.24
674.73	21837.20
674.87	21942.52
675.01	21921.46
675.15	21603.14
675.29	21713.15
675.43	21652.30
675.56	21797.41
675.70	21383.13
675.84	21422.92
675.98	20800.34
676.12	21825.50
676.26	21195.89
676.40	21598.46
676.54	21380.79
676.68	21273.13
676.82	20854.17
676.96	21420.58
677.10	20875.24
677.23	21036.74
677.37	20737.15
677.51	20720.76
677.65	20819.07
677.79	20629.48
677.93	20662.25
678.07	20402.45
678.21	20383.73
678.34	20152.01
678.48	20301.81
678.62	20173.08
678.76	20105.20
678.90	20386.07
679.04	20072.43
679.18	20259.68
679.31	19936.68
679.45	19992.86
679.59	19733.06
679.73	19576.24
679.87	19845.40
680.00	19484.96
680.14	19377.30
680.28	19667.52
680.42	19534.11
680.56	19735.40
680.70	19754.12
680.83	19480.28
680.97	19623.05
681.11	19241.54
681.25	19342.19
681.39	19323.46
681.52	19161.97
681.66	19021.53
681.80	19349.21
681.94	18883.44
682.07	18960.68
682.21	18483.21
682.35	18750.03
682.49	18649.39
682.62	18347.46
682.76	18672.79
682.90	18789.82
683.04	18548.75
683.17	18548.75
683.31	18349.80
683.45	18445.76
683.59	18448.10
683.72	18420.02
683.86	18143.83
684.00	18256.18
684.13	18216.39
684.27	18157.88
684.41	18024.47
684.55	17832.54
684.68	17788.07
684.82	17687.43
684.96	17621.89
685.09	17745.94
685.23	17294.22
685.37	17755.30
685.50	17954.25
685.64	17591.47
685.78	17469.76
685.91	17715.51
686.05	17467.42
686.19	17460.40
686.32	17413.59
686.46	17135.06
686.60	16994.63
686.73	16999.31
686.87	16877.60
687.01	16945.48
687.14	17167.83
687.28	16627.17
687.42	16594.40
687.55	16833.13
687.69	16594.40
687.82	16608.44
687.96	16573.33
688.10	16393.11
688.23	16706.74
688.37	16613.12
688.50	16575.67
688.64	16194.17
688.78	16273.74
688.91	16388.43
689.05	16056.08
689.18	16154.38
689.32	15798.62
689.46	15829.04
689.59	15953.09
689.73	15826.70
689.86	15756.49
690.00	15660.52
690.13	15674.57
690.27	15775.21
690.41	15543.50
690.54	15714.36
690.68	15536.48
690.81	15531.80
690.95	15382.00
691.08	15592.65
691.22	15365.62
691.35	15248.59
691.49	15356.25
691.62	15272.00
691.76	14988.79
691.89	14871.76
692.03	14724.31
692.16	14958.36
692.30	14675.16
692.43	14771.12
692.57	14761.76
692.70	14523.02
692.84	14682.18
692.97	14658.78
693.11	14520.68
693.24	14621.33
693.38	14373.23
693.51	14347.48
693.65	14443.45
693.78	14445.79
693.92	14312.38
694.05	14031.51
694.19	14235.14
694.32	14092.37
694.45	14097.05
694.59	14017.47
694.72	13804.48
694.86	13673.41
694.99	13387.86
695.13	13582.13
695.26	13689.79
695.39	13427.65
695.53	13341.05
695.66	13673.41
695.80	13664.05
695.93	13654.69
696.07	13296.58
696.20	13298.92
696.33	13287.22
696.47	13364.46
696.60	12987.63
696.73	13053.17
696.87	13041.46
697.00	12959.55
697.14	12826.14
697.27	12774.64
697.40	12655.28
697.54	12856.56
697.67	12688.04
697.80	12678.68
697.94	12608.47
698.07	12339.30
698.21	12449.31
698.34	12484.42
698.47	12634.21
698.61	12320.58
698.74	12535.91
698.87	12486.76
699.01	12142.70
699.14	12257.39
699.27	12116.95
699.40	12109.93
699.54	12219.94
699.67	12093.55
699.80	11819.71
699.94	11976.52
700.07	11918.01
700.20	11786.94
700.34	11372.66
700.47	11789.28
700.60	11648.85
700.73	11587.99
700.87	11595.01
701.00	11721.40
701.13	11508.41
701.26	11262.66
701.40	11527.14
701.53	11438.20
701.66	11246.27
701.79	11234.57
701.93	11243.93
702.06	11222.87
702.19	10942.00
702.32	10813.28
702.46	10984.13
702.59	10729.02
702.72	10771.15
702.85	10932.64
702.99	10764.12
703.12	10768.80
703.25	10553.48
703.38	10602.63
703.51	10621.35
703.65	10501.98
703.78	10464.54
703.91	10450.49
704.04	10616.67
704.17	10567.52
704.31	10509.01
704.44	10373.25
704.57	10246.87
704.70	10125.16
704.83	10033.88
704.96	10221.12
705.10	10115.80
705.23	10083.03
>>>>>End Processed Spectral Data<<<<<
