SpectraSuite Data File
++++++++++++++++++++++++++++++++++++
Date: Fri Oct 18 13:58:16 GMT-05:00 2013
User: bianchi
Dark Spectrum Present: No
Reference Spectrum Present: No
Number of Sampled Component Spectra: 1
Spectrometers: USB2+H05261
Integration Time (usec): 50000 (USB2+H05261)
Spectra Averaged: 1 (USB2+H05261)
Boxcar Smoothing: 0 (USB2+H05261)
Correct for Electrical Dark: No (USB2+H05261)
Strobe/Lamp Enabled: No (USB2+H05261)
Correct for Detector Non-linearity: No (USB2+H05261)
Correct for Stray Light: No (USB2+H05261)
Number of Pixels in Processed Spectrum: 2048
>>>>>Begin Processed Spectral Data<<<<<
365.73	0.00
365.92	0.00
366.12	0.00
366.32	0.00
366.52	0.00
366.72	0.00
366.91	0.00
367.11	0.00
367.31	0.00
367.51	0.00
367.70	0.00
367.90	0.00
368.10	0.00
368.30	0.00
368.49	0.00
368.69	0.00
368.89	0.00
369.09	0.00
369.28	0.00
369.48	0.00
369.68	0.00
369.87	0.00
370.07	0.00
370.27	0.00
370.47	0.00
370.66	107.66
370.86	7.02
371.06	152.13
371.25	163.84
371.45	93.62
371.65	156.82
371.84	119.37
372.04	121.71
372.24	184.90
372.44	147.45
372.63	215.33
372.83	173.20
373.03	222.35
373.22	208.31
373.42	196.60
373.62	198.95
373.81	203.63
374.01	196.60
374.21	220.01
374.40	168.52
374.60	191.92
374.79	255.12
374.99	227.03
375.19	222.35
375.38	182.56
375.58	227.03
375.78	227.03
375.97	203.63
376.17	245.76
376.37	318.31
376.56	315.97
376.76	271.50
376.95	264.48
377.15	273.84
377.35	229.37
377.54	231.71
377.74	234.05
377.93	252.78
378.13	278.52
378.33	269.16
378.52	276.18
378.72	301.93
378.91	299.59
379.11	271.50
379.31	292.57
379.50	201.29
379.70	334.70
379.89	362.78
380.09	301.93
380.28	238.73
380.48	220.01
380.68	290.23
380.87	334.70
381.07	285.55
381.26	337.04
381.46	369.80
381.65	334.70
381.85	290.23
382.04	318.31
382.24	339.38
382.43	344.06
382.63	337.04
382.83	390.87
383.02	346.40
383.22	299.59
383.41	332.36
383.61	325.33
383.80	390.87
384.00	414.27
384.19	379.17
384.39	386.19
384.58	325.33
384.78	414.27
384.97	360.44
385.17	440.02
385.36	332.36
385.56	388.53
385.75	365.12
385.95	418.96
386.14	397.89
386.34	411.93
386.53	444.70
386.72	388.53
386.92	402.57
387.11	449.38
387.31	393.21
387.50	449.38
387.70	379.17
387.89	362.78
388.09	407.25
388.28	407.25
388.48	367.46
388.67	510.24
388.86	477.47
389.06	414.27
389.25	493.85
389.45	468.11
389.64	442.36
389.84	535.98
390.03	442.36
390.22	531.30
390.42	491.51
390.61	496.19
390.81	484.49
391.00	475.13
391.19	524.28
391.39	458.74
391.58	491.51
391.78	496.19
391.97	524.28
392.16	535.98
392.36	514.92
392.55	613.22
392.75	500.87
392.94	500.87
393.13	552.37
393.33	519.60
393.52	580.45
393.71	603.86
393.91	411.93
394.10	599.18
394.29	580.45
394.49	620.24
394.68	599.18
394.88	599.18
395.07	601.52
395.26	606.20
395.46	594.50
395.65	723.23
395.84	610.88
396.04	650.67
396.23	655.35
396.42	653.01
396.62	669.39
396.81	599.18
397.00	648.33
397.19	660.03
397.39	554.71
397.58	697.48
397.77	660.03
397.97	664.71
398.16	695.14
398.35	688.12
398.55	671.73
398.74	695.14
398.93	704.50
399.12	753.65
399.32	746.63
399.51	613.22
399.70	784.08
399.90	702.16
400.09	732.59
400.28	716.20
400.47	751.31
400.67	821.53
400.86	788.76
401.05	746.63
401.24	826.21
401.44	816.85
401.63	755.99
401.82	814.51
402.01	713.86
402.21	835.57
402.40	835.57
402.59	755.99
402.78	891.74
402.97	873.02
403.17	840.25
403.36	844.93
403.55	837.91
403.74	861.32
403.93	837.91
404.13	887.06
404.32	786.42
404.51	929.19
404.70	983.02
404.89	882.38
405.09	936.21
405.28	959.62
405.47	959.62
405.66	964.30
405.85	938.55
406.05	999.41
406.24	936.21
406.43	973.66
406.62	990.05
406.81	999.41
407.00	1015.79
407.20	976.00
407.39	891.74
407.58	1060.26
407.77	1022.81
407.96	1078.99
408.15	1039.20
408.34	1125.80
408.54	1097.71
408.73	1090.69
408.92	1109.41
409.11	1050.90
409.30	1186.65
409.49	1048.56
409.68	1081.33
409.87	1193.67
410.07	1210.06
410.26	1233.46
410.45	1130.48
410.64	1200.69
410.83	1121.12
411.02	1203.04
411.21	1259.21
411.40	1275.59
411.59	1329.42
411.78	1259.21
411.98	1296.66
412.17	1259.21
412.36	1310.70
412.55	1280.27
412.74	1336.45
412.93	1345.81
413.12	1315.38
413.31	1437.09
413.50	1378.58
413.69	1378.58
413.88	1385.60
414.07	1322.40
414.26	1444.11
414.45	1409.00
414.64	1376.24
414.83	1554.12
415.02	1500.28
415.22	1507.30
415.41	1448.79
415.60	1551.78
415.79	1575.18
415.98	1610.29
416.17	1572.84
416.36	1530.71
416.55	1570.50
416.74	1631.35
416.93	1554.12
417.12	1657.10
417.31	1570.50
417.50	1692.21
417.69	1771.79
417.88	1694.55
418.07	1708.59
418.26	1727.32
418.45	1687.53
418.64	1781.15
418.83	1799.87
419.02	1657.10
419.21	1755.40
419.39	1858.39
419.58	1736.68
419.77	1764.76
419.96	1795.19
420.15	1914.56
420.34	1778.81
420.53	1893.49
420.72	1963.71
420.91	1984.77
421.10	1944.99
421.29	2111.16
421.48	1891.15
421.67	1954.35
421.86	1949.67
422.05	1968.39
422.24	1935.62
422.43	1928.60
422.61	1991.80
422.80	1940.30
422.99	2015.20
423.18	2076.06
423.37	2094.78
423.56	2026.90
423.75	2024.56
423.94	1966.05
424.13	1973.07
424.32	1870.09
424.50	2059.67
424.69	2083.08
424.88	2029.24
425.07	2015.20
425.26	2017.54
425.45	1947.33
425.64	1984.77
425.83	2026.90
426.01	2120.53
426.20	2012.86
426.39	2024.56
426.58	1982.43
426.77	2062.01
426.96	2090.10
427.15	2078.40
427.33	2132.23
427.52	2010.52
427.71	2244.57
427.90	2190.74
428.09	2106.48
428.28	2167.34
428.46	2111.16
428.65	2136.91
428.84	2275.00
429.03	2223.51
429.22	2157.97
429.40	2218.83
429.59	2146.27
429.78	2244.57
429.97	2188.40
430.16	2216.49
430.34	2361.60
430.53	2342.88
430.72	2303.09
430.91	2230.53
431.10	2331.17
431.28	2385.01
431.47	2256.28
431.66	2464.58
431.85	2333.51
432.03	2438.84
432.22	2413.09
432.41	2382.67
432.60	2495.01
432.79	2333.51
432.97	2492.67
433.16	2466.92
433.35	2581.61
433.54	2457.56
433.72	2555.86
433.91	2509.05
434.10	2605.02
434.28	2469.27
434.47	2544.16
434.66	2553.52
434.85	2630.76
435.03	2630.76
435.22	2548.84
435.41	2597.99
435.59	2602.68
435.78	2548.84
435.97	2654.17
436.16	2656.51
436.34	2754.81
436.53	2677.57
436.72	2672.89
436.90	2626.08
437.09	2810.98
437.28	2689.28
437.46	2738.43
437.65	2775.88
437.84	2832.05
438.02	2736.09
438.21	2878.86
438.40	2764.17
438.58	2960.78
438.77	2965.46
438.96	2888.22
439.14	2906.95
439.33	2888.22
439.52	2960.78
439.70	2977.16
439.89	3056.74
440.08	3049.72
440.26	3070.78
440.45	2942.05
440.63	3019.29
440.82	3164.40
441.01	3138.66
441.19	3009.93
441.38	3187.81
441.57	3131.64
441.75	3131.64
441.94	3251.00
442.12	3248.66
442.31	3342.28
442.50	3482.72
442.68	3246.32
442.87	3300.16
443.05	3269.73
443.24	3304.84
443.43	3384.41
443.61	3508.46
443.80	3534.21
443.98	3253.34
444.17	3164.40
444.35	3297.81
444.54	3478.04
444.73	3424.20
444.91	3419.52
445.10	3597.40
445.28	3456.97
445.47	3302.50
445.65	3412.50
445.84	3447.61
446.02	3370.37
446.21	3531.87
446.39	3478.04
446.58	3463.99
446.77	3576.34
446.95	3426.54
447.14	3475.70
447.32	3527.19
447.51	3473.36
447.69	3517.83
447.88	3508.46
448.06	3489.74
448.25	3618.47
448.43	3510.80
448.62	3506.12
448.80	3473.36
448.99	3599.74
449.17	3597.40
449.36	3445.27
449.54	3637.19
449.73	3620.81
449.91	3768.26
450.10	3606.77
450.28	3754.22
450.46	3616.13
450.65	3756.56
450.83	3660.60
451.02	3754.22
451.20	3803.37
451.39	3833.80
451.57	3616.13
451.76	3721.45
451.94	3847.84
452.13	3871.25
452.31	3857.20
452.49	3880.61
452.68	3871.25
452.86	3801.03
453.05	4016.36
453.23	3892.31
453.42	3805.71
453.60	3754.22
453.78	3934.44
453.97	3758.90
454.15	3985.93
454.34	3915.72
454.52	4072.53
454.70	3850.18
454.89	4063.17
455.07	3992.95
455.26	3983.59
455.44	4002.32
455.62	3999.98
455.81	4002.32
455.99	4004.66
456.17	3992.95
456.36	4095.94
456.54	4187.22
456.73	4255.09
456.91	4332.33
457.09	4414.25
457.28	4327.65
457.46	4243.39
457.64	4409.57
457.83	4290.20
458.01	4311.27
458.19	4327.65
458.38	4344.03
458.56	4449.36
458.74	4451.70
458.93	4353.40
459.11	4400.21
459.29	4465.74
459.48	4458.72
459.66	4554.68
459.84	4596.81
460.03	4662.35
460.21	4554.68
460.39	4470.42
460.57	4568.73
460.76	4652.98
460.94	4575.75
461.12	4603.83
461.31	4709.16
461.49	4550.00
461.67	4550.00
461.85	4720.86
462.04	4706.82
462.22	4961.94
462.40	4737.24
462.59	4540.64
462.77	4716.18
462.95	4774.69
463.13	4896.40
463.32	4676.39
463.50	4795.76
463.68	4865.97
463.86	4851.93
464.05	4767.67
464.23	4793.42
464.41	4695.11
464.59	4887.04
464.78	4905.76
464.96	4877.68
465.14	4840.23
465.32	5083.64
465.50	5109.39
465.69	4985.34
465.87	4992.36
466.05	4938.53
466.23	5013.43
466.41	5055.56
466.60	5203.01
466.78	5055.56
466.96	5008.75
467.14	4898.74
467.32	5015.77
467.51	5107.05
467.69	5008.75
467.87	5102.37
468.05	5355.15
468.23	5135.14
468.41	5055.56
468.60	5242.80
468.78	5247.48
468.96	5254.50
469.14	5301.31
469.32	5268.55
469.50	5167.90
469.69	5284.93
469.87	5376.21
470.05	5416.00
470.23	5341.10
470.41	5523.66
470.59	5551.75
470.77	5448.77
470.95	5324.72
471.14	5603.24
471.32	5448.77
471.50	5626.65
471.68	5598.56
471.86	5490.90
472.04	5434.72
472.22	5743.67
472.40	5741.33
472.58	5610.26
472.77	5680.48
472.95	5598.56
473.13	5914.53
473.31	5692.18
473.49	5710.91
473.67	5802.19
473.85	5846.66
474.03	5891.13
474.21	5771.76
474.39	5994.11
474.57	6064.33
474.75	6202.42
474.93	6113.48
475.12	6061.99
475.30	5977.73
475.48	6090.07
475.66	6284.34
475.84	6167.31
476.02	6389.66
476.20	6307.74
476.38	6396.68
476.56	6572.22
476.74	6534.78
476.92	6434.13
477.10	6614.35
477.28	6876.49
477.46	6679.89
477.64	6747.76
477.82	6647.12
478.00	7033.31
478.18	6892.88
478.36	7119.91
478.54	6991.18
478.72	6916.28
478.90	7248.64
479.08	7218.21
479.26	7162.04
479.44	7283.75
479.62	7332.90
479.80	7386.73
479.98	7379.71
480.16	7529.50
480.34	7330.56
480.52	7536.52
480.70	7796.32
480.88	7573.97
481.06	7616.10
481.24	7653.55
481.41	7674.62
481.59	7932.08
481.77	7983.57
481.95	7983.57
482.13	7913.35
482.31	8210.60
482.49	8285.50
482.67	8182.51
482.85	8435.29
483.03	8545.30
483.21	8461.04
483.39	8528.91
483.57	8718.50
483.74	8636.58
483.92	8826.16
484.10	8781.69
484.28	8943.19
484.46	8882.33
484.64	9135.11
484.82	9270.86
485.00	9249.80
485.18	9165.54
485.35	9348.10
485.53	9289.59
485.71	9682.80
485.89	9668.75
486.07	9495.55
486.25	9462.79
486.43	9582.15
486.61	9640.67
486.78	9926.21
486.96	10052.60
487.14	10104.09
487.32	10085.37
487.50	10111.11
487.68	10293.68
487.85	10256.23
488.03	10619.01
488.21	10499.64
488.39	10539.43
488.57	10658.80
488.75	10656.46
488.92	10581.56
489.10	11047.33
489.28	10754.76
489.46	11068.39
489.64	11035.63
489.81	11316.49
489.99	11098.82
490.17	11307.13
490.35	11325.85
490.53	11382.03
490.70	11644.17
490.88	11660.55
491.06	11609.06
491.24	11800.98
491.41	11728.42
491.59	11957.80
491.77	11946.09
491.95	12063.12
492.13	12175.47
492.30	12030.35
492.48	12091.21
492.66	12266.75
492.84	12446.97
493.01	12531.23
493.19	12465.69
493.37	12545.27
493.54	12556.97
493.72	12739.54
493.90	12615.49
494.08	13036.78
494.25	13060.19
494.43	13177.22
494.61	13116.36
494.79	13289.56
494.96	13451.06
495.14	13493.19
495.32	13626.60
495.49	13476.80
495.67	13680.43
495.85	13879.38
496.02	13582.13
496.20	13614.90
496.38	13823.20
496.55	13605.53
496.73	14136.84
496.91	14223.44
497.09	14108.75
497.26	14389.61
497.44	14611.96
497.62	14445.79
497.79	14429.40
497.97	14466.85
498.14	14829.63
498.32	14721.97
498.50	14707.93
498.67	14963.04
498.85	14801.55
499.03	15012.20
499.20	14780.48
499.38	15152.63
499.56	15101.14
499.73	15157.31
499.91	15311.78
500.08	15349.23
500.26	15407.75
500.44	15281.36
500.61	15459.24
500.79	15281.36
500.97	15634.78
501.14	15978.84
501.32	15751.81
501.49	15693.29
501.67	15836.06
501.84	15744.78
502.02	15676.91
502.20	15995.22
502.37	16294.81
502.55	16070.12
502.72	16149.70
502.90	16381.41
503.07	16039.69
503.25	16519.50
503.43	16348.64
503.60	16365.03
503.78	16304.17
503.95	16648.23
504.13	16468.01
504.30	16613.12
504.48	16369.71
504.65	16959.52
504.83	17013.35
505.01	16905.69
505.18	17114.00
505.36	17315.28
505.53	16929.09
505.71	16954.84
505.88	17032.08
506.06	17123.36
506.23	17338.69
506.41	17212.30
506.58	17434.65
506.76	17366.78
506.93	17462.74
507.11	17500.19
507.28	17425.29
507.46	17338.69
507.63	17710.83
507.81	17893.40
507.98	17916.80
508.16	17820.84
508.33	17841.90
508.50	18211.71
508.68	17811.48
508.85	18050.21
509.03	17968.29
509.20	17853.61
509.38	18050.21
509.55	18185.96
509.73	18583.85
509.90	18256.18
510.08	18312.35
510.25	18237.45
510.42	18668.11
510.60	18941.96
510.77	18967.70
510.95	18778.12
511.12	18623.64
511.30	18583.85
511.47	18799.18
511.64	18717.26
511.82	19201.76
511.99	18979.40
512.17	18672.79
512.34	19122.18
512.51	19176.01
512.69	19274.31
512.86	19262.61
513.04	19126.86
513.21	19297.72
513.38	19552.84
513.56	19681.56
513.73	19342.19
513.90	19541.13
514.08	19541.13
514.25	19531.77
514.43	19585.60
514.60	19681.56
514.77	19613.69
514.95	20018.60
515.12	19669.86
515.29	19939.02
515.47	20034.99
515.64	19962.43
515.81	19847.74
515.99	20159.03
516.16	20414.15
516.33	20074.77
516.51	20215.21
516.68	20500.75
516.85	20315.85
517.03	20238.61
517.20	20446.92
517.37	20521.82
517.54	20470.33
517.72	20664.59
517.89	20781.62
518.06	20266.70
518.24	20650.55
518.41	20521.82
518.58	20723.10
518.75	20645.87
518.93	20793.32
519.10	20652.89
519.27	21109.29
519.45	20800.34
519.62	21106.95
519.79	20788.64
519.96	21144.40
520.14	20837.79
520.31	21010.99
520.48	21338.66
520.65	21312.92
520.83	21235.68
521.00	21331.64
521.17	21348.03
521.34	21280.15
521.52	21390.16
521.69	21661.66
521.86	21830.18
522.03	21539.95
522.20	21549.31
522.38	21874.65
522.55	21986.99
522.72	21935.50
522.89	21738.90
523.07	22302.96
523.24	22132.11
523.41	22190.62
523.58	22104.02
523.75	22085.30
523.92	22122.74
524.10	22118.06
524.27	22403.61
524.44	22155.51
524.61	22670.43
524.78	22485.53
524.96	22649.36
525.13	22469.14
525.30	22473.82
525.47	22553.40
525.64	22307.65
525.81	22771.07
525.98	22628.30
526.16	22764.05
526.33	22775.75
526.50	22850.65
526.67	22637.66
526.84	22764.05
527.01	22656.39
527.18	22717.24
527.36	23276.63
527.53	23197.05
527.70	23089.38
527.87	23140.88
528.04	23194.71
528.21	23358.55
528.38	23524.72
528.55	23234.50
528.72	23215.77
528.89	23456.85
529.07	23236.84
529.24	23318.76
529.41	23576.22
529.58	23318.76
529.75	23323.44
529.92	23417.06
530.09	23393.65
530.26	23728.35
530.43	23814.95
530.60	23391.31
530.77	23300.03
530.94	23740.05
531.11	23580.90
531.28	23625.37
531.46	23592.60
531.63	24058.37
531.80	23967.09
531.97	23920.28
532.14	24079.43
532.31	24212.84
532.48	24034.96
532.65	23908.57
532.82	23927.30
532.99	23927.30
533.16	24046.66
533.33	24313.48
533.50	24334.55
533.67	24472.64
533.84	23826.65
534.01	24500.73
534.18	24173.05
534.35	24201.14
534.52	24374.34
534.69	24807.34
534.86	24755.85
535.03	24669.25
535.20	24535.84
535.37	24692.65
535.54	24797.98
535.71	24589.67
535.88	24760.53
536.05	24498.39
536.22	25127.99
536.38	24800.32
536.55	25017.99
536.72	24856.49
536.89	24856.49
537.06	25050.75
537.23	24999.26
537.40	24973.52
537.57	25149.06
537.74	25579.71
537.91	25504.82
538.08	25151.40
538.25	25130.33
538.42	25263.74
538.59	25200.55
538.75	25022.67
538.92	25081.18
539.09	25254.38
539.26	25656.95
539.43	25453.33
539.60	25458.01
539.77	25666.31
539.94	25860.58
540.11	25642.91
540.28	25188.85
540.44	25781.00
540.61	25357.36
540.78	25671.00
540.95	25495.46
541.12	25647.59
541.29	25816.11
541.46	25645.25
541.62	25507.16
541.79	25504.82
541.96	25254.38
542.13	25799.73
542.30	25905.05
542.47	26092.29
542.63	26050.16
542.80	26047.82
542.97	26415.29
543.14	26188.25
543.31	26192.94
543.48	26324.01
543.64	26487.84
543.81	26394.22
543.98	26412.95
544.15	26218.68
544.32	26338.05
544.48	26567.42
544.65	26288.90
544.82	26700.83
544.99	26305.28
545.16	26675.09
545.32	26242.09
545.49	26757.00
545.66	26555.72
545.83	26698.49
546.00	26792.11
546.16	27190.00
546.33	26527.63
546.50	26249.11
546.67	27037.87
546.83	26611.89
547.00	26586.15
547.17	26946.59
547.34	26813.18
547.50	27058.93
547.67	27304.69
547.84	27136.17
548.00	26621.25
548.17	27129.15
548.34	26969.99
548.51	27562.15
548.67	26766.37
548.84	27157.24
549.01	27112.77
549.18	27147.87
549.34	27115.11
549.51	27047.23
549.68	27346.82
549.84	27103.40
550.01	27489.59
550.18	27372.57
550.34	27358.52
550.51	27417.04
550.68	27630.02
550.84	27534.06
551.01	27449.80
551.18	27302.35
551.34	27442.78
551.51	27498.95
551.68	27623.00
551.84	27482.57
552.01	27688.54
552.18	27711.94
552.34	27496.61
552.51	27946.00
552.68	27674.49
552.84	27725.99
553.01	27896.85
553.18	27545.76
553.34	27990.47
553.51	27721.30
553.67	27950.68
553.84	28367.29
554.01	27765.78
554.17	28030.26
554.34	27470.87
554.51	27772.80
554.67	28261.97
554.84	27875.78
555.00	28364.95
555.17	27866.42
555.33	28100.47
555.50	28070.04
555.67	28107.49
555.83	28079.41
556.00	28353.25
556.16	28198.77
556.33	28046.64
556.50	28072.39
556.66	28606.03
556.83	28222.18
556.99	28690.29
557.16	28414.10
557.32	28217.50
557.49	28287.71
557.65	28191.75
557.82	28409.42
557.98	28545.17
558.15	28205.80
558.32	28390.70
558.48	28254.95
558.65	28687.95
558.81	28383.68
558.98	28554.54
559.14	28404.74
559.31	28580.28
559.47	28325.16
559.64	28701.99
559.80	28854.12
559.97	28734.76
560.13	28606.03
560.30	28648.16
560.46	28659.86
560.63	28641.14
560.79	28748.80
560.96	28922.00
561.12	29015.62
561.29	28697.31
561.45	28914.98
561.61	28837.74
561.78	29102.22
561.94	28926.68
562.11	28912.64
562.27	28987.53
562.44	28542.83
562.60	28769.86
562.77	28954.77
562.93	28835.40
563.10	28980.51
563.26	29078.82
563.42	29123.29
563.59	28907.96
563.75	28992.22
563.92	29181.80
564.08	28929.02
564.24	29113.92
564.41	28376.66
564.57	29275.42
564.74	28896.25
564.90	29118.60
565.07	29301.17
565.23	29104.56
565.39	29092.86
565.56	28896.25
565.72	28776.89
565.88	28755.82
566.05	28760.50
566.21	29123.29
566.38	28943.06
566.54	29181.80
566.70	29237.97
566.87	29560.97
567.03	29385.43
567.19	29743.53
567.36	29769.27
567.52	29385.43
567.68	29198.18
567.85	29420.53
568.01	29696.72
568.17	29048.39
568.34	29366.70
568.50	29249.67
568.66	29516.50
568.83	29621.82
568.99	29132.65
569.15	29591.39
569.32	29228.61
569.48	28875.19
569.64	29333.93
569.81	29001.58
569.97	29254.36
570.13	29076.48
570.30	29614.80
570.46	29303.51
570.62	29600.76
570.78	29069.45
570.95	29184.14
571.11	29132.65
571.27	29469.69
571.43	29350.32
571.60	29619.48
571.76	29095.20
571.92	29694.38
572.09	30010.35
572.25	29820.77
572.41	29764.59
572.57	29823.11
572.74	29970.56
572.90	29404.15
573.06	29439.26
573.22	29490.75
573.38	29645.23
573.55	29586.71
573.71	29851.19
573.87	29731.83
574.03	29638.20
574.20	29429.90
574.36	29230.95
574.52	29682.67
574.68	29748.21
574.84	29530.54
575.01	29427.56
575.17	29708.42
575.33	29738.85
575.49	29347.98
575.65	29755.23
575.82	29752.89
575.98	29734.17
576.14	29741.19
576.30	29811.40
576.46	29516.50
576.62	29682.67
576.79	29329.25
576.95	29673.31
577.11	29685.01
577.27	29825.45
577.43	29628.84
577.59	29898.00
577.75	29635.86
577.92	29890.98
578.08	29619.48
578.24	29635.86
578.40	29441.60
578.56	29582.03
578.72	29813.74
578.88	29890.98
579.04	30043.12
579.21	29984.60
579.37	29916.73
579.53	29993.97
579.69	29809.06
579.85	29605.44
580.01	29387.77
580.17	29567.99
580.33	29724.80
580.49	29727.14
580.65	29909.71
580.82	29783.32
580.98	29879.28
581.14	29743.53
581.30	30000.99
581.46	29890.98
581.62	29823.11
581.78	29862.90
581.94	29928.43
582.10	29759.91
582.26	29677.99
582.42	29900.34
582.58	29921.41
582.74	29722.46
582.90	29795.02
583.06	29886.30
583.22	29853.53
583.38	29930.77
583.54	30192.91
583.70	29848.85
583.86	29778.64
584.02	29663.95
584.18	29977.58
584.34	29965.88
584.50	30155.46
584.66	30099.29
584.82	29881.62
584.98	29776.30
585.14	29729.48
585.30	29642.88
585.46	29860.55
585.62	29708.42
585.78	30174.19
585.94	29727.14
586.10	29942.47
586.26	29874.60
586.42	30164.82
586.58	30246.74
586.74	30263.13
586.90	30075.88
587.06	29937.79
587.22	29757.57
587.38	29790.34
587.54	30139.08
587.70	29837.15
587.86	30277.17
588.02	30405.90
588.18	30522.93
588.34	30148.44
588.49	30101.63
588.65	29937.79
588.81	29895.66
588.97	30352.07
589.13	29675.65
589.29	29818.42
589.45	29979.92
589.61	30497.18
589.77	30157.80
589.93	30356.75
590.08	30518.25
590.24	30272.49
590.40	30251.42
590.56	30251.42
590.72	29933.11
590.88	30061.84
591.04	30206.95
591.20	30628.25
591.35	30429.30
591.51	30824.86
591.67	30279.51
591.83	30527.61
591.99	30412.92
592.15	30108.65
592.31	30181.21
592.46	30118.01
592.62	30195.25
592.78	29977.58
592.94	30288.87
593.10	30164.82
593.26	30300.58
593.41	30429.30
593.57	30485.48
593.73	30438.67
593.89	30298.23
594.05	30431.65
594.20	30569.74
594.36	30134.40
594.52	30057.16
594.68	30426.96
594.84	30249.08
594.99	30426.96
595.15	30558.03
595.31	30581.44
595.47	30562.72
595.62	30785.07
595.78	30213.98
595.94	30232.70
596.10	30342.70
596.25	30391.86
596.41	30387.18
596.57	29923.75
596.73	30649.32
596.88	30331.00
597.04	30497.18
597.20	30586.12
597.36	30749.96
597.51	30373.13
597.67	30628.25
597.83	30508.88
597.99	30747.62
598.14	30249.08
598.30	30288.87
598.46	30366.11
598.61	30466.75
598.77	30167.16
598.93	30387.18
599.09	30724.21
599.24	30749.96
599.40	30597.82
599.56	30632.93
599.71	30457.39
599.87	30836.56
600.03	30541.65
600.18	30206.95
600.34	30040.78
600.50	30455.05
600.65	30232.70
600.81	30459.73
600.97	30682.08
601.12	30527.61
601.28	30574.42
601.44	30661.02
601.59	30738.26
601.75	30405.90
601.91	30644.63
602.06	30438.67
602.22	30377.81
602.37	30373.13
602.53	30298.23
602.69	30551.01
602.84	30607.19
603.00	30572.08
603.16	30712.51
603.31	30473.78
603.47	30646.97
603.62	30506.54
603.78	30485.48
603.94	30204.61
604.09	30579.10
604.25	30211.64
604.40	30569.74
604.56	30291.21
604.71	30740.60
604.87	30263.13
605.03	30328.66
605.18	30756.98
605.34	30319.30
605.49	30382.49
605.65	30764.00
605.80	30087.59
605.96	30167.16
606.12	30466.75
606.27	30492.50
606.43	29858.21
606.58	30771.02
606.74	30644.63
606.89	30197.59
607.05	30878.69
607.20	30448.03
607.36	30436.33
607.51	30625.91
607.67	30195.25
607.82	30094.61
607.98	30508.88
608.13	30211.64
608.29	30522.93
608.44	30410.58
608.60	30370.79
608.75	30242.06
608.91	30724.21
609.06	30059.50
609.22	30221.00
609.37	29855.87
609.53	30122.69
609.68	30239.72
609.84	29715.44
609.99	30326.32
610.15	30054.82
610.30	29963.54
610.46	29795.02
610.61	30352.07
610.76	30160.14
610.92	30295.89
611.07	30377.81
611.23	30354.41
611.38	29806.72
611.54	29986.94
611.69	29780.98
611.84	29666.29
612.00	30136.74
612.15	29832.47
612.31	29816.08
612.46	30181.21
612.62	30326.32
612.77	29902.68
612.92	30213.98
613.08	30099.29
613.23	29982.26
613.39	29455.64
613.54	29827.79
613.69	29776.30
613.85	29851.19
614.00	29874.60
614.15	29909.71
614.31	29572.67
614.46	30162.48
614.62	29750.55
614.77	30312.28
614.92	29825.45
615.08	29841.83
615.23	29921.41
615.38	29916.73
615.54	29706.08
615.69	29860.55
615.84	29898.00
616.00	29972.90
616.15	29455.64
616.30	29757.57
616.46	29954.18
616.61	29537.56
616.76	29776.30
616.92	29766.93
617.07	29804.38
617.22	29362.02
617.37	29628.84
617.53	29813.74
617.68	29846.51
617.83	29457.98
617.99	29387.77
618.14	29626.50
618.29	29624.16
618.45	29326.91
618.60	29230.95
618.75	29612.46
618.90	29624.16
619.06	29439.26
619.21	29336.27
619.36	29872.26
619.51	29364.36
619.67	29511.81
619.82	29282.44
619.97	29186.48
620.12	29170.10
620.28	29020.30
620.43	29200.52
620.58	29795.02
620.73	29748.21
620.89	29661.61
621.04	29460.32
621.19	29455.64
621.34	29502.45
621.49	28776.89
621.65	28945.41
621.80	29139.67
621.95	29029.66
622.10	29062.43
622.25	28924.34
622.41	29123.29
622.56	29322.23
622.71	29282.44
622.86	29347.98
623.01	29244.99
623.16	29223.93
623.32	28713.69
623.47	28790.93
623.62	29593.73
623.77	29142.01
623.92	29102.22
624.07	28606.03
624.23	28861.15
624.38	28804.97
624.53	28678.58
624.68	29221.59
624.83	29163.08
624.98	28879.87
625.13	29083.50
625.29	29237.97
625.44	28854.12
625.59	28809.65
625.74	28320.48
625.89	28723.05
626.04	28528.79
626.19	28730.08
626.34	28341.55
626.49	28463.25
626.65	28865.83
626.80	29006.26
626.95	28643.48
627.10	28830.72
627.25	28542.83
627.40	28514.75
627.55	28599.01
627.70	28573.26
627.85	28332.18
628.00	28109.83
628.15	28615.39
628.30	28149.62
628.45	28371.97
628.60	28423.47
628.76	28280.69
628.91	28500.70
629.06	28465.60
629.21	28070.04
629.36	28285.37
629.51	28484.32
629.66	28261.97
629.81	28144.94
629.96	28341.55
630.11	28126.22
630.26	28161.33
630.41	28020.89
630.56	27903.87
630.71	28404.74
630.86	28154.30
631.01	28245.58
631.16	28432.83
631.31	28182.39
631.46	28297.08
631.61	28407.08
631.76	28252.61
631.91	27889.82
632.06	27999.83
632.21	28081.75
632.36	27791.52
632.51	27576.19
632.66	28137.92
632.81	28238.56
632.96	27620.66
633.10	28386.02
633.25	28205.80
633.40	28128.56
633.55	27873.44
633.70	27674.49
633.85	27789.18
634.00	27639.39
634.15	27733.01
634.30	27426.40
634.45	27835.99
634.60	27658.11
634.75	27623.00
634.90	27641.73
635.05	28268.99
635.19	27498.95
635.34	27606.62
635.49	27653.43
635.64	27651.09
635.79	27775.14
635.94	27435.76
636.09	27414.69
636.24	27548.11
636.39	27651.09
636.53	27751.73
636.68	27325.75
636.83	27321.07
636.98	27683.86
637.13	27321.07
637.28	27463.85
637.43	27634.71
637.57	27501.29
637.72	27360.86
637.87	27253.20
638.02	27508.32
638.17	27222.77
638.32	27325.75
638.46	27185.32
638.61	27285.97
638.76	26799.13
638.91	27110.43
639.06	27229.79
639.20	27089.36
639.35	27391.29
639.50	27241.50
639.65	27449.80
639.80	27489.59
639.94	27014.46
640.09	27344.48
640.24	27220.43
640.39	27136.17
640.54	26897.44
640.68	26799.13
640.83	26923.18
640.98	26951.27
641.13	26897.44
641.27	26946.59
641.42	27005.10
641.57	26881.05
641.72	27035.53
641.86	26602.53
642.01	26651.68
642.16	26906.80
642.31	26265.49
642.45	26848.29
642.60	26565.08
642.75	26602.53
642.90	26485.50
643.04	26466.78
643.19	26759.34
643.34	26878.71
643.48	26759.34
643.63	26602.53
643.78	26869.35
643.93	26799.13
644.07	26691.47
644.22	26768.71
644.37	26471.46
644.51	26483.16
644.66	26668.06
644.81	26710.19
644.95	26452.73
645.10	26424.65
645.25	26263.15
645.39	26333.37
645.54	26422.31
645.69	26342.73
645.83	26555.72
645.98	26551.04
646.13	26686.79
646.27	26700.83
646.42	26279.54
646.57	26478.48
646.71	26457.42
646.86	26223.36
647.00	26230.38
647.15	26075.91
647.30	25862.92
647.44	26075.91
647.59	26157.83
647.74	26061.87
647.88	26031.44
648.03	26319.32
648.17	26321.66
648.32	26567.42
648.47	26246.77
648.61	26286.56
648.76	26576.78
648.90	26127.40
649.05	26171.87
649.20	25951.86
649.34	26160.17
649.49	25799.73
649.63	26015.05
649.78	25736.53
649.92	25965.90
650.07	26022.08
650.21	25874.62
650.36	25947.18
650.51	26118.04
650.65	25881.64
650.80	25937.82
650.94	26024.42
651.09	25717.81
651.23	25633.55
651.38	25654.61
651.52	25748.23
651.67	26108.68
651.81	25834.83
651.96	25837.17
652.10	26174.21
652.25	25853.56
652.39	26071.23
652.54	25769.30
652.68	25750.57
652.83	25532.90
652.97	25895.69
653.12	25715.47
653.26	25954.20
653.41	25710.78
653.55	25481.41
653.70	25500.14
653.84	25521.20
653.99	25525.88
654.13	25439.28
654.27	25486.09
654.42	25490.77
654.56	25483.75
654.71	25715.47
654.85	25549.29
655.00	25600.78
655.14	25366.73
655.29	25195.87
655.43	25626.53
655.57	25326.94
655.72	25467.37
655.86	25317.57
656.01	25521.20
656.15	25420.56
656.30	25055.43
656.44	25104.59
656.58	24856.49
656.73	25352.68
656.87	25408.86
657.01	24959.47
657.16	25195.87
657.30	25687.38
657.45	25074.16
657.59	24697.33
657.73	25205.23
657.88	25404.17
658.02	25032.03
658.16	25095.22
658.31	25418.22
658.45	25067.14
658.60	24793.29
658.74	24854.15
658.88	24861.17
659.03	24788.61
659.17	24683.29
659.31	24694.99
659.46	24683.29
659.60	24992.24
659.74	24599.03
659.89	24582.65
660.03	24390.72
660.17	24559.24
660.32	24531.15
660.46	24631.80
660.60	24510.09
660.74	24739.46
660.89	24493.71
661.03	24519.45
661.17	24582.65
661.32	24421.15
661.46	24538.18
661.60	24592.01
661.74	24772.23
661.89	24694.99
662.03	24507.75
662.17	24592.01
662.31	24327.53
662.46	24343.91
662.60	24151.99
662.74	24091.13
662.88	24016.24
663.03	23679.20
663.17	23814.95
663.31	23915.59
663.45	23758.78
663.60	23861.76
663.74	23885.17
663.88	24044.32
664.02	23845.38
664.17	23814.95
664.31	23644.09
664.45	23463.87
664.59	23866.44
664.73	23475.57
664.88	23957.72
665.02	23381.95
665.16	23398.34
665.30	23669.84
665.44	23573.88
665.59	23482.59
665.73	23192.37
665.87	23639.41
666.01	23625.37
666.15	23384.29
666.29	23248.54
666.44	23159.60
666.58	22916.19
666.72	23775.16
666.86	23040.23
667.00	23447.49
667.14	23232.16
667.28	22986.40
667.43	22883.42
667.57	23136.20
667.71	23035.55
667.85	22911.50
667.99	22541.70
668.13	22808.52
668.27	23019.17
668.41	22916.19
668.56	22719.58
668.70	23171.30
668.84	23073.00
668.98	22721.92
669.12	22689.15
669.26	23049.60
669.40	22541.70
669.54	22925.55
669.68	22356.80
669.82	22417.65
669.96	22284.24
670.10	22181.26
670.25	22347.44
670.39	22314.67
670.53	22012.74
670.67	21907.41
670.81	22155.51
670.95	21986.99
671.09	22228.07
671.23	22361.48
671.37	22457.44
671.51	22047.85
671.65	22134.45
671.79	22113.38
671.93	22192.96
672.07	21907.41
672.21	22104.02
672.35	21792.73
672.49	21570.38
672.63	21579.74
672.77	21523.57
672.91	21607.83
673.05	21743.58
673.19	21710.81
673.33	21493.14
673.47	21680.38
673.61	21495.48
673.75	21294.19
673.89	21394.84
674.03	21308.24
674.17	21626.55
674.31	21202.91
674.45	21092.91
674.59	21137.38
674.73	21268.45
674.87	21319.94
675.01	21048.44
675.15	20964.18
675.29	21128.02
675.43	20718.42
675.56	20889.28
675.70	21050.78
675.84	20835.45
675.98	20212.87
676.12	21062.48
676.26	20767.57
676.40	20933.75
676.54	20842.47
676.68	20507.77
676.82	20175.42
676.96	20587.35
677.10	20152.01
677.23	20627.14
677.37	19885.19
677.51	20222.23
677.65	20180.10
677.79	19733.06
677.93	19974.13
678.07	19913.28
678.21	20058.39
678.34	19791.57
678.48	19864.13
678.62	19641.78
678.76	19510.71
678.90	19421.77
679.04	19496.66
679.18	19321.12
679.31	19473.26
679.45	19110.47
679.59	19140.90
679.73	19049.62
679.87	19257.93
680.00	19176.01
680.14	19054.30
680.28	19197.07
680.42	19185.37
680.56	19138.56
680.70	19180.69
680.83	18838.97
680.97	19082.39
681.11	18918.55
681.25	18539.38
681.39	18801.52
681.52	18726.63
681.66	18728.97
681.80	18345.12
681.94	18389.59
682.07	18675.13
682.21	18349.80
682.35	18019.78
682.49	18113.41
682.62	18026.81
682.76	18176.60
682.90	17912.12
683.04	18008.08
683.17	18038.51
683.31	18047.87
683.45	18082.98
683.59	17888.71
683.72	17891.06
683.86	17902.76
684.00	17771.69
684.13	17781.05
684.27	17689.77
684.41	17692.11
684.55	17390.18
684.68	17207.62
684.82	16924.41
684.96	17050.80
685.09	17294.22
685.23	16889.31
685.37	17123.36
685.50	17298.90
685.64	16980.59
685.78	17064.85
685.91	17083.57
686.05	16727.81
686.19	16744.19
686.32	16891.65
686.46	16779.30
686.60	16432.90
686.73	16858.88
686.87	16561.63
687.01	16791.00
687.14	16458.65
687.28	16409.50
687.42	15948.41
687.55	16114.59
687.69	16006.92
687.82	15885.22
687.96	15936.71
688.10	16095.86
688.23	16035.01
688.37	16184.80
688.50	16030.33
688.64	15749.46
688.78	15934.37
688.91	15627.76
689.05	15690.95
689.18	15791.59
689.32	15183.06
689.46	15482.64
689.59	15316.47
689.73	15321.15
689.86	15410.09
690.00	15218.16
690.13	15108.16
690.27	15218.16
690.41	15260.29
690.54	15178.37
690.68	14883.47
690.81	15059.01
690.95	15166.67
691.08	15084.75
691.22	14810.91
691.35	14747.72
691.49	14778.14
691.62	14991.13
691.76	14630.69
691.89	14583.88
692.03	14281.95
692.16	14272.59
692.30	14342.80
692.43	14476.21
692.57	14679.84
692.70	14120.45
692.84	14052.58
692.97	13923.85
693.11	13982.36
693.24	14176.62
693.38	14310.04
693.51	14101.73
693.65	13947.25
693.78	13748.31
693.92	13844.27
694.05	13572.77
694.19	13998.74
694.32	13507.23
694.45	13537.66
694.59	13582.13
694.72	13467.44
694.86	13074.23
694.99	13242.75
695.13	13488.51
695.26	13062.53
695.39	13202.96
695.53	13104.66
695.66	13039.12
695.80	13071.89
695.93	13263.82
696.07	12828.48
696.20	12919.76
696.33	13099.98
696.47	12889.33
696.60	12968.91
696.73	12664.64
696.87	12678.68
697.00	12313.56
697.14	12786.35
697.27	12627.19
697.40	12376.75
697.54	12479.74
697.67	12273.77
697.80	12320.58
697.94	12255.04
698.07	12025.67
698.21	12142.70
698.34	12142.70
698.47	12182.49
698.61	12016.31
698.74	12042.06
698.87	11894.60
699.01	11859.49
699.14	11447.56
699.27	11939.07
699.40	11623.10
699.54	11658.21
699.67	11693.32
699.80	11602.04
699.94	11702.68
700.07	11501.39
700.20	11391.39
700.34	11246.27
700.47	11370.32
700.60	11042.65
700.73	11367.98
700.87	11222.87
701.00	11154.99
701.13	11047.33
701.26	11112.86
701.40	11398.41
701.53	11164.36
701.66	11140.95
701.79	10876.47
701.93	10855.40
702.06	10672.84
702.19	10675.18
702.32	10654.12
702.46	10597.95
702.59	10619.01
702.72	10387.30
702.85	10499.64
702.99	10340.49
703.12	10331.12
703.25	10441.13
703.38	10455.17
703.51	10492.62
703.65	10312.40
703.78	10317.08
703.91	10150.90
704.04	10232.82
704.17	10157.92
704.31	10101.75
704.44	9813.87
704.57	9980.04
704.70	9956.64
704.83	9776.42
704.96	9652.37
705.10	9750.67
705.23	9666.41
>>>>>End Processed Spectral Data<<<<<
