SpectraSuite Data File
++++++++++++++++++++++++++++++++++++
Date: Fri Oct 18 13:58:13 GMT-05:00 2013
User: bianchi
Dark Spectrum Present: No
Reference Spectrum Present: No
Number of Sampled Component Spectra: 1
Spectrometers: USB2+H05261
Integration Time (usec): 50000 (USB2+H05261)
Spectra Averaged: 1 (USB2+H05261)
Boxcar Smoothing: 0 (USB2+H05261)
Correct for Electrical Dark: No (USB2+H05261)
Strobe/Lamp Enabled: No (USB2+H05261)
Correct for Detector Non-linearity: No (USB2+H05261)
Correct for Stray Light: No (USB2+H05261)
Number of Pixels in Processed Spectrum: 2048
>>>>>Begin Processed Spectral Data<<<<<
365.73	21.06
365.92	21.06
366.12	21.06
366.32	0.00
366.52	0.00
366.72	0.00
366.91	0.00
367.11	0.00
367.31	0.00
367.51	0.00
367.70	0.00
367.90	0.00
368.10	0.00
368.30	0.00
368.49	0.00
368.69	0.00
368.89	0.00
369.09	0.00
369.28	0.00
369.48	0.00
369.68	0.00
369.87	0.00
370.07	0.00
370.27	0.00
370.47	25.75
370.66	88.94
370.86	35.11
371.06	126.39
371.25	147.45
371.45	154.48
371.65	110.01
371.84	168.52
372.04	135.75
372.24	180.22
372.44	161.50
372.63	180.22
372.83	205.97
373.03	187.24
373.22	241.08
373.42	163.84
373.62	170.86
373.81	163.84
374.01	236.39
374.21	255.12
374.40	250.44
374.60	224.69
374.79	231.71
374.99	285.55
375.19	304.27
375.38	201.29
375.58	266.82
375.78	238.73
375.97	250.44
376.17	234.05
376.37	318.31
376.56	313.63
376.76	189.58
376.95	222.35
377.15	294.91
377.35	259.80
377.54	304.27
377.74	266.82
377.93	236.39
378.13	292.57
378.33	238.73
378.52	294.91
378.72	273.84
378.91	271.50
379.11	308.95
379.31	292.57
379.50	290.23
379.70	269.16
379.89	334.70
380.09	322.99
380.28	276.18
380.48	278.52
380.68	290.23
380.87	404.91
381.07	327.68
381.26	362.78
381.46	351.08
381.65	344.06
381.85	339.38
382.04	313.63
382.24	327.68
382.43	285.55
382.63	330.02
382.83	227.03
383.02	409.59
383.22	395.55
383.41	367.46
383.61	367.46
383.80	341.72
384.00	365.12
384.19	346.40
384.39	332.36
384.58	278.52
384.78	451.72
384.97	482.15
385.17	425.98
385.36	409.59
385.56	421.30
385.75	437.68
385.95	341.72
386.14	433.00
386.34	379.17
386.53	486.83
386.72	400.23
386.92	372.15
387.11	425.98
387.31	465.77
387.50	444.70
387.70	442.36
387.89	414.27
388.09	507.90
388.28	449.38
388.48	407.25
388.67	433.00
388.86	416.62
389.06	425.98
389.25	463.43
389.45	418.96
389.64	479.81
389.84	456.40
390.03	535.98
390.22	505.56
390.42	538.32
390.61	449.38
390.81	596.84
391.00	528.96
391.19	578.11
391.39	594.50
391.58	475.13
391.78	472.79
391.97	510.24
392.16	468.11
392.36	550.03
392.55	552.37
392.75	507.90
392.94	601.52
393.13	517.26
393.33	557.05
393.52	528.96
393.71	564.07
393.91	554.71
394.10	561.73
394.29	554.71
394.49	559.39
394.68	706.84
394.88	573.43
395.07	580.45
395.26	737.27
395.46	629.60
395.65	645.99
395.84	552.37
396.04	725.57
396.23	608.54
396.42	676.41
396.62	748.97
396.81	643.65
397.00	606.20
397.19	603.86
397.39	681.10
397.58	685.78
397.77	636.63
397.97	744.29
398.16	681.10
398.35	723.23
398.55	706.84
398.74	685.78
398.93	812.17
399.12	706.84
399.32	638.97
399.51	800.46
399.70	702.16
399.90	819.19
400.09	807.48
400.28	821.53
400.47	798.12
400.67	800.46
400.86	807.48
401.05	856.64
401.24	863.66
401.44	924.51
401.63	842.59
401.82	833.23
402.01	847.27
402.21	816.85
402.40	861.32
402.59	763.01
402.78	793.44
402.97	980.68
403.17	903.45
403.36	919.83
403.55	863.66
403.74	823.87
403.93	940.90
404.13	990.05
404.32	936.21
404.51	868.34
404.70	924.51
404.89	947.92
405.09	992.39
405.28	945.58
405.47	983.02
405.66	954.94
405.85	978.34
406.05	983.02
406.24	976.00
406.43	971.32
406.62	1039.20
406.81	1018.13
407.00	1062.60
407.20	1032.18
407.39	954.94
407.58	1097.71
407.77	1057.92
407.96	1097.71
408.15	1172.61
408.34	1015.79
408.54	1188.99
408.73	1156.22
408.92	1132.82
409.11	1242.82
409.30	1135.16
409.49	1095.37
409.68	1153.88
409.87	1142.18
410.07	1167.93
410.26	1149.20
410.45	1207.72
410.64	1247.51
410.83	1247.51
411.02	1193.67
411.21	1294.32
411.40	1233.46
411.59	1228.78
411.78	1357.51
411.98	1371.55
412.17	1376.24
412.36	1280.27
412.55	1350.49
412.74	1294.32
412.93	1376.24
413.12	1376.24
413.31	1437.09
413.50	1446.45
413.69	1495.60
413.88	1504.96
414.07	1469.86
414.26	1390.28
414.45	1502.62
414.64	1437.09
414.83	1413.68
415.02	1467.52
415.22	1479.22
415.41	1565.82
415.60	1654.76
415.79	1558.80
415.98	1621.99
416.17	1565.82
416.36	1650.08
416.55	1584.54
416.74	1551.78
416.93	1584.54
417.12	1692.21
417.31	1692.21
417.50	1629.01
417.69	1799.87
417.88	1792.85
418.07	1783.49
418.26	1813.92
418.45	1792.85
418.64	1870.09
418.83	1849.02
419.02	1664.12
419.21	1905.20
419.39	1877.11
419.58	1764.76
419.77	1837.32
419.96	1914.56
420.15	1870.09
420.34	1916.90
420.53	1898.17
420.72	1933.28
420.91	1914.56
421.10	1984.77
421.29	2005.84
421.48	1907.54
421.67	1916.90
421.86	1870.09
422.05	1982.43
422.24	2003.50
422.43	1980.09
422.61	1984.77
422.80	1994.14
422.99	2073.71
423.18	1975.41
423.37	2139.25
423.56	2155.63
423.75	1998.82
423.94	2108.82
424.13	1900.52
424.32	1942.64
424.50	2033.93
424.69	2134.57
424.88	2099.46
425.07	2045.63
425.26	2083.08
425.45	2125.21
425.64	2012.86
425.83	2090.10
426.01	2069.03
426.20	2080.74
426.39	2047.97
426.58	2045.63
426.77	2033.93
426.96	2066.69
427.15	2106.48
427.33	2150.95
427.52	2066.69
427.71	2066.69
427.90	2253.94
428.09	2157.97
428.28	2181.38
428.46	2298.41
428.65	2239.89
428.84	2277.34
429.03	2230.53
429.22	2202.44
429.40	2307.77
429.59	2363.94
429.78	2221.17
429.97	2176.70
430.16	2345.22
430.34	2223.51
430.53	2429.48
430.72	2333.51
430.91	2270.32
431.10	2270.32
431.28	2328.83
431.47	2429.48
431.66	2392.03
431.85	2359.26
432.03	2399.05
432.22	2495.01
432.41	2518.42
432.60	2466.92
432.79	2422.45
432.97	2462.24
433.16	2520.76
433.35	2459.90
433.54	2534.80
433.72	2609.70
433.91	2663.53
434.10	2443.52
434.28	2513.74
434.47	2548.84
434.66	2574.59
434.85	2605.02
435.03	2696.30
435.22	2647.15
435.41	2736.09
435.59	2602.68
435.78	2782.90
435.97	2649.49
436.16	2764.17
436.34	2647.15
436.53	2752.47
436.72	2740.77
436.90	2686.94
437.09	2836.73
437.28	2705.66
437.46	2785.24
437.65	2710.34
437.84	2806.30
438.02	2827.37
438.21	2715.02
438.40	2843.75
438.58	2895.24
438.77	2913.97
438.96	2883.54
439.14	2888.22
439.33	2977.16
439.52	2953.76
439.70	2939.71
439.89	3103.55
440.08	3145.68
440.26	3091.85
440.45	3012.27
440.63	3178.45
440.82	3035.67
441.01	3138.66
441.19	3215.90
441.38	3318.88
441.57	3192.49
441.75	3136.32
441.94	3358.67
442.12	3335.26
442.31	3407.82
442.50	3330.58
442.68	3445.27
442.87	3342.28
443.05	3454.63
443.24	3428.88
443.43	3541.23
443.61	3424.20
443.80	3550.59
443.98	3382.07
444.17	3363.35
444.35	3344.63
444.54	3487.40
444.73	3602.08
444.91	3475.70
445.10	3447.61
445.28	3618.47
445.47	3471.01
445.65	3557.61
445.84	3510.80
446.02	3555.27
446.21	3421.86
446.39	3424.20
446.58	3562.30
446.77	3431.23
446.95	3485.06
447.14	3543.57
447.32	3564.64
447.51	3644.21
447.69	3531.87
447.88	3611.45
448.06	3581.02
448.25	3691.02
448.43	3557.61
448.62	3758.90
448.80	3524.85
448.99	3693.37
449.17	3669.96
449.36	3529.53
449.54	3801.03
449.73	3871.25
449.91	3606.77
450.10	3681.66
450.28	3770.60
450.46	3784.65
450.65	3887.63
450.83	3735.50
451.02	3667.62
451.20	3803.37
451.39	3817.41
451.57	3782.31
451.76	3819.75
451.94	3705.07
452.13	3873.59
452.31	3915.72
452.49	3896.99
452.68	3915.72
452.86	3995.29
453.05	3920.40
453.23	4074.87
453.42	3817.41
453.60	3915.72
453.78	3894.65
453.97	3981.25
454.15	3997.64
454.34	3990.61
454.52	4142.75
454.70	4037.42
454.89	4126.36
455.07	4252.75
455.26	4058.49
455.44	4191.90
455.62	4124.02
455.81	4088.92
455.99	4173.18
456.17	4248.07
456.36	4222.33
456.54	4248.07
456.73	4194.24
456.91	4369.78
457.09	4344.03
457.28	4512.55
457.46	4287.86
457.64	4489.15
457.83	4393.19
458.01	4407.23
458.19	4351.06
458.38	4512.55
458.56	4568.73
458.74	4444.68
458.93	4542.98
459.11	4575.75
459.29	4369.78
459.48	4482.13
459.66	4650.64
459.84	4521.92
460.03	4657.67
460.21	4489.15
460.39	4557.02
460.57	4624.90
460.76	4856.61
460.94	4793.42
461.12	4643.62
461.31	4699.80
461.49	4564.04
461.67	4617.88
461.85	4739.58
462.04	4812.14
462.22	5142.16
462.40	4833.21
462.59	4711.50
462.77	4713.84
462.95	4781.71
463.13	4800.44
463.32	4877.68
463.50	4912.78
463.68	4912.78
463.86	4929.17
464.05	4987.68
464.23	5020.45
464.41	4915.12
464.59	4952.57
464.78	5020.45
464.96	4692.77
465.14	4882.36
465.32	4926.83
465.50	5193.65
465.69	5139.82
465.87	5046.20
466.05	5160.88
466.23	5085.98
466.41	5172.58
466.60	5242.80
466.78	5153.86
466.96	5081.30
467.14	5263.86
467.32	5289.61
467.51	5289.61
467.69	5184.29
467.87	5277.91
468.05	5282.59
468.23	5137.48
468.41	5146.84
468.60	5261.52
468.78	5355.15
468.96	5240.46
469.14	5500.26
469.32	5448.77
469.50	5261.52
469.69	5504.94
469.87	5469.83
470.05	5628.99
470.23	5404.30
470.41	5486.22
470.59	5593.88
470.77	5638.35
470.95	5727.29
471.14	5624.31
471.32	5479.19
471.50	5549.41
471.68	5591.54
471.86	5612.60
472.04	5715.59
472.22	5849.00
472.40	5778.78
472.58	5797.51
472.77	5743.67
472.95	5954.32
473.13	5930.92
473.31	6099.44
473.49	5923.90
473.67	5914.53
473.85	5870.06
474.03	6043.26
474.21	6106.46
474.39	6174.33
474.57	6139.23
474.75	6253.91
474.93	6265.61
475.12	6335.83
475.30	6179.01
475.48	6279.66
475.66	6487.96
475.84	6239.87
476.02	6544.14
476.20	6480.94
476.38	6558.18
476.56	6745.42
476.74	6569.88
476.92	6565.20
477.10	6637.76
477.28	6876.49
477.46	6616.69
477.64	6794.58
477.82	6909.26
478.00	7183.10
478.18	7267.36
478.36	7089.48
478.54	7150.34
478.72	7096.50
478.90	7206.51
479.08	7435.88
479.26	7435.88
479.44	7365.67
479.62	7480.35
479.80	7583.34
479.98	7473.33
480.16	7599.72
480.34	7676.96
480.52	7873.56
480.70	7651.21
480.88	7793.98
481.06	7885.26
481.24	7985.91
481.41	7981.23
481.59	8184.85
481.77	8121.66
481.95	8212.94
482.13	8212.94
482.31	8262.09
482.49	8414.23
482.67	8500.83
482.85	8526.57
483.03	8734.88
483.21	8746.58
483.39	8552.32
483.57	8926.80
483.74	8947.87
483.92	8898.72
484.10	8767.65
484.28	9179.58
484.46	9064.89
484.64	9390.23
484.82	9228.73
485.00	9291.93
485.18	9385.55
485.35	9490.87
485.53	9666.41
485.71	9617.26
485.89	9874.72
486.07	9853.66
486.25	9584.49
486.43	9781.10
486.61	9858.34
486.78	9989.41
486.96	10181.33
487.14	10260.91
487.32	10310.06
487.50	10335.81
487.68	10518.37
487.85	10721.99
488.03	10544.11
488.21	10778.17
488.39	11063.71
488.57	10967.75
488.75	10846.04
488.92	11035.63
489.10	10916.26
489.28	11260.32
489.46	11108.18
489.64	11398.41
489.81	11377.34
489.99	11421.81
490.17	11569.27
490.35	11604.38
490.53	11571.61
490.70	12121.63
490.88	11927.37
491.06	11889.92
491.24	12032.69
491.41	12091.21
491.59	12287.81
491.77	12360.37
491.95	12423.56
492.13	12463.35
492.30	12376.75
492.48	12549.95
492.66	12414.20
492.84	12531.23
493.01	12901.03
493.19	12877.63
493.37	13050.83
493.54	13006.36
493.72	13200.62
493.90	13144.45
494.08	13282.54
494.25	13352.76
494.43	13509.57
494.61	13383.18
494.79	13867.67
494.96	13507.23
495.14	13874.70
495.32	13987.04
495.49	13748.31
495.67	13687.45
495.85	13961.30
496.02	14232.80
496.20	14307.69
496.38	14434.08
496.55	14366.21
496.73	14235.14
496.91	14331.10
497.09	14359.19
497.26	14710.27
497.44	14532.39
497.62	14757.08
497.79	15133.90
497.97	14679.84
498.14	14916.23
498.32	14953.68
498.50	14991.13
498.67	15276.68
498.85	14953.68
499.03	15222.84
499.20	15461.58
499.38	15246.25
499.56	15389.02
499.73	15470.94
499.91	15735.42
500.08	15709.68
500.26	15669.89
500.44	15660.52
500.61	16058.42
500.79	15765.85
500.97	15899.26
501.14	16044.37
501.32	16018.63
501.49	16266.72
501.67	16212.89
501.84	16343.96
502.02	16376.73
502.20	16365.03
502.37	16643.55
502.55	16411.84
502.72	16451.63
502.90	16552.27
503.07	16465.67
503.25	16751.21
503.43	16648.23
503.60	16760.58
503.78	16727.81
503.95	16982.93
504.13	16685.68
504.30	16968.88
504.48	16994.63
504.65	16992.29
504.83	17305.92
505.01	17418.27
505.18	17357.41
505.36	17408.90
505.53	17392.52
505.71	17174.85
505.88	17359.75
506.06	17593.81
506.23	17584.44
506.41	17816.16
506.58	17649.98
506.76	17633.60
506.93	17530.61
507.11	17809.14
507.28	18010.42
507.46	17713.17
507.63	17987.02
507.81	18242.14
507.98	18066.60
508.16	18160.22
508.33	18073.62
508.50	18139.15
508.68	18515.98
508.85	18530.02
509.03	18445.76
509.20	18403.63
509.38	18874.08
509.55	18853.02
509.73	18565.13
509.90	19026.21
510.08	18963.02
510.25	18934.93
510.42	18761.73
510.60	19311.76
510.77	19026.21
510.95	18895.14
511.12	19058.98
511.30	18941.96
511.47	19136.22
511.64	19047.28
511.82	19159.63
511.99	19367.93
512.17	19494.32
512.34	19349.21
512.51	19239.20
512.69	19585.60
512.86	19690.93
513.04	19800.93
513.21	19723.69
513.38	19850.08
513.56	19852.42
513.73	19545.81
513.90	20252.66
514.08	20219.89
514.25	19850.08
514.43	20109.88
514.60	19850.08
514.77	20002.22
514.95	20393.09
515.12	20348.62
515.29	20315.85
515.47	20369.68
515.64	20362.66
515.81	20393.09
515.99	20411.81
516.16	20751.19
516.33	20442.24
516.51	20950.14
516.68	20465.64
516.85	20585.01
517.03	20655.23
517.20	21099.93
517.37	20957.16
517.54	20992.26
517.72	21146.74
517.89	20788.64
518.06	20938.43
518.24	20954.82
518.41	21057.80
518.58	21181.85
518.75	21195.89
518.93	21610.17
519.10	21144.40
519.27	21699.11
519.45	21256.75
519.62	21544.63
519.79	21448.67
519.96	21710.81
520.14	21862.94
520.31	21680.38
520.48	21647.61
520.65	21916.78
520.83	21961.25
521.00	21806.77
521.17	22073.59
521.34	22019.76
521.52	21961.25
521.69	21745.92
521.86	22134.45
522.03	22204.66
522.20	22490.21
522.38	22448.08
522.55	22387.22
522.72	22251.47
522.89	22370.84
523.07	22309.99
523.24	22567.45
523.41	22389.56
523.58	22263.18
523.75	22485.53
523.92	22649.36
524.10	22284.24
524.27	22904.48
524.44	22733.62
524.61	22897.46
524.78	22829.59
524.96	23166.62
525.13	22848.31
525.30	23087.04
525.47	23080.02
525.64	23236.84
525.81	23456.85
525.98	23190.03
526.16	23381.95
526.33	23297.69
526.50	23309.40
526.67	23201.73
526.84	23442.81
527.01	23384.29
527.18	23356.21
527.36	23585.58
527.53	23604.30
527.70	23328.12
527.87	23779.84
528.04	23630.05
528.21	23728.35
528.38	23608.98
528.55	23655.79
528.72	23545.79
528.89	24182.42
529.07	23934.32
529.24	23821.97
529.41	24049.00
529.58	23978.79
529.75	24135.60
529.92	24056.03
530.09	23974.11
530.26	24163.69
530.43	24503.07
530.60	23960.06
530.77	24091.13
530.94	24355.61
531.11	24166.03
531.28	24060.71
531.46	24212.84
531.63	24577.97
531.80	24491.37
531.97	24531.15
532.14	24570.94
532.31	24269.01
532.48	24741.80
532.65	24772.23
532.82	24107.52
532.99	24748.82
533.16	24596.69
533.33	24931.39
533.50	25116.29
533.67	25219.27
533.84	24491.37
534.01	24709.04
534.18	24971.18
534.35	25090.54
534.52	25006.28
534.69	24886.92
534.86	25212.25
535.03	24893.94
535.20	25223.95
535.37	25282.47
535.54	25345.66
535.71	25439.28
535.88	25448.64
536.05	25088.20
536.22	25401.83
536.38	25228.63
536.55	25465.03
536.72	25399.49
536.89	25378.43
537.06	25216.93
537.23	25724.83
537.40	25633.55
537.57	25282.47
537.74	25741.21
537.91	25984.63
538.08	25848.88
538.25	25530.56
538.42	25741.21
538.59	25846.54
538.75	25773.98
538.92	25696.74
539.09	26235.06
539.26	26244.43
539.43	26132.08
539.60	26373.16
539.77	25841.85
539.94	26267.83
540.11	25940.16
540.28	25888.67
540.44	25888.67
540.61	26202.30
540.78	26113.36
540.95	26223.36
541.12	26242.09
541.29	26235.06
541.46	26202.30
541.62	26012.71
541.79	26260.81
541.96	25820.79
542.13	26305.28
542.30	26639.98
542.47	26771.05
542.63	26345.07
542.80	26757.00
542.97	27126.81
543.14	26773.39
543.31	26810.84
543.48	27229.79
543.64	27049.57
543.81	27239.15
543.98	27187.66
544.15	27346.82
544.32	27091.70
544.48	27145.53
544.65	27218.09
544.82	27449.80
544.99	27215.75
545.16	27257.88
545.32	27173.62
545.49	27234.47
545.66	27700.24
545.83	27520.02
546.00	27360.86
546.16	27145.53
546.33	27168.94
546.50	26944.25
546.67	27255.54
546.83	27199.37
547.00	27295.33
547.17	27517.68
547.34	27468.53
547.50	27655.77
547.67	27850.03
547.84	27267.24
548.00	27875.78
548.17	27716.62
548.34	27393.63
548.51	27908.55
548.67	27915.57
548.84	28025.57
549.01	27878.12
549.18	27606.62
549.34	27740.03
549.51	27946.00
549.68	28002.17
549.84	27573.85
550.01	28020.89
550.18	27960.04
550.34	27630.02
550.51	28173.03
550.68	28306.44
550.84	27859.40
551.01	27873.44
551.18	28051.32
551.34	27756.41
551.51	28114.52
551.68	28063.02
551.84	28133.24
552.01	28243.24
552.18	28395.38
552.34	28458.57
552.51	28503.04
552.68	28496.02
552.84	28212.82
553.01	28645.82
553.18	28554.54
553.34	28336.87
553.51	28526.45
553.67	28608.37
553.84	28596.67
554.01	28816.68
554.17	28311.12
554.34	28914.98
554.51	27997.49
554.67	28374.31
554.84	28718.37
555.00	28739.44
555.17	28657.52
555.33	28811.99
555.50	28744.12
555.67	28893.91
555.83	28690.29
556.00	28383.68
556.16	28809.65
556.33	28978.17
556.50	28912.64
556.66	28795.61
556.83	29151.37
556.99	28968.81
557.16	29214.57
557.32	29303.51
557.49	29029.66
557.65	29261.38
557.82	28732.42
557.98	29071.79
558.15	29022.64
558.32	29055.41
558.48	29027.32
558.65	29085.84
558.81	29116.26
558.98	29193.50
559.14	29134.99
559.31	29310.53
559.47	29369.04
559.64	29266.06
559.80	29106.90
559.97	29713.10
560.13	29221.59
560.30	29675.65
560.46	29338.62
560.63	29469.69
560.79	29139.67
560.96	29610.12
561.12	29296.49
561.29	29338.62
561.45	29457.98
561.61	29252.02
561.78	29596.07
561.94	29553.94
562.11	29610.12
562.27	29317.55
562.44	29450.96
562.60	29378.40
562.77	29832.47
562.93	29724.80
563.10	29692.04
563.26	29383.09
563.42	30026.73
563.59	29745.87
563.75	29848.85
563.92	30040.78
564.08	29750.55
564.24	29951.84
564.41	29565.65
564.57	29523.52
564.74	29928.43
564.90	29626.50
565.07	29696.72
565.23	29802.04
565.39	29827.79
565.56	29923.75
565.72	29680.33
565.88	29624.16
566.05	29572.67
566.21	29701.40
566.38	30052.48
566.54	29612.46
566.70	30043.12
566.87	30326.32
567.03	30157.80
567.19	30441.01
567.36	30185.89
567.52	29692.04
567.68	29947.15
567.85	29965.88
568.01	30043.12
568.17	30164.82
568.34	30064.18
568.50	30293.55
568.66	29820.77
568.83	30354.41
568.99	29919.07
569.15	29841.83
569.32	30115.67
569.48	29986.94
569.64	30064.18
569.81	30471.43
569.97	29965.88
570.13	30080.56
570.30	29806.72
570.46	30281.85
570.62	29919.07
570.78	29722.46
570.95	30068.86
571.11	30162.48
571.27	30019.71
571.43	30125.04
571.60	30036.09
571.76	30143.76
571.92	30235.04
572.09	30457.39
572.25	30520.59
572.41	30143.76
572.57	29874.60
572.74	30277.17
572.90	30185.89
573.06	30326.32
573.22	29919.07
573.38	30314.62
573.55	30157.80
573.71	30433.99
573.87	30504.20
574.03	30529.95
574.20	30045.46
574.36	29958.86
574.52	30263.13
574.68	30181.21
574.84	30185.89
575.01	30433.99
575.17	30312.28
575.33	30286.53
575.49	30237.38
575.65	30471.43
575.82	30333.34
575.98	30471.43
576.14	30335.68
576.30	30684.42
576.46	30443.35
576.62	29933.11
576.79	30298.23
576.95	30654.00
577.11	30457.39
577.27	30909.11
577.43	30431.65
577.59	30284.19
577.75	30651.66
577.92	30471.43
578.08	30181.21
578.24	30199.93
578.40	30405.90
578.56	30363.77
578.72	30490.16
578.88	30927.84
579.04	30443.35
579.21	30459.73
579.37	30621.23
579.53	30506.54
579.69	30349.73
579.85	30251.42
580.01	30319.30
580.17	30181.21
580.33	30270.15
580.49	30661.02
580.65	30754.64
580.82	30522.93
580.98	30436.33
581.14	30731.23
581.30	30705.49
581.46	30314.62
581.62	30515.90
581.78	30555.69
581.94	30485.48
582.10	30424.62
582.26	30216.32
582.42	30665.70
582.58	30534.63
582.74	30522.93
582.90	30756.98
583.06	30693.79
583.22	30801.45
583.38	30448.03
583.54	30466.75
583.70	30167.16
583.86	30766.34
584.02	30934.86
584.18	30986.35
584.34	30614.21
584.50	30740.60
584.66	30728.89
584.82	30668.04
584.98	30459.73
585.14	30707.83
585.30	30349.73
585.46	30593.14
585.62	30478.46
585.78	30590.80
585.94	30536.97
586.10	30962.95
586.26	30497.18
586.42	30899.75
586.58	30740.60
586.74	30595.48
586.90	30684.42
587.06	30628.25
587.22	30768.68
587.38	30370.79
587.54	30923.16
587.70	30733.57
587.86	30724.21
588.02	30787.41
588.18	31236.79
588.34	30689.10
588.49	30836.56
588.65	30761.66
588.81	31056.57
588.97	30333.34
589.13	30766.34
589.29	30955.93
589.45	31152.53
589.61	30728.89
589.77	30988.69
589.93	30955.93
590.08	31372.54
590.24	31117.42
590.40	31079.97
590.56	30836.56
590.72	31108.06
590.88	30490.16
591.04	30890.39
591.20	31627.66
591.35	31260.20
591.51	31386.58
591.67	31527.02
591.83	31173.60
591.99	30852.94
592.15	30768.68
592.31	31227.43
592.46	31035.50
592.62	31054.23
592.78	30855.28
592.94	31012.10
593.10	31115.08
593.26	31164.23
593.41	31037.84
593.57	31360.84
593.73	31131.47
593.89	31222.75
594.05	30930.18
594.20	31257.85
594.36	31124.44
594.52	30958.27
594.68	31117.42
594.84	30953.58
594.99	31012.10
595.15	31466.16
595.31	31218.07
595.47	31211.04
595.62	31257.85
595.78	30967.63
595.94	30827.20
596.10	31335.09
596.25	30813.15
596.41	30778.04
596.57	30658.68
596.73	31318.71
596.88	31323.39
597.04	31136.15
597.20	31740.00
597.36	31232.11
597.51	31428.71
597.67	31136.15
597.83	31365.52
597.99	31407.65
598.14	31374.88
598.30	30941.88
598.46	31414.67
598.61	31838.31
598.77	30686.76
598.93	31133.81
599.09	31419.35
599.24	31337.43
599.40	31206.36
599.56	31182.96
599.71	31171.25
599.87	31173.60
600.03	31225.09
600.18	31316.37
600.34	31295.30
600.50	31407.65
600.65	31405.31
600.81	31192.32
600.97	31407.65
601.12	31417.01
601.28	31587.87
601.44	31491.91
601.59	31342.11
601.75	31117.42
601.91	31332.75
602.06	31299.98
602.22	31068.27
602.37	31187.64
602.53	31047.21
602.69	31414.67
602.84	31473.18
603.00	31360.84
603.16	31229.77
603.31	31264.88
603.47	31353.82
603.62	31180.62
603.78	31538.72
603.94	31047.21
604.09	30855.28
604.25	31325.73
604.40	31131.47
604.56	31349.14
604.71	31353.82
604.87	31283.60
605.03	31182.96
605.18	31491.91
605.34	31112.74
605.49	30986.35
605.65	31335.09
605.80	31180.62
605.96	31330.41
606.12	31007.42
606.27	31391.26
606.43	31117.42
606.58	31409.99
606.74	31171.25
606.89	31758.73
607.05	31201.68
607.20	31433.39
607.36	31180.62
607.51	31215.72
607.67	30799.11
607.82	31131.47
607.98	31044.87
608.13	31143.17
608.29	31180.62
608.44	31051.89
608.60	31168.91
608.75	31349.14
608.91	31262.54
609.06	30995.71
609.22	31110.40
609.37	31002.74
609.53	30675.06
609.68	30803.79
609.84	30827.20
609.99	31094.02
610.15	30717.19
610.30	30789.75
610.46	31131.47
610.61	30745.28
610.76	31236.79
610.92	31028.48
611.07	30881.03
611.23	30845.92
611.38	30829.54
611.54	30714.85
611.69	30927.84
611.84	30637.61
612.00	30719.53
612.15	30581.44
612.31	30967.63
612.46	30724.21
612.62	30639.95
612.77	31101.04
612.92	30745.28
613.08	30579.10
613.23	30806.13
613.39	30520.59
613.54	30754.64
613.69	30941.88
613.85	30654.00
614.00	30824.86
614.15	30649.32
614.31	30448.03
614.46	30787.41
614.62	30518.25
614.77	30775.70
614.92	30756.98
615.08	30651.66
615.23	30955.93
615.38	30375.47
615.54	29963.54
615.69	30312.28
615.84	30607.19
616.00	30356.75
616.15	30511.22
616.30	30579.10
616.46	30822.51
616.61	30443.35
616.76	30998.06
616.92	30766.34
617.07	30199.93
617.22	30232.70
617.37	30438.67
617.53	30593.14
617.68	30312.28
617.83	30033.75
617.99	30192.91
618.14	30368.45
618.29	30359.09
618.45	30429.30
618.60	30621.23
618.75	30328.66
618.90	30050.14
619.06	30204.61
619.21	30522.93
619.36	29977.58
619.51	30092.27
619.67	30129.72
619.82	29977.58
619.97	30082.91
620.12	30059.50
620.28	30174.19
620.43	30211.64
620.58	30401.22
620.73	30614.21
620.89	30148.44
621.04	30115.67
621.19	30258.45
621.34	30183.55
621.49	30061.84
621.65	30199.93
621.80	29933.11
621.95	29642.88
622.10	29717.78
622.25	29776.30
622.41	29364.36
622.56	29713.10
622.71	29937.79
622.86	30225.68
623.01	29640.54
623.16	29886.30
623.32	29663.95
623.47	29881.62
623.62	29869.92
623.77	29954.18
623.92	29956.52
624.07	29764.59
624.23	29790.34
624.38	30192.91
624.53	29780.98
624.68	29984.60
624.83	29865.24
624.98	29867.58
625.13	29661.61
625.29	29888.64
625.44	29516.50
625.59	29635.86
625.74	29280.10
625.89	29287.12
626.04	29352.66
626.19	29188.82
626.34	29252.02
626.49	29149.03
626.65	29212.23
626.80	29989.28
626.95	29139.67
627.10	28886.89
627.25	29284.78
627.40	29373.72
627.55	28868.17
627.70	28870.51
627.85	29111.58
628.00	29202.86
628.15	29062.43
628.30	29191.16
628.45	28980.51
628.60	29064.77
628.76	29453.30
628.91	29142.01
629.06	29003.92
629.21	29408.83
629.36	29088.18
629.51	29048.39
629.66	29139.67
629.81	28985.19
629.96	28833.06
630.11	29020.30
630.26	28720.71
630.41	28734.76
630.56	28891.57
630.71	28744.12
630.86	29111.58
631.01	29134.99
631.16	29127.97
631.31	28804.97
631.46	28844.76
631.61	29069.45
631.76	28474.96
631.91	28793.27
632.06	28549.85
632.21	28811.99
632.36	28699.65
632.51	28133.24
632.66	28355.59
632.81	28868.17
632.96	28994.56
633.10	28978.17
633.25	28587.30
633.40	28418.78
633.55	28716.03
633.70	28498.36
633.85	28437.51
634.00	28257.29
634.15	28381.34
634.30	28379.00
634.45	28425.81
634.60	28414.10
634.75	28390.70
634.90	28444.53
635.05	28617.73
635.19	28479.64
635.34	28500.70
635.49	28627.09
635.64	28458.57
635.79	28297.08
635.94	28023.23
636.09	28526.45
636.24	28540.49
636.39	28350.91
636.53	28325.16
636.68	28135.58
636.83	28257.29
636.98	28334.53
637.13	28098.13
637.28	28374.31
637.43	28390.70
637.57	28479.64
637.72	27967.06
637.87	28158.99
638.02	28107.49
638.17	27995.15
638.32	27929.61
638.46	28013.87
638.61	27714.28
638.76	27702.58
638.91	27859.40
639.06	28020.89
639.20	28133.24
639.35	27915.57
639.50	27826.63
639.65	28126.22
639.80	28301.76
639.94	28098.13
640.09	27899.19
640.24	27484.91
640.39	28023.23
640.54	27716.62
640.68	27398.31
640.83	27618.32
640.98	28023.23
641.13	27047.23
641.27	27770.46
641.42	27576.19
641.57	27548.11
641.72	27557.47
641.86	27426.40
642.01	27463.85
642.16	27681.52
642.31	27297.67
642.45	27660.45
642.60	27365.54
642.75	27300.01
642.90	27124.47
643.04	27491.93
643.19	27084.68
643.34	27623.00
643.48	27510.66
643.63	27566.83
643.78	27496.61
643.93	27211.07
644.07	27321.07
644.22	27304.69
644.37	27674.49
644.51	27473.21
644.66	27154.90
644.81	27140.85
644.95	27337.46
645.10	26897.44
645.25	26916.16
645.39	27056.59
645.54	26991.06
645.69	27278.94
645.83	27367.88
645.98	27328.10
646.13	27061.27
646.27	27185.32
646.42	27307.03
646.57	27236.81
646.71	27300.01
646.86	26876.37
647.00	27248.52
647.15	27182.98
647.30	26892.76
647.44	26595.51
647.59	27278.94
647.74	26721.90
647.88	27068.30
648.03	27147.87
648.17	27087.02
648.32	27012.12
648.47	27225.11
648.61	26815.52
648.76	27108.08
648.90	27103.40
649.05	27019.14
649.20	26792.11
649.34	26527.63
649.49	26204.64
649.63	26780.41
649.78	26766.37
649.92	26398.90
650.07	27005.10
650.21	26834.24
650.36	26757.00
650.51	26801.47
650.65	26656.36
650.80	26890.41
650.94	26675.09
651.09	26469.12
651.23	26094.63
651.38	26480.82
651.52	26799.13
651.67	26679.77
651.81	26324.01
651.96	26494.86
652.10	26604.87
652.25	26457.42
652.39	26277.19
652.54	26658.70
652.68	26878.71
652.83	26452.73
652.97	26721.90
653.12	26450.39
653.26	26326.35
653.41	26096.97
653.55	26188.25
653.70	25872.28
653.84	26265.49
653.99	26455.08
654.13	26597.85
654.27	26050.16
654.42	26415.29
654.56	26214.00
654.71	26258.47
654.85	26389.54
655.00	26443.37
655.14	26199.96
655.29	26202.30
655.43	26092.29
655.57	25935.48
655.72	25722.49
655.86	26230.38
656.01	26134.42
656.15	26136.76
656.30	25830.15
656.44	25883.98
656.58	25560.99
656.73	25921.43
656.87	25745.89
657.01	25729.51
657.16	25876.96
657.30	26005.69
657.45	25692.06
657.59	25944.84
657.73	25710.78
657.88	25682.70
658.02	25668.66
658.16	25685.04
658.31	25474.39
658.45	25731.85
658.60	25268.42
658.74	25319.92
658.88	25387.79
659.03	25420.56
659.17	25565.67
659.31	25296.51
659.46	25663.97
659.60	25383.11
659.74	25397.15
659.89	25589.08
660.03	25535.24
660.17	25380.77
660.32	25207.57
660.46	25142.03
660.60	25177.14
660.74	25125.65
660.89	25514.18
661.03	24919.68
661.17	25238.00
661.32	25376.09
661.46	25240.34
661.60	25095.22
661.74	24844.79
661.89	25111.61
662.03	25249.70
662.17	24875.21
662.31	25102.25
662.46	25029.69
662.60	24830.74
662.74	24959.47
662.88	24704.35
663.03	24706.70
663.17	24517.11
663.31	24561.58
663.45	24547.54
663.60	24505.41
663.74	24584.99
663.88	24643.50
664.02	24437.53
664.17	24760.53
664.31	24467.96
664.45	24711.38
664.59	24474.98
664.73	24584.99
664.88	24451.58
665.02	24187.10
665.16	24269.01
665.30	24137.94
665.44	24114.54
665.59	24203.48
665.73	23782.18
665.87	23960.06
666.01	24159.01
666.15	24107.52
666.29	24091.13
666.44	24109.86
666.58	23889.85
666.72	23716.65
666.86	24079.43
667.00	24002.19
667.14	23852.40
667.28	23700.26
667.43	23695.58
667.57	23592.60
667.71	23747.08
667.85	23269.61
667.99	23655.79
668.13	23641.75
668.27	23672.18
668.41	23463.87
668.56	23501.32
668.70	23616.01
668.84	23660.48
668.98	23501.32
669.12	23534.09
669.26	23400.68
669.40	23503.66
669.54	23197.05
669.68	23358.55
669.82	22766.39
669.96	22981.72
670.10	23049.60
670.25	23328.12
670.39	22904.48
670.53	22977.04
670.67	22670.43
670.81	23173.64
670.95	22852.99
671.09	22799.16
671.23	22958.31
671.37	23058.96
671.51	22682.13
671.65	22909.16
671.79	22899.80
671.93	22661.07
672.07	22457.44
672.21	22469.14
672.35	22476.16
672.49	22216.36
672.63	22192.96
672.77	22288.92
672.91	22483.19
673.05	22387.22
673.19	22546.38
673.33	22029.12
673.47	22136.79
673.61	22134.45
673.75	22075.93
673.89	22312.33
674.03	22211.68
674.17	22054.87
674.31	22033.80
674.45	21944.86
674.59	21797.41
674.73	21762.30
674.87	21551.65
675.01	21558.67
675.15	21556.33
675.29	21404.20
675.43	21326.96
675.56	21558.67
675.70	21568.04
675.84	21397.18
675.98	21020.35
676.12	21591.44
676.26	21591.44
676.40	21556.33
676.54	21336.32
676.68	21247.38
676.82	20723.10
676.96	21057.80
677.10	21008.65
677.23	21041.42
677.37	20828.43
677.51	20409.47
677.65	20872.90
677.79	20594.37
677.93	20425.86
678.07	20418.83
678.21	20393.09
678.34	20381.38
678.48	20280.74
678.62	19789.23
678.76	20114.56
678.90	20159.03
679.04	20374.36
679.18	20070.09
679.31	19613.69
679.45	19826.68
679.59	19843.06
679.73	19936.68
679.87	19594.96
680.00	19325.80
680.14	19510.71
680.28	19747.10
680.42	19545.81
680.56	19473.26
680.70	19676.88
680.83	19489.64
680.97	19328.14
681.11	19110.47
681.25	19407.72
681.39	19026.21
681.52	19075.37
681.66	19110.47
681.80	19075.37
681.94	19009.83
682.07	19061.32
682.21	18691.52
682.35	18785.14
682.49	18862.38
682.62	18530.02
682.76	18548.75
682.90	18288.95
683.04	18459.81
683.17	18183.62
683.31	18604.92
683.45	18497.25
683.59	18258.52
683.72	18405.97
683.86	18174.26
684.00	18317.03
684.13	17893.40
684.27	17998.72
684.41	17745.94
684.55	17874.67
684.68	17790.41
684.82	17633.60
684.96	17586.79
685.09	17703.81
685.23	17591.47
685.37	17727.22
685.50	17706.15
685.64	17685.09
685.78	17275.49
685.91	17413.59
686.05	17516.57
686.19	17516.57
686.32	17399.54
686.46	17216.98
686.60	17118.68
686.73	16856.54
686.87	16669.30
687.01	16716.11
687.14	16816.75
687.28	16791.00
687.42	16901.01
687.55	16673.98
687.69	16690.36
687.82	16622.48
687.96	16517.16
688.10	16367.37
688.23	16503.12
688.37	16229.27
688.50	16219.91
688.64	16606.10
688.78	16519.50
688.91	16020.97
689.05	16011.60
689.18	16018.63
689.32	15616.05
689.46	15761.17
689.59	15592.65
689.73	15817.34
689.86	15744.78
690.00	15829.04
690.13	15618.39
690.27	15618.39
690.41	15454.56
690.54	15639.46
690.68	15433.49
690.81	15541.16
690.95	15592.65
691.08	15538.82
691.22	15461.58
691.35	15351.57
691.49	15190.08
691.62	15227.53
691.76	14998.15
691.89	15143.27
692.03	14682.18
692.16	14752.40
692.30	14471.53
692.43	14703.25
692.57	14836.66
692.70	14504.30
692.84	14576.86
692.97	14384.93
693.11	14494.94
693.24	14438.76
693.38	14415.36
693.51	14202.37
693.65	14396.64
693.78	14246.84
693.92	14445.79
694.05	14214.07
694.19	14001.08
694.32	13820.86
694.45	13909.80
694.59	13881.72
694.72	13671.07
694.86	13547.02
694.99	13678.09
695.13	13734.26
695.26	13724.90
695.39	13540.00
695.53	13685.11
695.66	13411.27
695.80	13657.03
695.93	13476.80
696.07	13514.25
696.20	13528.30
696.33	13132.75
696.47	13179.56
696.60	13107.00
696.73	13186.58
696.87	13109.34
697.00	12926.78
697.14	12947.84
697.27	12638.89
697.40	12762.94
697.54	12830.82
697.67	12624.85
697.80	12753.58
697.94	12521.87
698.07	12423.56
698.21	12358.03
698.34	12486.76
698.47	12596.76
698.61	12269.09
698.74	12627.19
698.87	12360.37
699.01	12131.00
699.14	12006.95
699.27	12142.70
699.40	12182.49
699.54	12079.50
699.67	11929.71
699.80	11927.37
699.94	11784.60
700.07	11896.94
700.20	11740.13
700.34	11466.28
700.47	11555.22
700.60	11417.13
700.73	11648.85
700.87	11475.65
701.00	11466.28
701.13	11440.54
701.26	11421.81
701.40	11468.62
701.53	11295.43
701.66	11194.78
701.79	11183.08
701.93	11056.69
702.06	11138.61
702.19	10958.39
702.32	10860.09
702.46	10759.44
702.59	10595.61
702.72	10523.05
702.85	10607.31
702.99	10717.31
703.12	10504.32
703.25	10621.35
703.38	10803.91
703.51	10677.52
703.65	10565.18
703.78	10389.64
703.91	10258.57
704.04	10518.37
704.17	10546.45
704.31	10532.41
704.44	10127.50
704.57	10057.28
704.70	10223.46
704.83	10083.03
704.96	10150.90
705.10	9975.36
705.23	9914.51
>>>>>End Processed Spectral Data<<<<<
