SpectraSuite Data File
++++++++++++++++++++++++++++++++++++
Date: Fri Oct 18 13:58:08 GMT-05:00 2013
User: bianchi
Dark Spectrum Present: No
Reference Spectrum Present: No
Number of Sampled Component Spectra: 1
Spectrometers: USB2+H05261
Integration Time (usec): 50000 (USB2+H05261)
Spectra Averaged: 1 (USB2+H05261)
Boxcar Smoothing: 0 (USB2+H05261)
Correct for Electrical Dark: No (USB2+H05261)
Strobe/Lamp Enabled: No (USB2+H05261)
Correct for Detector Non-linearity: No (USB2+H05261)
Correct for Stray Light: No (USB2+H05261)
Number of Pixels in Processed Spectrum: 2048
>>>>>Begin Processed Spectral Data<<<<<
365.73	0.00
365.92	0.00
366.12	0.00
366.32	0.00
366.52	0.00
366.72	0.00
366.91	0.00
367.11	0.00
367.31	0.00
367.51	0.00
367.70	0.00
367.90	0.00
368.10	0.00
368.30	0.00
368.49	0.00
368.69	0.00
368.89	0.00
369.09	0.00
369.28	0.00
369.48	0.00
369.68	0.00
369.87	0.00
370.07	0.00
370.27	0.00
370.47	0.00
370.66	56.17
370.86	138.09
371.06	198.95
371.25	93.62
371.45	147.45
371.65	166.18
371.84	128.73
372.04	217.67
372.24	180.22
372.44	229.37
372.63	159.16
372.83	191.92
373.03	210.65
373.22	170.86
373.42	182.56
373.62	220.01
373.81	234.05
374.01	266.82
374.21	273.84
374.40	292.57
374.60	266.82
374.79	236.39
374.99	257.46
375.19	187.24
375.38	215.33
375.58	259.80
375.78	215.33
375.97	250.44
376.17	196.60
376.37	245.76
376.56	334.70
376.76	231.71
376.95	217.67
377.15	280.86
377.35	266.82
377.54	257.46
377.74	236.39
377.93	245.76
378.13	285.55
378.33	236.39
378.52	280.86
378.72	271.50
378.91	313.63
379.11	227.03
379.31	276.18
379.50	259.80
379.70	353.42
379.89	257.46
380.09	334.70
380.28	344.06
380.48	372.15
380.68	215.33
380.87	330.02
381.07	358.10
381.26	283.20
381.46	311.29
381.65	351.08
381.85	362.78
382.04	308.95
382.24	290.23
382.43	332.36
382.63	402.57
382.83	330.02
383.02	322.99
383.22	348.74
383.41	330.02
383.61	447.04
383.80	386.19
384.00	327.68
384.19	353.42
384.39	369.80
384.58	362.78
384.78	386.19
384.97	355.76
385.17	428.32
385.36	409.59
385.56	351.08
385.75	374.49
385.95	390.87
386.14	369.80
386.34	388.53
386.53	425.98
386.72	351.08
386.92	514.92
387.11	442.36
387.31	430.66
387.50	421.30
387.70	383.85
387.89	519.60
388.09	435.34
388.28	414.27
388.48	423.64
388.67	444.70
388.86	484.49
389.06	477.47
389.25	510.24
389.45	531.30
389.64	461.09
389.84	477.47
390.03	587.47
390.22	521.94
390.42	470.45
390.61	517.26
390.81	505.56
391.00	514.92
391.19	566.41
391.39	589.82
391.58	566.41
391.78	477.47
391.97	524.28
392.16	589.82
392.36	545.34
392.55	580.45
392.75	512.58
392.94	550.03
393.13	603.86
393.33	507.90
393.52	538.32
393.71	571.09
393.91	540.66
394.10	538.32
394.29	636.63
394.49	671.73
394.68	692.80
394.88	566.41
395.07	603.86
395.26	660.03
395.46	578.11
395.65	653.01
395.84	634.29
396.04	615.56
396.23	585.13
396.42	620.24
396.62	713.86
396.81	662.37
397.00	653.01
397.19	559.39
397.39	739.61
397.58	730.25
397.77	685.78
397.97	678.76
398.16	697.48
398.35	706.84
398.55	697.48
398.74	711.52
398.93	709.18
399.12	723.23
399.32	681.10
399.51	709.18
399.70	732.59
399.90	723.23
400.09	746.63
400.28	781.74
400.47	774.72
400.67	823.87
400.86	880.04
401.05	770.04
401.24	851.96
401.44	828.55
401.63	959.62
401.82	837.91
402.01	826.21
402.21	910.47
402.40	847.27
402.59	786.42
402.78	854.30
402.97	851.96
403.17	870.68
403.36	833.23
403.55	1020.47
403.74	898.77
403.93	882.38
404.13	957.28
404.32	798.12
404.51	917.49
404.70	940.90
404.89	835.57
405.09	997.07
405.28	952.60
405.47	882.38
405.66	947.92
405.85	983.02
406.05	947.92
406.24	1006.43
406.43	973.66
406.62	1060.26
406.81	1102.39
407.00	1032.18
407.20	990.05
407.39	1104.73
407.58	1001.75
407.77	1050.90
407.96	1078.99
408.15	1029.84
408.34	1074.31
408.54	1071.97
408.73	1062.60
408.92	1083.67
409.11	1086.01
409.30	1135.16
409.49	1146.86
409.68	1100.05
409.87	1128.14
410.07	1191.33
410.26	1228.78
410.45	1221.76
410.64	1205.38
410.83	1291.98
411.02	1249.85
411.21	1336.45
411.40	1165.59
411.59	1371.55
411.78	1355.17
411.98	1306.02
412.17	1294.32
412.36	1392.62
412.55	1472.20
412.74	1425.39
412.93	1329.42
413.12	1336.45
413.31	1460.49
413.50	1362.19
413.69	1387.94
413.88	1423.05
414.07	1451.13
414.26	1533.05
414.45	1446.45
414.64	1479.22
414.83	1472.20
415.02	1624.33
415.22	1542.41
415.41	1584.54
415.60	1483.90
415.79	1554.12
415.98	1586.88
416.17	1593.90
416.36	1619.65
416.55	1673.48
416.74	1685.19
416.93	1584.54
417.12	1710.93
417.31	1668.80
417.50	1743.70
417.69	1795.19
417.88	1689.87
418.07	1764.76
418.26	1696.89
418.45	1696.89
418.64	1729.66
418.83	1905.20
419.02	1818.60
419.21	1799.87
419.39	1827.96
419.58	1813.92
419.77	1785.83
419.96	1884.13
420.15	1982.43
420.34	1872.43
420.53	1816.26
420.72	1886.47
420.91	1905.20
421.10	1930.94
421.29	1947.33
421.48	1872.43
421.67	2040.95
421.86	2008.18
422.05	1975.41
422.24	2033.93
422.43	2015.20
422.61	2083.08
422.80	2050.31
422.99	2024.56
423.18	1989.46
423.37	2015.20
423.56	1975.41
423.75	2097.12
423.94	2120.53
424.13	1893.49
424.32	2040.95
424.50	1996.48
424.69	2085.42
424.88	2209.47
425.07	2080.74
425.26	2150.95
425.45	2113.50
425.64	2033.93
425.83	2064.35
426.01	1977.75
426.20	1994.14
426.39	2085.42
426.58	2092.44
426.77	2108.82
426.96	2120.53
427.15	2036.27
427.33	2099.46
427.52	2005.84
427.71	2160.31
427.90	2157.97
428.09	2284.36
428.28	2200.10
428.46	2115.84
428.65	2303.09
428.84	2157.97
429.03	2251.60
429.22	2284.36
429.40	2181.38
429.59	2249.25
429.78	2113.50
429.97	2204.78
430.16	2230.53
430.34	2368.62
430.53	2326.49
430.72	2471.61
430.91	2424.80
431.10	2319.47
431.28	2370.96
431.47	2352.24
431.66	2527.78
431.85	2480.97
432.03	2340.54
432.22	2450.54
432.41	2466.92
432.60	2338.20
432.79	2490.33
432.97	2413.09
433.16	2548.84
433.35	2527.78
433.54	2504.37
433.72	2492.67
433.91	2518.42
434.10	2609.70
434.28	2480.97
434.47	2511.39
434.66	2605.02
434.85	2558.21
435.03	2637.78
435.22	2576.93
435.41	2848.43
435.59	2621.40
435.78	2712.68
435.97	2647.15
436.16	2640.12
436.34	2665.87
436.53	2698.64
436.72	2780.56
436.90	2640.12
437.09	2806.30
437.28	2607.36
437.46	2794.60
437.65	2752.47
437.84	2841.41
438.02	2761.83
438.21	2787.58
438.40	2864.82
438.58	2918.65
438.77	3009.93
438.96	2825.03
439.14	3005.25
439.33	2864.82
439.52	2981.84
439.70	2883.54
439.89	3016.95
440.08	3068.44
440.26	2979.50
440.45	3066.10
440.63	3166.74
440.82	3166.74
441.01	3133.98
441.19	3375.05
441.38	3262.71
441.57	3229.94
441.75	3248.66
441.94	3328.24
442.12	3300.16
442.31	3325.90
442.50	3356.33
442.68	3316.54
442.87	3353.99
443.05	3370.37
443.24	3445.27
443.43	3337.60
443.61	3478.04
443.80	3494.42
443.98	3351.65
444.17	3141.00
444.35	3499.10
444.54	3522.51
444.73	3482.72
444.91	3545.91
445.10	3452.29
445.28	3349.31
445.47	3478.04
445.65	3503.78
445.84	3552.93
446.02	3534.21
446.21	3548.25
446.39	3461.65
446.58	3419.52
446.77	3548.25
446.95	3400.80
447.14	3522.51
447.32	3485.06
447.51	3599.74
447.69	3506.12
447.88	3609.11
448.06	3524.85
448.25	3501.44
448.43	3599.74
448.62	3531.87
448.80	3604.42
448.99	3721.45
449.17	3625.49
449.36	3630.17
449.54	3646.55
449.73	3637.19
449.91	3808.05
450.10	3866.56
450.28	3861.88
450.46	3786.99
450.65	3623.15
450.83	3889.97
451.02	3875.93
451.20	3861.88
451.39	3878.27
451.57	3826.78
451.76	3679.32
451.94	3960.19
452.13	3847.84
452.31	3934.44
452.49	3871.25
452.68	4011.68
452.86	3934.44
453.05	3899.33
453.23	3934.44
453.42	3904.01
453.60	3843.16
453.78	3971.89
453.97	3990.61
454.15	3978.91
454.34	4007.00
454.52	4102.96
454.70	4039.76
454.89	4121.68
455.07	4070.19
455.26	4002.32
455.44	4128.70
455.62	4234.03
455.81	4189.56
455.99	4128.70
456.17	4184.88
456.36	4135.73
456.54	4229.35
456.73	4290.20
456.91	4341.69
457.09	4409.57
457.28	4418.93
457.46	4395.53
457.64	4491.49
457.83	4498.51
458.01	4285.52
458.19	4411.91
458.38	4397.87
458.56	4400.21
458.74	4461.06
458.93	4477.44
459.11	4447.02
459.29	4505.53
459.48	4449.36
459.66	4477.44
459.84	4505.53
460.03	4519.57
460.21	4624.90
460.39	4601.49
460.57	4800.44
460.76	4739.58
460.94	4730.22
461.12	4606.17
461.31	4732.56
461.49	4624.90
461.67	4660.01
461.85	4816.82
462.04	4744.27
462.22	5128.11
462.40	4730.22
462.59	4863.63
462.77	4674.05
462.95	4823.84
463.13	4861.29
463.32	4894.06
463.50	4882.36
463.68	4896.40
463.86	4854.27
464.05	4758.31
464.23	4901.08
464.41	5011.09
464.59	4905.76
464.78	5074.28
464.96	5048.54
465.14	4847.25
465.32	5123.43
465.50	5165.56
465.69	5116.41
465.87	5093.01
466.05	5069.60
466.23	5055.56
466.41	5188.97
466.60	5219.39
466.78	5067.26
466.96	5046.20
467.14	5111.73
467.32	5167.90
467.51	5359.83
467.69	5097.69
467.87	5177.26
468.05	5315.36
468.23	5158.54
468.41	5088.32
468.60	5308.34
468.78	5228.76
468.96	5118.75
469.14	5486.22
469.32	5341.10
469.50	5268.55
469.69	5406.64
469.87	5596.22
470.05	5619.63
470.23	5591.54
470.41	5408.98
470.59	5727.29
470.77	5572.82
470.95	5722.61
471.14	5720.27
471.32	5423.02
471.50	5802.19
471.68	5664.10
471.86	5708.57
472.04	5612.60
472.22	5820.91
472.40	5717.93
472.58	5823.25
472.77	5783.46
472.95	6036.24
473.13	6071.35
473.31	5926.24
473.49	6183.70
473.67	5921.56
473.85	6083.05
474.03	6019.86
474.21	5940.28
474.39	6024.54
474.57	6008.16
474.75	6293.70
474.93	6207.10
475.12	6106.46
475.30	6310.08
475.48	6457.54
475.66	6354.55
475.84	6202.42
476.02	6483.28
476.20	6377.96
476.38	6487.96
476.56	6527.75
476.74	6656.48
476.92	6647.12
477.10	6628.40
477.28	6691.59
477.46	6752.45
477.64	6867.13
477.82	6806.28
478.00	6981.82
478.18	6939.69
478.36	7000.54
478.54	7066.08
478.72	7206.51
478.90	7183.10
479.08	7295.45
479.26	7276.73
479.44	7412.48
479.62	7412.48
479.80	7573.97
479.98	7573.97
480.16	7538.87
480.34	7705.04
480.52	7728.45
480.70	7702.70
480.88	7627.81
481.06	7676.96
481.24	7744.83
481.41	7908.67
481.59	8107.62
481.77	8262.09
481.95	8161.45
482.13	8102.93
482.31	8297.20
482.49	8407.20
482.67	8238.69
482.85	8475.08
483.03	8751.26
483.21	8826.16
483.39	8725.52
483.57	8716.16
483.74	8795.73
483.92	8975.95
484.10	8872.97
484.28	9055.53
484.46	9198.31
484.64	9514.28
484.82	9116.39
485.00	9224.05
485.18	9439.38
485.35	9493.21
485.53	9441.72
485.71	9451.08
485.89	9748.33
486.07	9668.75
486.25	9682.80
486.43	9809.19
486.61	9977.70
486.78	9947.28
486.96	10211.76
487.14	10289.00
487.32	10235.16
487.50	10363.89
487.68	10494.96
487.85	10560.50
488.03	10436.45
488.21	10651.78
488.39	10775.83
488.57	10895.19
488.75	10932.64
488.92	11133.93
489.10	11037.97
489.28	11178.40
489.46	11552.88
489.64	11056.69
489.81	11398.41
489.99	11499.05
490.17	11480.33
490.35	11800.98
490.53	11737.79
490.70	11777.58
490.88	11714.38
491.06	12060.78
491.24	11875.88
491.41	12030.35
491.59	12241.00
491.77	11988.22
491.95	12538.25
492.13	12088.87
492.30	12351.01
492.48	12320.58
492.66	12566.34
492.84	12645.91
493.01	12744.22
493.19	12617.83
493.37	12856.56
493.54	13090.62
493.72	12959.55
493.90	13184.24
494.08	13078.91
494.25	13380.84
494.43	13532.98
494.61	13259.13
494.79	13547.02
494.96	13432.33
495.14	13554.04
495.32	13547.02
495.49	13813.84
495.67	13785.76
495.85	14310.04
496.02	14001.08
496.20	14001.08
496.38	14204.71
496.55	14068.96
496.73	14387.27
496.91	14682.18
497.09	14406.00
497.26	14867.08
497.44	14544.09
497.62	14782.82
497.79	14906.87
497.97	14834.32
498.14	15033.26
498.32	14984.11
498.50	14965.39
498.67	15199.44
498.85	15447.54
499.03	15234.55
499.20	15239.23
499.38	15297.74
499.56	15335.19
499.73	15569.24
499.91	15332.85
500.08	15873.51
500.26	15494.35
500.44	15850.11
500.61	15609.03
500.79	15910.96
500.97	16086.50
501.14	16079.48
501.32	16006.92
501.49	16154.38
501.67	16215.23
501.84	16056.08
502.02	16175.44
502.20	16348.64
502.37	16374.39
502.55	16365.03
502.72	16496.10
502.90	16395.45
503.07	16285.45
503.25	16657.59
503.43	16517.16
503.60	16936.12
503.78	16994.63
503.95	16819.09
504.13	16798.02
504.30	16957.18
504.48	16952.50
504.65	16982.93
504.83	17247.41
505.01	17315.28
505.18	17294.22
505.36	17312.94
505.53	17083.57
505.71	17310.60
505.88	17469.76
506.06	17535.29
506.23	17465.08
506.41	17563.38
506.58	17638.28
506.76	17806.80
506.93	17888.71
507.11	17851.27
507.28	17680.41
507.46	17804.46
507.63	18078.30
507.81	18005.74
507.98	17928.50
508.16	18064.25
508.33	18380.23
508.50	18445.76
508.68	18359.16
508.85	18310.01
509.03	18387.25
509.20	18586.19
509.38	18916.21
509.55	18728.97
509.73	18394.27
509.90	18735.99
510.08	18644.71
510.25	18523.00
510.42	18881.10
510.60	19140.90
510.77	18785.14
510.95	19035.58
511.12	19023.87
511.30	18810.89
511.47	19190.05
511.64	19157.28
511.82	19414.74
511.99	19653.48
512.17	19297.72
512.34	19431.13
512.51	19480.28
512.69	19424.11
512.86	19590.28
513.04	19800.93
513.21	19871.15
513.38	20002.22
513.56	19789.23
513.73	19913.28
513.90	19964.77
514.08	19627.73
514.25	20063.07
514.43	20046.69
514.60	19873.49
514.77	20212.87
514.95	20189.46
515.12	20093.50
515.29	20049.03
515.47	20156.69
515.64	20430.54
515.81	20456.28
515.99	20688.00
516.16	20835.45
516.33	20713.74
516.51	20666.93
516.68	20512.46
516.85	20559.27
517.03	20697.36
517.20	20601.40
517.37	21132.70
517.54	20891.62
517.72	20954.82
517.89	20872.90
518.06	20865.88
518.24	20915.03
518.41	21226.32
518.58	20823.75
518.75	21128.02
518.93	21305.90
519.10	21333.98
519.27	21687.40
519.45	21411.22
519.62	21231.00
519.79	21539.95
519.96	21514.20
520.14	21638.25
520.31	21528.25
520.48	21764.64
520.65	21507.18
520.83	21607.83
521.00	21895.71
521.17	21799.75
521.34	21752.94
521.52	21930.82
521.69	21956.57
521.86	22195.30
522.03	22192.96
522.20	22412.97
522.38	21972.95
522.55	22609.58
522.72	22494.89
522.89	22274.88
523.07	22340.41
523.24	22574.47
523.41	22630.64
523.58	22328.71
523.75	22714.90
523.92	22686.81
524.10	22319.35
524.27	22541.70
524.44	22445.74
524.61	22581.49
524.78	23012.15
524.96	22876.40
525.13	22939.59
525.30	22618.94
525.47	22988.74
525.64	23190.03
525.81	23171.30
525.98	23021.51
526.16	23346.84
526.33	22988.74
526.50	23491.96
526.67	23145.56
526.84	23566.85
527.01	22927.89
527.18	23501.32
527.36	23260.24
527.53	23669.84
527.70	23733.03
527.87	23353.87
528.04	23550.47
528.21	23459.19
528.38	23646.43
528.55	23899.21
528.72	23538.77
528.89	23697.92
529.07	23482.59
529.24	23484.94
529.41	23620.69
529.58	23999.85
529.75	24051.34
529.92	23800.91
530.09	23824.31
530.26	24004.53
530.43	24233.91
530.60	24208.16
530.77	24360.30
530.94	24278.38
531.11	24229.23
531.28	24023.26
531.46	24229.23
531.63	24308.80
531.80	24215.18
531.97	24175.39
532.14	24474.98
532.31	24601.37
532.48	24360.30
532.65	24638.82
532.82	24350.93
532.99	24730.10
533.16	24776.91
533.33	24741.80
533.50	24699.67
533.67	25326.94
533.84	24425.83
534.01	24802.66
534.18	24779.25
534.35	24966.49
534.52	24903.30
534.69	25221.61
534.86	25411.20
535.03	24964.15
535.20	25160.76
535.37	25006.28
535.54	25474.39
535.71	25022.67
535.88	24863.51
536.05	25263.74
536.22	25570.35
536.38	25507.16
536.55	25106.93
536.72	25495.46
536.89	25111.61
537.06	25413.54
537.23	25500.14
537.40	25539.93
537.57	25177.14
537.74	25235.66
537.91	25586.74
538.08	25773.98
538.25	25310.55
538.42	25614.82
538.59	25933.14
538.75	25837.17
538.92	25949.52
539.09	25851.22
539.26	25656.95
539.43	25914.41
539.60	26092.29
539.77	25919.09
539.94	26176.55
540.11	25764.62
540.28	25797.38
540.44	25736.53
540.61	25947.18
540.78	25998.67
540.95	26024.42
541.12	26115.70
541.29	26122.72
541.46	26338.05
541.62	26160.17
541.79	26223.36
541.96	25830.15
542.13	26270.17
542.30	26281.88
542.47	26581.46
542.63	26387.20
542.80	26850.63
542.97	26974.67
543.14	26735.94
543.31	26579.12
543.48	26705.51
543.64	27477.89
543.81	26995.74
543.98	27220.43
544.15	26937.23
544.32	26848.29
544.48	27187.66
544.65	27070.64
544.82	27353.84
544.99	26618.91
545.16	26827.22
545.32	26780.41
545.49	27033.19
545.66	27632.36
545.83	27138.51
546.00	27843.01
546.16	27227.45
546.33	26761.69
546.50	27307.03
546.67	27351.50
546.83	27133.83
547.00	27154.90
547.17	27438.10
547.34	27641.73
547.50	27262.56
547.67	27267.24
547.84	27426.40
548.00	27505.98
548.17	27398.31
548.34	27960.04
548.51	27541.08
548.67	27796.20
548.84	27854.72
549.01	27903.87
549.18	27328.10
549.34	27470.87
549.51	27789.18
549.68	27784.50
549.84	27559.81
550.01	27775.14
550.18	27740.03
550.34	27641.73
550.51	28393.04
550.68	27957.70
550.84	27903.87
551.01	27929.61
551.18	27960.04
551.34	27889.82
551.51	28119.20
551.68	28060.68
551.84	28149.62
552.01	28311.12
552.18	28079.41
552.34	28252.61
552.51	28458.57
552.68	28091.11
552.84	28067.70
553.01	28432.83
553.18	28093.45
553.34	28158.99
553.51	28423.47
553.67	28636.45
553.84	28584.96
554.01	28540.49
554.17	28531.13
554.34	28687.95
554.51	28678.58
554.67	28467.94
554.84	28694.97
555.00	28486.66
555.17	28774.55
555.33	28367.29
555.50	28638.80
555.67	28594.32
555.83	28606.03
556.00	28423.47
556.16	28650.50
556.33	28479.64
556.50	28397.72
556.66	28748.80
556.83	28350.91
556.99	29095.20
557.16	29233.29
557.32	28996.90
557.49	28964.13
557.65	28732.42
557.82	28769.86
557.98	28758.16
558.15	29120.95
558.32	28718.37
558.48	29116.26
558.65	28945.41
558.81	29469.69
558.98	29223.93
559.14	29071.79
559.31	29127.97
559.47	29465.00
559.64	29137.33
559.80	29200.52
559.97	29144.35
560.13	29123.29
560.30	29371.38
560.46	29345.64
560.63	29378.40
560.79	29603.10
560.96	29303.51
561.12	29252.02
561.29	29303.51
561.45	29209.89
561.61	29525.86
561.78	29563.31
561.94	29338.62
562.11	29369.04
562.27	29324.57
562.44	29593.73
562.60	29521.18
562.77	29432.24
562.93	29380.74
563.10	29834.81
563.26	29661.61
563.42	29876.94
563.59	29677.99
563.75	29617.14
563.92	29930.77
564.08	29603.10
564.24	29425.22
564.41	29249.67
564.57	29530.54
564.74	29317.55
564.90	29867.58
565.07	29687.36
565.23	29502.45
565.39	29593.73
565.56	29837.15
565.72	29549.26
565.88	29696.72
566.05	29556.28
566.21	29963.54
566.38	29692.04
566.54	30068.86
566.70	30043.12
566.87	30291.21
567.03	29757.57
567.19	30036.09
567.36	29869.92
567.52	29872.26
567.68	29832.47
567.85	29439.26
568.01	29404.15
568.17	29745.87
568.34	30146.10
568.50	30000.99
568.66	30213.98
568.83	30209.29
568.99	29837.15
569.15	29865.24
569.32	29986.94
569.48	29858.21
569.64	29977.58
569.81	29788.00
569.97	29724.80
570.13	30155.46
570.30	29916.73
570.46	30263.13
570.62	29876.94
570.78	30031.41
570.95	30108.65
571.11	29996.31
571.27	30106.31
571.43	29813.74
571.60	29724.80
571.76	29933.11
571.92	30223.34
572.09	30335.68
572.25	30031.41
572.41	30190.57
572.57	30345.05
572.74	30312.28
572.90	29898.00
573.06	30115.67
573.22	30143.76
573.38	30059.50
573.55	30129.72
573.71	30572.08
573.87	30469.09
574.03	30265.47
574.20	30148.44
574.36	30038.44
574.52	30075.88
574.68	30047.80
574.84	30478.46
575.01	30450.37
575.17	30221.00
575.33	30120.35
575.49	30017.37
575.65	30539.31
575.82	30441.01
575.98	30209.29
576.14	30588.46
576.30	30237.38
576.46	30256.11
576.62	30345.05
576.79	30359.09
576.95	30099.29
577.11	30539.31
577.27	29876.94
577.43	30536.97
577.59	30258.45
577.75	30129.72
577.92	30529.95
578.08	30141.42
578.24	30038.44
578.40	30305.26
578.56	30469.09
578.72	30204.61
578.88	30623.57
579.04	30939.54
579.21	30052.48
579.37	30373.13
579.53	30658.68
579.69	30380.15
579.85	30206.95
580.01	30239.72
580.17	30099.29
580.33	30363.77
580.49	30319.30
580.65	30422.28
580.82	30359.09
580.98	30277.17
581.14	30473.78
581.30	30410.58
581.46	30356.75
581.62	30820.17
581.78	30249.08
581.94	30745.28
582.10	30263.13
582.26	30419.94
582.42	30274.83
582.58	30703.15
582.74	30230.36
582.90	30661.02
583.06	30728.89
583.22	30382.49
583.38	30359.09
583.54	30656.34
583.70	30684.42
583.86	30611.87
584.02	30197.59
584.18	30555.69
584.34	30726.55
584.50	30352.07
584.66	30635.27
584.82	30298.23
584.98	30764.00
585.14	30616.55
585.30	30562.72
585.46	30441.01
585.62	30597.82
585.78	30728.89
585.94	30345.05
586.10	30539.31
586.26	30436.33
586.42	30752.30
586.58	30789.75
586.74	30237.38
586.90	30572.08
587.06	30450.37
587.22	30279.51
587.38	30518.25
587.54	30815.49
587.70	30888.05
587.86	30918.48
588.02	30836.56
588.18	30953.58
588.34	30480.80
588.49	31152.53
588.65	30335.68
588.81	30363.77
588.97	30810.81
589.13	30677.40
589.29	30174.19
589.45	30621.23
589.61	31007.42
589.77	30948.90
589.93	31033.16
590.08	30909.11
590.24	31119.76
590.40	30916.14
590.56	30773.36
590.72	30733.57
590.88	30611.87
591.04	30834.22
591.20	30979.33
591.35	31161.89
591.51	31344.45
591.67	30904.43
591.83	30883.37
591.99	30993.37
592.15	30845.92
592.31	31061.25
592.46	30841.24
592.62	30998.06
592.78	30796.77
592.94	30384.83
593.10	30859.96
593.26	31421.69
593.41	30948.90
593.57	30838.90
593.73	30785.07
593.89	30874.01
594.05	31264.88
594.20	31269.56
594.36	31016.78
594.52	30761.66
594.68	31290.62
594.84	30593.14
594.99	31269.56
595.15	30981.67
595.31	31402.97
595.47	31145.51
595.62	31454.46
595.78	31229.77
595.94	30998.06
596.10	31615.96
596.25	31072.95
596.41	30939.54
596.57	30958.27
596.73	31054.23
596.88	30857.62
597.04	31105.72
597.20	31440.42
597.36	31122.10
597.51	31234.45
597.67	30951.24
597.83	30848.26
597.99	31119.76
598.14	31129.12
598.30	30817.83
598.46	31290.62
598.61	31611.28
598.77	30946.56
598.93	31309.35
599.09	31133.81
599.24	31538.72
599.40	31405.31
599.56	30993.37
599.71	31428.71
599.87	31309.35
600.03	31311.69
600.18	31063.59
600.34	31194.66
600.50	31084.65
600.65	31309.35
600.81	31168.91
600.97	31330.41
601.12	31721.28
601.28	31220.41
601.44	31414.67
601.59	31234.45
601.75	31531.70
601.91	31178.28
602.06	31229.77
602.22	31147.85
602.37	31206.36
602.53	31332.75
602.69	31882.78
602.84	31466.16
603.00	31461.48
603.16	31672.13
603.31	31356.16
603.47	30951.24
603.62	31122.10
603.78	31044.87
603.94	31077.63
604.09	31452.12
604.25	31398.29
604.40	31290.62
604.56	30951.24
604.71	31419.35
604.87	31084.65
605.03	31253.17
605.18	31278.92
605.34	30974.65
605.49	31049.55
605.65	30841.24
605.80	31040.18
605.96	31084.65
606.12	31297.64
606.27	31470.84
606.43	31040.18
606.58	31597.23
606.74	31206.36
606.89	31278.92
607.05	31115.08
607.20	31101.04
607.36	31122.10
607.51	31136.15
607.67	30885.71
607.82	30780.39
607.98	30712.51
608.13	30946.56
608.29	31145.51
608.44	30768.68
608.60	31342.11
608.75	31218.07
608.91	30925.50
609.06	31407.65
609.22	31473.18
609.37	30764.00
609.53	30911.46
609.68	31192.32
609.84	30923.16
609.99	30937.20
610.15	30787.41
610.30	30822.51
610.46	30913.80
610.61	31089.34
610.76	30920.82
610.92	31157.21
611.07	31063.59
611.23	30635.27
611.38	30733.57
611.54	30874.01
611.69	30597.82
611.84	30536.97
612.00	31005.08
612.15	30405.90
612.31	30518.25
612.46	31091.68
612.62	31061.25
612.77	31112.74
612.92	31194.66
613.08	30492.50
613.23	30843.58
613.39	30539.31
613.54	30766.34
613.69	30684.42
613.85	30974.65
614.00	31005.08
614.15	30735.92
614.31	30754.64
614.46	30775.70
614.62	30731.23
614.77	30717.19
614.92	30710.17
615.08	30773.36
615.23	30611.87
615.38	30534.63
615.54	30307.60
615.69	30342.70
615.84	30190.57
616.00	30630.59
616.15	30244.40
616.30	30670.38
616.46	30150.78
616.61	30265.47
616.76	30654.00
616.92	30342.70
617.07	30455.05
617.22	30258.45
617.37	30155.46
617.53	30412.92
617.68	30323.98
617.83	30183.55
617.99	30565.06
618.14	30426.96
618.29	30424.62
618.45	30181.21
618.60	30211.64
618.75	29773.95
618.90	30366.11
619.06	30213.98
619.21	29745.87
619.36	30211.64
619.51	29993.97
619.67	29570.33
619.82	29771.61
619.97	30171.85
620.12	29696.72
620.28	29677.99
620.43	30408.24
620.58	30405.90
620.73	30251.42
620.89	29996.31
621.04	30036.09
621.19	30225.68
621.34	29792.68
621.49	30057.16
621.65	30148.44
621.80	29874.60
621.95	29633.52
622.10	29944.81
622.25	29788.00
622.41	29722.46
622.56	29804.38
622.71	30230.36
622.86	30129.72
623.01	29961.20
623.16	29841.83
623.32	29436.92
623.47	30094.61
623.62	29741.19
623.77	29563.31
623.92	29443.94
624.07	29551.60
624.23	29577.35
624.38	29380.74
624.53	29551.60
624.68	29858.21
624.83	29834.81
624.98	29961.20
625.13	29322.23
625.29	29427.56
625.44	29556.28
625.59	29151.37
625.74	29560.97
625.89	29642.88
626.04	29448.62
626.19	29167.76
626.34	29296.49
626.49	29137.33
626.65	29022.64
626.80	29392.45
626.95	29420.53
627.10	29259.04
627.25	29221.59
627.40	29303.51
627.55	29308.19
627.70	29109.24
627.85	29088.18
628.00	28830.72
628.15	29425.22
628.30	28966.47
628.45	29165.42
628.60	29298.83
628.76	29041.37
628.91	29172.44
629.06	28996.90
629.21	29116.26
629.36	29326.91
629.51	29013.28
629.66	28912.64
629.81	28865.83
629.96	28868.17
630.11	28868.17
630.26	28683.27
630.41	28678.58
630.56	28847.10
630.71	28645.82
630.86	28781.57
631.01	28877.53
631.16	28837.74
631.31	28601.35
631.46	28802.63
631.61	28957.11
631.76	28828.38
631.91	28732.42
632.06	28727.74
632.21	28601.35
632.36	28716.03
632.51	28226.86
632.66	28573.26
632.81	28542.83
632.96	28409.42
633.10	28807.31
633.25	28786.25
633.40	28631.77
633.55	28603.69
633.70	28390.70
633.85	28540.49
634.00	28430.49
634.15	28147.28
634.30	28177.71
634.45	28390.70
634.60	28240.90
634.75	28280.69
634.90	28184.73
635.05	28638.80
635.19	28489.00
635.34	28268.99
635.49	28098.13
635.64	28505.38
635.79	28371.97
635.94	28177.71
636.09	28100.47
636.24	27927.27
636.39	28056.00
636.53	28130.90
636.68	27943.66
636.83	28102.81
636.98	28182.39
637.13	28329.84
637.28	28390.70
637.43	27995.15
637.57	28254.95
637.72	27754.07
637.87	28236.22
638.02	28395.38
638.17	27735.35
638.32	27651.09
638.46	28023.23
638.61	27548.11
638.76	27431.08
638.91	27538.74
639.06	27948.34
639.20	27665.13
639.35	27864.08
639.50	27770.46
639.65	28011.53
639.80	27927.27
639.94	28180.05
640.09	27782.16
640.24	27894.50
640.39	27571.51
640.54	27281.28
640.68	27604.28
640.83	27627.68
640.98	27239.15
641.13	27337.46
641.27	27814.93
641.42	27817.27
641.57	27515.34
641.72	27515.34
641.86	27527.04
642.01	27197.02
642.16	27508.32
642.31	27489.59
642.45	27597.26
642.60	27351.50
642.75	27063.61
642.90	27054.25
643.04	27166.60
643.19	27260.22
643.34	27096.38
643.48	27358.52
643.63	27473.21
643.78	27112.77
643.93	27473.21
644.07	27402.99
644.22	27388.95
644.37	27243.84
644.51	27152.55
644.66	27180.64
644.81	27199.37
644.95	26651.68
645.10	27026.17
645.25	27330.44
645.39	26855.31
645.54	27405.33
645.69	27215.75
645.83	27054.25
645.98	27323.41
646.13	26967.65
646.27	26871.69
646.42	26864.67
646.57	26717.22
646.71	26864.67
646.86	27096.38
647.00	27080.00
647.15	26998.08
647.30	26719.56
647.44	26955.95
647.59	26909.14
647.74	27019.14
647.88	26909.14
648.03	26855.31
648.17	27000.42
648.32	26796.79
648.47	27241.50
648.61	27054.25
648.76	26761.69
648.90	26675.09
649.05	26883.39
649.20	26724.24
649.34	26508.91
649.49	26370.82
649.63	26513.59
649.78	26668.06
649.92	26176.55
650.07	26391.88
650.21	26450.39
650.36	26471.46
650.51	26569.76
650.65	26525.29
650.80	26607.21
650.94	26434.01
651.09	26391.88
651.23	26419.97
651.38	26572.10
651.52	26747.64
651.67	26419.97
651.81	26532.31
651.96	26293.58
652.10	26595.51
652.25	26717.22
652.39	26752.32
652.54	26464.44
652.68	26398.90
652.83	26394.22
652.97	26651.68
653.12	26260.81
653.26	26162.51
653.41	26176.55
653.55	25979.95
653.70	26153.15
653.84	25832.49
653.99	26331.03
654.13	25951.86
654.27	25748.23
654.42	26260.81
654.56	26111.02
654.71	26185.91
654.85	26396.56
655.00	26012.71
655.14	25876.96
655.29	25755.26
655.43	26401.24
655.57	26071.23
655.72	25855.90
655.86	25963.56
656.01	25872.28
656.15	25736.53
656.30	25703.76
656.44	25720.15
656.58	25724.83
656.73	25722.49
656.87	25783.34
657.01	26225.70
657.16	26267.83
657.30	26015.05
657.45	25841.85
657.59	25642.91
657.73	25495.46
657.88	25759.94
658.02	25792.70
658.16	25500.14
658.31	25518.86
658.45	25390.13
658.60	25275.45
658.74	25668.66
658.88	25553.97
659.03	25666.31
659.17	25589.08
659.31	25593.76
659.46	25834.83
659.60	25399.49
659.74	25490.77
659.89	25228.63
660.03	25504.82
660.17	25338.64
660.32	24863.51
660.46	25205.23
660.60	24989.90
660.74	24814.36
660.89	25085.86
661.03	25174.80
661.17	25071.82
661.32	25104.59
661.46	25256.72
661.60	25109.27
661.74	24961.81
661.89	25137.35
662.03	25198.21
662.17	25174.80
662.31	24987.56
662.46	24945.43
662.60	24854.15
662.74	25017.99
662.88	24645.84
663.03	24587.33
663.17	24933.73
663.31	24369.66
663.45	24552.22
663.60	24437.53
663.74	24404.77
663.88	24547.54
664.02	24306.46
664.17	24601.37
664.31	24877.55
664.45	24273.70
664.59	24257.31
664.73	23936.66
664.88	24184.76
665.02	24135.60
665.16	24123.90
665.30	24175.39
665.44	24091.13
665.59	23660.48
665.73	23953.04
665.87	23861.76
666.01	23931.98
666.15	23988.15
666.29	24037.30
666.44	23922.62
666.58	23793.89
666.72	23772.82
666.86	23889.85
667.00	23833.68
667.14	23538.77
667.28	23601.96
667.43	23658.14
667.57	23683.88
667.71	23564.51
667.85	23459.19
667.99	23370.25
668.13	23288.33
668.27	23463.87
668.41	23611.32
668.56	23468.55
668.70	23321.10
668.84	23534.09
668.98	23370.25
669.12	23255.56
669.26	23381.95
669.40	23454.51
669.54	23297.69
669.68	22979.38
669.82	23232.16
669.96	23054.28
670.10	22750.01
670.25	23021.51
670.39	22848.31
670.53	22740.64
670.67	22925.55
670.81	22565.10
670.95	22932.57
671.09	22857.67
671.23	22817.88
671.37	22808.52
671.51	22895.12
671.65	22867.03
671.79	22630.64
671.93	22490.21
672.07	22864.69
672.21	22291.26
672.35	22176.58
672.49	22195.30
672.63	22167.21
672.77	21909.75
672.91	22342.75
673.05	22174.24
673.19	21984.65
673.33	22307.65
673.47	22178.92
673.61	22183.60
673.75	21942.52
673.89	22085.30
674.03	21963.59
674.17	21893.37
674.31	22022.10
674.45	21727.19
674.59	21811.45
674.73	21748.26
674.87	21516.54
675.01	21544.63
675.15	21352.71
675.29	21404.20
675.43	21537.61
675.56	21331.64
675.70	21277.81
675.84	21551.65
675.98	21261.43
676.12	21565.70
676.26	21380.79
676.40	21331.64
676.54	21001.63
676.68	21043.76
676.82	20964.18
676.96	21067.16
677.10	20772.25
677.23	20577.99
677.37	20372.02
677.51	20659.91
677.65	20732.47
677.79	20563.95
677.93	20243.29
678.07	20582.67
678.21	20416.49
678.34	20140.31
678.48	20011.58
678.62	20400.11
678.76	20086.48
678.90	20425.86
679.04	20470.33
679.18	20121.59
679.31	19838.38
679.45	19459.21
679.59	19644.12
679.73	19723.69
679.87	19758.80
680.00	19466.24
680.14	19201.76
680.28	19627.73
680.42	19562.20
680.56	19555.18
680.70	19449.85
680.83	19412.40
680.97	19084.73
681.11	19435.81
681.25	19180.69
681.39	19042.60
681.52	19199.41
681.66	19021.53
681.80	18855.36
681.94	18766.42
682.07	19007.49
682.21	18792.16
682.35	18764.07
682.49	18391.93
682.62	18663.43
682.76	18682.16
682.90	18300.65
683.04	18691.52
683.17	18719.60
683.31	18537.04
683.45	18712.58
683.59	18424.70
683.72	17905.10
683.86	18209.37
684.00	17996.38
684.13	18047.87
684.27	18015.10
684.41	17888.71
684.55	17755.30
684.68	17488.48
684.82	17694.45
684.96	17675.73
685.09	17759.98
685.23	17329.33
685.37	17577.42
685.50	17759.98
685.64	17657.00
685.78	17514.23
685.91	17614.87
686.05	17479.12
686.19	17245.07
686.32	17231.02
686.46	16819.09
686.60	17064.85
686.73	16992.29
686.87	16957.18
687.01	16938.46
687.14	16908.03
687.28	16697.38
687.42	16575.67
687.55	16767.60
687.69	16912.71
687.82	16563.97
687.96	16720.79
688.10	16493.76
688.23	16641.21
688.37	16210.55
688.50	16449.28
688.64	16379.07
688.78	16198.85
688.91	16145.02
689.05	16088.84
689.18	16037.35
689.32	15461.58
689.46	15868.83
689.59	15791.59
689.73	15784.57
689.86	15702.65
690.00	15845.43
690.13	15672.23
690.27	15573.92
690.41	15861.81
690.54	15480.30
690.68	15686.27
690.81	15786.91
690.95	15538.82
691.08	15178.37
691.22	15356.25
691.35	15452.22
691.49	15169.01
691.62	15187.74
691.76	15059.01
691.89	14717.29
692.03	14651.75
692.16	14621.33
692.30	14850.70
692.43	14684.52
692.57	14618.99
692.70	14600.26
692.84	14321.74
692.97	14288.97
693.11	14466.85
693.24	14494.94
693.38	14244.50
693.51	14450.47
693.65	14225.78
693.78	14157.90
693.92	14078.32
694.05	14068.96
694.19	14141.52
694.32	14143.86
694.45	13881.72
694.59	13804.48
694.72	13806.82
694.86	13635.96
694.99	13642.98
695.13	13507.23
695.26	13469.78
695.39	13465.10
695.53	13774.05
695.66	13530.64
695.80	13401.91
695.93	13439.36
696.07	13657.03
696.20	13334.03
696.33	13268.50
696.47	13322.33
696.60	13219.35
696.73	12952.52
696.87	13078.91
697.00	13078.91
697.14	13001.68
697.27	12807.41
697.40	12709.11
697.54	12610.81
697.67	12559.31
697.80	12402.50
697.94	12681.02
698.07	12463.35
698.21	12486.76
698.34	12397.82
698.47	12449.31
698.61	12594.42
698.74	12325.26
698.87	12468.03
699.01	12243.34
699.14	12308.88
699.27	12287.81
699.40	12226.96
699.54	12135.68
699.67	12023.33
699.80	11805.66
699.94	11962.48
700.07	11875.88
700.20	11470.97
700.34	11538.84
700.47	11428.84
700.60	11494.37
700.73	11754.17
700.87	11389.05
701.00	11470.97
701.13	11559.91
701.26	11318.83
701.40	11428.84
701.53	11351.60
701.66	11377.34
701.79	11108.18
701.93	11524.80
702.06	11089.46
702.19	10698.59
702.32	11014.56
702.46	10855.40
702.59	10684.55
702.72	10714.97
702.85	10747.74
702.99	10572.20
703.12	10736.04
703.25	10523.05
703.38	10609.65
703.51	10771.15
703.65	10513.69
703.78	10604.97
703.91	10464.54
704.04	10614.33
704.17	10459.85
704.31	10202.40
704.44	10171.97
704.57	10232.82
704.70	10026.86
704.83	10204.74
704.96	9921.53
705.10	9980.04
705.23	9900.47
>>>>>End Processed Spectral Data<<<<<
