SpectraSuite Data File
++++++++++++++++++++++++++++++++++++
Date: Fri Oct 18 13:58:39 GMT-05:00 2013
User: bianchi
Dark Spectrum Present: No
Reference Spectrum Present: No
Number of Sampled Component Spectra: 1
Spectrometers: USB2+H05261
Integration Time (usec): 50000 (USB2+H05261)
Spectra Averaged: 1 (USB2+H05261)
Boxcar Smoothing: 0 (USB2+H05261)
Correct for Electrical Dark: No (USB2+H05261)
Strobe/Lamp Enabled: No (USB2+H05261)
Correct for Detector Non-linearity: No (USB2+H05261)
Correct for Stray Light: No (USB2+H05261)
Number of Pixels in Processed Spectrum: 2048
>>>>>Begin Processed Spectral Data<<<<<
365.73	0.00
365.92	0.00
366.12	0.00
366.32	0.00
366.52	0.00
366.72	0.00
366.91	0.00
367.11	0.00
367.31	0.00
367.51	0.00
367.70	0.00
367.90	0.00
368.10	0.00
368.30	0.00
368.49	0.00
368.69	0.00
368.89	0.00
369.09	0.00
369.28	0.00
369.48	0.00
369.68	0.00
369.87	0.00
370.07	0.00
370.27	0.00
370.47	0.00
370.66	65.54
370.86	86.60
371.06	95.96
371.25	105.32
371.45	124.05
371.65	128.73
371.84	142.77
372.04	177.88
372.24	191.92
372.44	184.90
372.63	222.35
372.83	229.37
373.03	215.33
373.22	156.82
373.42	210.65
373.62	210.65
373.81	201.29
374.01	224.69
374.21	252.78
374.40	241.08
374.60	198.95
374.79	320.65
374.99	234.05
375.19	248.10
375.38	269.16
375.58	262.14
375.78	315.97
375.97	227.03
376.17	201.29
376.37	273.84
376.56	189.58
376.76	220.01
376.95	278.52
377.15	252.78
377.35	252.78
377.54	290.23
377.74	170.86
377.93	262.14
378.13	243.42
378.33	269.16
378.52	227.03
378.72	330.02
378.91	330.02
379.11	215.33
379.31	315.97
379.50	301.93
379.70	306.61
379.89	334.70
380.09	252.78
380.28	308.95
380.48	301.93
380.68	318.31
380.87	325.33
381.07	301.93
381.26	278.52
381.46	334.70
381.65	276.18
381.85	360.44
382.04	332.36
382.24	297.25
382.43	285.55
382.63	212.99
382.83	290.23
383.02	330.02
383.22	299.59
383.41	351.08
383.61	327.68
383.80	276.18
384.00	341.72
384.19	297.25
384.39	322.99
384.58	311.29
384.78	395.55
384.97	376.83
385.17	372.15
385.36	322.99
385.56	388.53
385.75	416.62
385.95	430.66
386.14	358.10
386.34	372.15
386.53	411.93
386.72	362.78
386.92	425.98
387.11	479.81
387.31	444.70
387.50	409.59
387.70	367.46
387.89	423.64
388.09	435.34
388.28	372.15
388.48	379.17
388.67	463.43
388.86	449.38
389.06	475.13
389.25	479.81
389.45	433.00
389.64	475.13
389.84	390.87
390.03	463.43
390.22	461.09
390.42	493.85
390.61	475.13
390.81	418.96
391.00	468.11
391.19	451.72
391.39	517.26
391.58	496.19
391.78	538.32
391.97	479.81
392.16	533.64
392.36	538.32
392.55	566.41
392.75	557.05
392.94	585.13
393.13	528.96
393.33	571.09
393.52	585.13
393.71	557.05
393.91	568.75
394.10	472.79
394.29	538.32
394.49	547.69
394.68	580.45
394.88	636.63
395.07	550.03
395.26	599.18
395.46	601.52
395.65	580.45
395.84	741.95
396.04	667.05
396.23	585.13
396.42	653.01
396.62	634.29
396.81	681.10
397.00	610.88
397.19	599.18
397.39	624.92
397.58	727.91
397.77	730.25
397.97	645.99
398.16	725.57
398.35	744.29
398.55	713.86
398.74	772.38
398.93	727.91
399.12	648.33
399.32	622.58
399.51	770.04
399.70	732.59
399.90	709.18
400.09	704.50
400.28	812.17
400.47	816.85
400.67	734.93
400.86	788.76
401.05	718.54
401.24	814.51
401.44	779.40
401.63	849.61
401.82	772.38
402.01	805.14
402.21	739.61
402.40	826.21
402.59	734.93
402.78	791.10
402.97	767.70
403.17	882.38
403.36	847.27
403.55	844.93
403.74	877.70
403.93	863.66
404.13	959.62
404.32	922.17
404.51	952.60
404.70	1036.86
404.89	861.32
405.09	875.36
405.28	884.72
405.47	896.43
405.66	966.64
405.85	1050.90
406.05	966.64
406.24	950.26
406.43	978.34
406.62	1039.20
406.81	1090.69
407.00	945.58
407.20	1015.79
407.39	976.00
407.58	1015.79
407.77	1064.94
407.96	1034.52
408.15	1107.07
408.34	1121.12
408.54	1027.50
408.73	1076.65
408.92	1109.41
409.11	1116.44
409.30	1107.07
409.49	1114.10
409.68	1146.86
409.87	1076.65
410.07	1153.88
410.26	1104.73
410.45	1196.01
410.64	1186.65
410.83	1231.12
411.02	1107.07
411.21	1266.23
411.40	1188.99
411.59	1301.34
411.78	1261.55
411.98	1291.98
412.17	1268.57
412.36	1158.57
412.55	1329.42
412.74	1416.02
412.93	1252.19
413.12	1299.00
413.31	1373.89
413.50	1392.62
413.69	1430.07
413.88	1362.19
414.07	1401.98
414.26	1455.81
414.45	1348.15
414.64	1497.94
414.83	1565.82
415.02	1458.15
415.22	1526.03
415.41	1575.18
415.60	1500.28
415.79	1570.50
415.98	1668.80
416.17	1596.25
416.36	1565.82
416.55	1542.41
416.74	1671.14
416.93	1589.22
417.12	1680.50
417.31	1734.34
417.50	1640.72
417.69	1668.80
417.88	1666.46
418.07	1806.89
418.26	1830.30
418.45	1713.27
418.64	1834.98
418.83	1834.98
419.02	1802.21
419.21	1809.23
419.39	1830.30
419.58	1757.74
419.77	1844.34
419.96	1746.04
420.15	1818.60
420.34	1799.87
420.53	1921.58
420.72	1916.90
420.91	1877.11
421.10	1907.54
421.29	1994.14
421.48	1858.39
421.67	1947.33
421.86	1912.22
422.05	1975.41
422.24	1900.52
422.43	1977.75
422.61	1919.24
422.80	1944.99
422.99	1940.30
423.18	1989.46
423.37	2008.18
423.56	2024.56
423.75	2085.42
423.94	1952.01
424.13	1935.62
424.32	1928.60
424.50	2022.22
424.69	2057.33
424.88	2080.74
425.07	1928.60
425.26	1837.32
425.45	2008.18
425.64	2106.48
425.83	2073.71
426.01	2057.33
426.20	2108.82
426.39	2150.95
426.58	2071.37
426.77	2139.25
426.96	2148.61
427.15	2047.97
427.33	2202.44
427.52	2101.80
427.71	2099.46
427.90	2148.61
428.09	2090.10
428.28	2054.99
428.46	2104.14
428.65	2165.00
428.84	2230.53
429.03	2232.87
429.22	2275.00
429.40	2186.06
429.59	2209.47
429.78	2183.72
429.97	2099.46
430.16	2307.77
430.34	2272.66
430.53	2298.41
430.72	2326.49
430.91	2326.49
431.10	2279.68
431.28	2363.94
431.47	2403.73
431.66	2326.49
431.85	2338.20
432.03	2377.98
432.22	2413.09
432.41	2560.55
432.60	2413.09
432.79	2525.44
432.97	2462.24
433.16	2499.69
433.35	2581.61
433.54	2537.14
433.72	2553.52
433.91	2502.03
434.10	2506.71
434.28	2576.93
434.47	2544.16
434.66	2640.12
434.85	2576.93
435.03	2478.63
435.22	2633.10
435.41	2724.38
435.59	2668.21
435.78	2579.27
435.97	2644.81
436.16	2588.63
436.34	2691.62
436.53	2712.68
436.72	2633.10
436.90	2635.44
437.09	2677.57
437.28	2658.85
437.46	2637.78
437.65	2665.87
437.84	2857.79
438.02	2841.41
438.21	2771.19
438.40	2693.96
438.58	2846.09
438.77	2801.62
438.96	2803.96
439.14	2803.96
439.33	2855.45
439.52	3042.70
439.70	2963.12
439.89	3052.06
440.08	2977.16
440.26	3038.02
440.45	2991.20
440.63	3136.32
440.82	3213.56
441.01	3054.40
441.19	3101.21
441.38	3187.81
441.57	3211.22
441.75	3159.72
441.94	3260.37
442.12	3236.96
442.31	3211.22
442.50	3276.75
442.68	3206.53
442.87	3199.51
443.05	3262.71
443.24	3361.01
443.43	3297.81
443.61	3426.54
443.80	3494.42
443.98	3295.47
444.17	3243.98
444.35	3363.35
444.54	3449.95
444.73	3400.80
444.91	3433.57
445.10	3478.04
445.28	3311.86
445.47	3290.79
445.65	3412.50
445.84	3403.14
446.02	3475.70
446.21	3665.28
446.39	3412.50
446.58	3463.99
446.77	3513.14
446.95	3618.47
447.14	3435.91
447.32	3492.08
447.51	3342.28
447.69	3487.40
447.88	3487.40
448.06	3524.85
448.25	3468.67
448.43	3585.70
448.62	3482.72
448.80	3487.40
448.99	3602.08
449.17	3597.40
449.36	3595.06
449.54	3700.39
449.73	3632.51
449.91	3709.75
450.10	3794.01
450.28	3838.48
450.46	3698.05
450.65	3749.54
450.83	3770.60
451.02	3728.47
451.20	3803.37
451.39	3819.75
451.57	3899.33
451.76	3688.68
451.94	3805.71
452.13	3911.04
452.31	3801.03
452.49	3728.47
452.68	3861.88
452.86	3826.78
453.05	3943.80
453.23	3962.53
453.42	3913.38
453.60	3922.74
453.78	3934.44
453.97	3953.16
454.15	3843.16
454.34	3899.33
454.52	4074.87
454.70	4060.83
454.89	3974.23
455.07	3976.57
455.26	3901.67
455.44	4088.92
455.62	4166.15
455.81	3964.87
455.99	4035.08
456.17	4124.02
456.36	4198.92
456.54	4227.01
456.73	4266.80
456.91	4276.16
457.09	4269.14
457.28	4231.69
457.46	4217.65
457.64	4297.22
457.83	4503.19
458.01	4248.07
458.19	4198.92
458.38	4372.12
458.56	4418.93
458.74	4447.02
458.93	4479.79
459.11	4404.89
459.29	4344.03
459.48	4456.38
459.66	4440.00
459.84	4432.97
460.03	4585.11
460.21	4496.17
460.39	4648.30
460.57	4524.26
460.76	4578.09
460.94	4622.56
461.12	4528.94
461.31	4594.47
461.49	4561.70
461.67	4688.09
461.85	4671.71
462.04	4777.03
462.22	4786.40
462.40	4688.09
462.59	4692.77
462.77	4830.87
462.95	4814.48
463.13	4683.41
463.32	4692.77
463.50	4856.61
463.68	4856.61
463.86	4777.03
464.05	4739.58
464.23	4905.76
464.41	4868.31
464.59	4884.70
464.78	4961.94
464.96	4835.55
465.14	4854.27
465.32	5060.24
465.50	5055.56
465.69	5006.41
465.87	5001.72
466.05	4990.02
466.23	5039.17
466.41	5018.11
466.60	5029.81
466.78	4870.65
466.96	4959.60
467.14	5004.07
467.32	5050.88
467.51	5116.41
467.69	5100.03
467.87	5165.56
468.05	5125.77
468.23	5100.03
468.41	5025.13
468.60	5025.13
468.78	5294.29
468.96	4987.68
469.14	5261.52
469.32	5357.49
469.50	5298.97
469.69	5188.97
469.87	5298.97
470.05	5476.85
470.23	5277.91
470.41	5385.57
470.59	5561.11
470.77	5350.46
470.95	5329.40
471.14	5612.60
471.32	5432.38
471.50	5570.48
471.68	5722.61
471.86	5598.56
472.04	5748.36
472.22	5657.07
472.40	5570.48
472.58	5500.26
472.77	5650.05
472.95	5645.37
473.13	5886.45
473.31	5671.12
473.49	5757.72
473.67	5860.70
473.85	5912.19
474.03	5947.30
474.21	5975.39
474.39	6078.37
474.57	5963.68
474.75	6036.24
474.93	6136.88
475.12	6010.50
475.30	6267.95
475.48	6143.91
475.66	6111.14
475.84	6298.38
476.02	6253.91
476.20	6228.17
476.38	6429.45
476.56	6574.56
476.74	6548.82
476.92	6583.93
477.10	6368.60
477.28	6583.93
477.46	6586.27
477.64	6565.20
477.82	6604.99
478.00	6860.11
478.18	6843.73
478.36	6951.39
478.54	7007.56
478.72	6963.09
478.90	7075.44
479.08	7250.98
479.26	7133.95
479.44	7218.21
479.62	7232.26
479.80	7456.95
479.98	7300.13
480.16	7517.80
480.34	7602.06
480.52	7548.23
480.70	7777.60
480.88	7562.27
481.06	7793.98
481.24	7599.72
481.41	7950.80
481.59	8107.62
481.77	8049.10
481.95	8035.06
482.13	7918.03
482.31	7852.50
482.49	8053.78
482.67	8301.88
482.85	8404.86
483.03	8425.93
483.21	8372.10
483.39	8652.96
483.57	8463.38
483.74	8542.96
483.92	8692.75
484.10	8765.31
484.28	8681.05
484.46	8887.01
484.64	9261.50
484.82	8945.53
485.00	9071.92
485.18	9132.77
485.35	9444.06
485.53	9308.31
485.71	9530.66
485.89	9591.52
486.07	9525.98
486.25	9439.38
486.43	9635.99
486.61	9813.87
486.78	9741.31
486.96	9982.38
487.14	10005.79
487.32	10092.39
487.50	9991.75
487.68	10193.03
487.85	10375.59
488.03	10450.49
488.21	10509.01
488.39	10562.84
488.57	10686.89
488.75	10696.25
488.92	10658.80
489.10	10670.50
489.28	10869.45
489.46	10878.81
489.64	11110.52
489.81	11302.45
489.99	11222.87
490.17	11304.79
490.35	11288.40
490.53	11569.27
490.70	11634.80
490.88	11595.01
491.06	11698.00
491.24	11662.89
491.41	11887.58
491.59	11829.07
491.77	11740.13
491.95	12142.70
492.13	12105.25
492.30	11974.18
492.48	12266.75
492.66	12358.03
492.84	12196.53
493.01	12353.35
493.19	12477.40
493.37	12706.77
493.54	12662.30
493.72	12662.30
493.90	12730.17
494.08	12898.69
494.25	12994.65
494.43	12828.48
494.61	13319.99
494.79	13319.99
494.96	12992.31
495.14	13345.73
495.32	13357.44
495.49	13455.74
495.67	13336.37
495.85	13451.06
496.02	13558.72
496.20	13614.90
496.38	13699.16
496.55	13991.72
496.73	14085.34
496.91	14015.13
497.09	14146.20
497.26	14431.74
497.44	14214.07
497.62	14305.35
497.79	14583.88
497.97	14317.06
498.14	14539.41
498.32	14757.08
498.50	14796.87
498.67	14869.42
498.85	14846.02
499.03	14792.19
499.20	14670.48
499.38	14993.47
499.56	15131.56
499.73	15061.35
499.91	15358.60
500.08	15515.41
500.26	15396.04
500.44	15103.48
500.61	15382.00
500.79	15700.31
500.97	15222.84
501.14	15742.44
501.32	15564.56
501.49	15679.25
501.67	15831.38
501.84	15782.23
502.02	15871.17
502.20	15763.51
502.37	16173.10
502.55	15796.28
502.72	16210.55
502.90	15896.92
503.07	16037.35
503.25	16079.48
503.43	16191.83
503.60	16112.25
503.78	16402.47
503.95	16730.15
504.13	16521.84
504.30	16531.20
504.48	16697.38
504.65	16594.40
504.83	16933.78
505.01	16854.20
505.18	17099.95
505.36	16954.84
505.53	16868.24
505.71	17121.02
505.88	17048.46
506.06	16727.81
506.23	16957.18
506.41	16889.31
506.58	17373.80
506.76	16872.92
506.93	17268.47
507.11	17252.09
507.28	17083.57
507.46	17319.96
507.63	17422.95
507.81	17563.38
507.98	17425.29
508.16	17469.76
508.33	17563.38
508.50	17649.98
508.68	17865.31
508.85	18146.17
509.03	17919.14
509.20	17853.61
509.38	18010.42
509.55	18331.08
509.73	18246.82
509.90	18441.08
510.08	18420.02
510.25	18113.41
510.42	18515.98
510.60	18462.15
510.77	18548.75
510.95	18459.81
511.12	18544.06
511.30	18750.03
511.47	18614.28
511.64	18747.69
511.82	18930.25
511.99	18768.76
512.17	19058.98
512.34	19049.62
512.51	19426.45
512.69	19161.97
512.86	19157.28
513.04	19534.11
513.21	19321.12
513.38	19302.40
513.56	19295.38
513.73	19456.87
513.90	19470.92
514.08	19267.29
514.25	19726.04
514.43	19723.69
514.60	19747.10
514.77	19754.12
514.95	19562.20
515.12	19517.73
515.29	19955.41
515.47	19592.62
515.64	19936.68
515.81	19934.34
515.99	20081.80
516.16	20152.01
516.33	20049.03
516.51	20374.36
516.68	20203.50
516.85	20514.80
517.03	20311.17
517.20	20449.26
517.37	20156.69
517.54	20332.23
517.72	20510.11
517.89	20596.71
518.06	20882.26
518.24	20638.84
518.41	20680.97
518.58	20568.63
518.75	20776.94
518.93	20755.87
519.10	20467.98
519.27	20844.81
519.45	20945.45
519.62	20863.54
519.79	20762.89
519.96	20779.28
520.14	20985.24
520.31	21046.10
520.48	21408.88
520.65	21214.62
520.83	20931.41
521.00	21247.38
521.17	20795.66
521.34	21333.98
521.52	21343.35
521.69	21282.49
521.86	21619.53
522.03	21736.56
522.20	22101.68
522.38	21516.54
522.55	21804.43
522.72	21649.96
522.89	21661.66
523.07	22171.89
523.24	21617.19
523.41	22068.91
523.58	21851.24
523.75	22132.11
523.92	21701.45
524.10	22181.26
524.27	22256.15
524.44	22216.36
524.61	22398.93
524.78	22300.62
524.96	22471.48
525.13	22309.99
525.30	22338.07
525.47	22427.01
525.64	22469.14
525.81	22616.60
525.98	22621.28
526.16	22651.70
526.33	22764.05
526.50	22977.04
526.67	22534.68
526.84	22752.35
527.01	22635.32
527.18	22403.61
527.36	23096.41
527.53	23030.87
527.70	23094.07
527.87	23028.53
528.04	23161.94
528.21	22981.72
528.38	23138.54
528.55	23253.22
528.72	23110.45
528.89	23091.73
529.07	23442.81
529.24	23370.25
529.41	23601.96
529.58	23405.36
529.75	23077.68
529.92	23520.04
530.09	23534.09
530.26	23735.37
530.43	23716.65
530.60	23761.12
530.77	23819.63
530.94	23580.90
531.11	23768.14
531.28	23618.35
531.46	23538.77
531.63	23887.51
531.80	23999.85
531.97	23646.43
532.14	24182.42
532.31	23894.53
532.48	24018.58
532.65	24105.18
532.82	23901.55
532.99	23536.43
533.16	24044.32
533.33	24074.75
533.50	24613.07
533.67	24367.32
533.84	24315.83
534.01	24217.52
534.18	24046.66
534.35	24659.88
534.52	24383.70
534.69	24486.68
534.86	24685.63
535.03	24379.02
535.20	24596.69
535.37	24542.86
535.54	24203.48
535.71	24297.10
535.88	24723.08
536.05	24212.84
536.22	25039.05
536.38	24966.49
536.55	25069.48
536.72	24861.17
536.89	25083.52
537.06	24489.03
537.23	25034.37
537.40	24982.88
537.57	24889.26
537.74	25027.35
537.91	24985.22
538.08	25057.78
538.25	25029.69
538.42	24886.92
538.59	25603.12
538.75	24622.44
538.92	25039.05
539.09	25266.08
539.26	25156.08
539.43	25273.10
539.60	25467.37
539.77	25582.06
539.94	25450.99
540.11	25883.98
540.28	25097.56
540.44	25298.85
540.61	25460.35
540.78	25186.50
540.95	25483.75
541.12	25628.87
541.29	25624.18
541.46	25507.16
541.62	25315.23
541.79	25474.39
541.96	25277.79
542.13	25535.24
542.30	26008.03
542.47	25483.75
542.63	25881.64
542.80	26101.65
542.97	26008.03
543.14	26206.98
543.31	26106.34
543.48	25741.21
543.64	26682.11
543.81	25853.56
543.98	26424.65
544.15	26806.16
544.32	26277.19
544.48	26782.75
544.65	26719.56
544.82	26682.11
544.99	25989.31
545.16	26434.01
545.32	26602.53
545.49	26719.56
545.66	26621.25
545.83	26703.17
546.00	27087.02
546.16	26485.50
546.33	26288.90
546.50	26293.58
546.67	26679.77
546.83	26387.20
547.00	26728.92
547.17	26555.72
547.34	26909.14
547.50	26981.70
547.67	27009.78
547.84	26895.10
548.00	26836.58
548.17	26829.56
548.34	26869.35
548.51	26899.78
548.67	27016.80
548.84	27009.78
549.01	27108.08
549.18	27239.15
549.34	26993.40
549.51	26775.73
549.68	27117.45
549.84	26897.44
550.01	27140.85
550.18	27328.10
550.34	27384.27
550.51	27454.48
550.68	27236.81
550.84	27138.51
551.01	27297.67
551.18	27374.91
551.34	26923.18
551.51	27487.25
551.68	27527.04
551.84	27372.57
552.01	27702.58
552.18	27679.18
552.34	27501.29
552.51	27559.81
552.68	27417.04
552.84	27431.08
553.01	27658.11
553.18	27702.58
553.34	27672.15
553.51	27704.92
553.67	27562.15
553.84	27894.50
554.01	27503.64
554.17	28006.85
554.34	27634.71
554.51	27494.27
554.67	28133.24
554.84	27482.57
555.00	27630.02
555.17	27604.28
555.33	28063.02
555.50	28016.21
555.67	27948.34
555.83	28027.92
556.00	27985.79
556.16	28292.40
556.33	27908.55
556.50	27852.38
556.66	28177.71
556.83	28252.61
556.99	28388.36
557.16	28212.82
557.32	28379.00
557.49	28280.69
557.65	28109.83
557.82	28409.42
557.98	27995.15
558.15	28264.31
558.32	28491.34
558.48	27927.27
558.65	28535.81
558.81	28364.95
558.98	28645.82
559.14	28599.01
559.31	28444.53
559.47	28315.80
559.64	28189.41
559.80	28545.17
559.97	29043.71
560.13	28395.38
560.30	28603.69
560.46	28713.69
560.63	28285.37
560.79	29081.16
560.96	28802.63
561.12	28800.29
561.29	28669.22
561.45	28678.58
561.61	28367.29
561.78	28526.45
561.94	28627.09
562.11	28453.89
562.27	28453.89
562.44	28659.86
562.60	28601.35
562.77	28950.09
562.93	28809.65
563.10	29085.84
563.26	28620.07
563.42	29209.89
563.59	28840.08
563.75	28819.02
563.92	28933.70
564.08	28587.30
564.24	28673.90
564.41	28896.25
564.57	28858.81
564.74	28940.72
564.90	28769.86
565.07	28823.70
565.23	28985.19
565.39	28629.43
565.56	29029.66
565.72	29050.73
565.88	28837.74
566.05	28807.31
566.21	29090.52
566.38	28893.91
566.54	29003.92
566.70	29151.37
566.87	28961.79
567.03	28856.46
567.19	29216.91
567.36	29469.69
567.52	29099.88
567.68	28947.75
567.85	28865.83
568.01	29142.01
568.17	29010.94
568.34	29252.02
568.50	29216.91
568.66	29209.89
568.83	29280.10
568.99	29006.26
569.15	28999.24
569.32	29338.62
569.48	29373.72
569.64	29355.00
569.81	29041.37
569.97	29291.80
570.13	29596.07
570.30	29034.35
570.46	29324.57
570.62	29219.25
570.78	29376.06
570.95	29338.62
571.11	29163.08
571.27	29130.31
571.43	29085.84
571.60	29467.34
571.76	29024.98
571.92	29177.12
572.09	29469.69
572.25	29322.23
572.41	29270.74
572.57	29352.66
572.74	29219.25
572.90	29259.04
573.06	29422.87
573.22	29174.78
573.38	29081.16
573.55	29418.19
573.71	29752.89
573.87	29479.05
574.03	29043.71
574.20	29340.96
574.36	29322.23
574.52	29277.76
574.68	29511.81
574.84	29336.27
575.01	29443.94
575.17	29465.00
575.33	29696.72
575.49	29120.95
575.65	29682.67
575.82	29895.66
575.98	29699.06
576.14	29626.50
576.30	29617.14
576.46	29366.70
576.62	29237.97
576.79	30099.29
576.95	29357.34
577.11	29401.81
577.27	29551.60
577.43	29600.76
577.59	29715.44
577.75	29589.05
577.92	29549.26
578.08	29331.59
578.24	29015.62
578.40	29642.88
578.56	29542.24
578.72	29404.15
578.88	29921.41
579.04	29654.59
579.21	29649.91
579.37	29516.50
579.53	29366.70
579.69	29685.01
579.85	29661.61
580.01	29282.44
580.17	29488.41
580.33	29296.49
580.49	29757.57
580.65	29736.51
580.82	29593.73
580.98	29525.86
581.14	29663.95
581.30	29586.71
581.46	29507.13
581.62	29816.08
581.78	29401.81
581.94	29881.62
582.10	29570.33
582.26	29701.40
582.42	29823.11
582.58	29883.96
582.74	29776.30
582.90	29589.05
583.06	29926.09
583.22	29493.09
583.38	29481.39
583.54	29851.19
583.70	29930.77
583.86	29886.30
584.02	29851.19
584.18	29949.50
584.34	29771.61
584.50	30178.87
584.66	29769.27
584.82	29717.78
584.98	29530.54
585.14	29841.83
585.30	29565.65
585.46	29825.45
585.62	29305.85
585.78	29834.81
585.94	29546.92
586.10	29844.17
586.26	29869.92
586.42	30328.66
586.58	29951.84
586.74	29645.23
586.90	29273.08
587.06	29528.20
587.22	29958.86
587.38	29493.09
587.54	29773.95
587.70	29867.58
587.86	29914.39
588.02	30005.67
588.18	30356.75
588.34	29923.75
588.49	29965.88
588.65	29666.29
588.81	29930.77
588.97	29600.76
589.13	29905.02
589.29	30010.35
589.45	29947.15
589.61	29890.98
589.77	30127.38
589.93	29954.18
590.08	29916.73
590.24	30228.02
590.40	29752.89
590.56	30380.15
590.72	30082.91
590.88	29624.16
591.04	30211.64
591.20	29813.74
591.35	30574.42
591.51	30387.18
591.67	30459.73
591.83	30253.76
591.99	30103.97
592.15	30237.38
592.31	30223.34
592.46	30003.33
592.62	29797.36
592.78	30134.40
592.94	30054.82
593.10	29991.62
593.26	30134.40
593.41	30064.18
593.57	30361.43
593.73	30178.87
593.89	30466.75
594.05	30073.54
594.20	30412.92
594.36	30295.89
594.52	30155.46
594.68	30092.27
594.84	29848.85
594.99	30265.47
595.15	30323.98
595.31	30438.67
595.47	30429.30
595.62	30277.17
595.78	30113.33
595.94	30265.47
596.10	30281.85
596.25	30384.83
596.41	29837.15
596.57	30146.10
596.73	30267.81
596.88	29986.94
597.04	30492.50
597.20	30398.88
597.36	30665.70
597.51	30529.95
597.67	30213.98
597.83	30267.81
597.99	30270.15
598.14	30213.98
598.30	30422.28
598.46	29921.41
598.61	30410.58
598.77	30071.20
598.93	30590.80
599.09	30031.41
599.24	30548.67
599.40	30803.79
599.56	30244.40
599.71	30101.63
599.87	30235.04
600.03	30377.81
600.18	30338.02
600.34	30419.94
600.50	30253.76
600.65	29876.94
600.81	30340.36
600.97	30501.86
601.12	30389.52
601.28	30492.50
601.44	30366.11
601.59	30466.75
601.75	30452.71
601.91	30281.85
602.06	30319.30
602.22	30361.43
602.37	30305.26
602.53	30150.78
602.69	30384.83
602.84	30192.91
603.00	30286.53
603.16	30441.01
603.31	30401.22
603.47	30192.91
603.62	30075.88
603.78	30272.49
603.94	30623.57
604.09	30302.92
604.25	30539.31
604.40	29951.84
604.56	29984.60
604.71	30082.91
604.87	30089.93
605.03	30471.43
605.18	30279.51
605.34	30146.10
605.49	30015.03
605.65	30110.99
605.80	29935.45
605.96	30103.97
606.12	30314.62
606.27	30167.16
606.43	30071.20
606.58	30441.01
606.74	30328.66
606.89	30073.54
607.05	30202.27
607.20	30155.46
607.36	29806.72
607.51	30490.16
607.67	30024.39
607.82	29879.28
607.98	30110.99
608.13	29783.32
608.29	29986.94
608.44	29874.60
608.60	30024.39
608.75	30136.74
608.91	30361.43
609.06	29860.55
609.22	30342.70
609.37	29998.65
609.53	29982.26
609.68	29902.68
609.84	29703.74
609.99	29937.79
610.15	30178.87
610.30	29788.00
610.46	30108.65
610.61	29958.86
610.76	30209.29
610.92	30169.51
611.07	30078.22
611.23	30108.65
611.38	29958.86
611.54	29401.81
611.69	29752.89
611.84	30068.86
612.00	30026.73
612.15	29780.98
612.31	30230.36
612.46	29893.32
612.62	29848.85
612.77	29675.65
612.92	30614.21
613.08	30066.52
613.23	30167.16
613.39	29738.85
613.54	29617.14
613.69	29825.45
613.85	29490.75
614.00	29521.18
614.15	29771.61
614.31	29418.19
614.46	29846.51
614.62	29890.98
614.77	29839.49
614.92	29567.99
615.08	29600.76
615.23	29865.24
615.38	29806.72
615.54	29397.13
615.69	29528.20
615.84	29687.36
616.00	29521.18
616.15	29450.96
616.30	29490.75
616.46	29429.90
616.61	29539.90
616.76	29720.12
616.92	29275.42
617.07	29434.58
617.22	29291.80
617.37	29584.37
617.53	29376.06
617.68	29369.04
617.83	29352.66
617.99	28854.12
618.14	29266.06
618.29	29567.99
618.45	29366.70
618.60	29420.53
618.75	29481.39
618.90	29078.82
619.06	29380.74
619.21	29397.13
619.36	29404.15
619.51	29289.46
619.67	29032.00
619.82	29228.61
619.97	29362.02
620.12	28973.49
620.28	29369.04
620.43	29233.29
620.58	29291.80
620.73	29450.96
620.89	29362.02
621.04	29429.90
621.19	29142.01
621.34	28751.14
621.49	29064.77
621.65	28840.08
621.80	29212.23
621.95	28484.32
622.10	29127.97
622.25	28811.99
622.41	28987.53
622.56	28835.40
622.71	28854.12
622.86	28947.75
623.01	28788.59
623.16	29118.60
623.32	28716.03
623.47	28868.17
623.62	29024.98
623.77	28704.33
623.92	28680.92
624.07	28573.26
624.23	28961.79
624.38	28603.69
624.53	28896.25
624.68	28994.56
624.83	28414.10
624.98	29230.95
625.13	28617.73
625.29	28699.65
625.44	28591.98
625.59	28371.97
625.74	28409.42
625.89	28374.31
626.04	28350.91
626.19	28596.67
626.34	28404.74
626.49	28250.27
626.65	28072.39
626.80	28297.08
626.95	28463.25
627.10	28201.11
627.25	28226.86
627.40	28053.66
627.55	28584.96
627.70	28189.41
627.85	28102.81
628.00	28173.03
628.15	28276.01
628.30	27857.06
628.45	28346.23
628.60	28236.22
628.76	28591.98
628.91	28088.77
629.06	28306.44
629.21	28264.31
629.36	28140.26
629.51	28194.09
629.66	28156.64
629.81	27983.44
629.96	27995.15
630.11	27913.23
630.26	27798.54
630.41	27704.92
630.56	27824.29
630.71	27697.90
630.86	28154.30
631.01	27920.25
631.16	28180.05
631.31	27835.99
631.46	27882.80
631.61	28299.42
631.76	27978.76
631.91	27803.22
632.06	27597.26
632.21	27754.07
632.36	27985.79
632.51	27445.12
632.66	27779.82
632.81	27669.81
632.96	27761.09
633.10	27910.89
633.25	27761.09
633.40	27747.05
633.55	27807.90
633.70	27658.11
633.85	27377.25
634.00	27318.73
634.15	27590.24
634.30	27538.74
634.45	27159.58
634.60	27601.94
634.75	27400.65
634.90	27054.25
635.05	27620.66
635.19	27496.61
635.34	27854.72
635.49	27578.53
635.64	27318.73
635.79	27847.69
635.94	27337.46
636.09	27379.59
636.24	27271.92
636.39	27454.48
636.53	27402.99
636.68	27103.40
636.83	26902.12
636.98	27353.84
637.13	27126.81
637.28	27255.54
637.43	27339.80
637.57	27367.88
637.72	26885.73
637.87	27110.43
638.02	27091.70
638.17	27461.51
638.32	26888.07
638.46	26885.73
638.61	27218.09
638.76	26787.43
638.91	26965.31
639.06	26778.07
639.20	27012.12
639.35	27068.30
639.50	27154.90
639.65	26948.93
639.80	27269.58
639.94	26876.37
640.09	27061.27
640.24	26714.87
640.39	26745.30
640.54	26607.21
640.68	26487.84
640.83	26885.73
640.98	26651.68
641.13	26670.40
641.27	26969.99
641.42	26490.18
641.57	26529.97
641.72	26864.67
641.86	26436.35
642.01	26281.88
642.16	26518.27
642.31	26506.57
642.45	26735.94
642.60	26520.61
642.75	26511.25
642.90	26333.37
643.04	26396.56
643.19	26188.25
643.34	26654.02
643.48	26319.32
643.63	26656.36
643.78	26216.34
643.93	26408.26
644.07	26902.12
644.22	26335.71
644.37	26352.09
644.51	26630.62
644.66	26527.63
644.81	26347.41
644.95	26199.96
645.10	26359.11
645.25	26106.34
645.39	26230.38
645.54	26075.91
645.69	26015.05
645.83	26106.34
645.98	26295.92
646.13	26101.65
646.27	26209.32
646.42	26529.97
646.57	26237.41
646.71	26415.29
646.86	26183.57
647.00	25912.07
647.15	26017.40
647.30	25865.26
647.44	26199.96
647.59	25933.14
647.74	25984.63
647.88	26125.06
648.03	26230.38
648.17	26199.96
648.32	26111.02
648.47	26064.21
648.61	25804.41
648.76	26387.20
648.90	26211.66
649.05	26389.54
649.20	25720.15
649.34	26218.68
649.49	25797.38
649.63	25769.30
649.78	25900.37
649.92	25465.03
650.07	26246.77
650.21	25699.08
650.36	25701.42
650.51	25460.35
650.65	25668.66
650.80	25490.77
650.94	25909.73
651.09	25886.32
651.23	25883.98
651.38	25394.81
651.52	25710.78
651.67	25348.00
651.81	25436.94
651.96	25631.21
652.10	25853.56
652.25	25387.79
652.39	25465.03
652.54	25680.36
652.68	25476.73
652.83	25802.07
652.97	25624.18
653.12	25701.42
653.26	25336.30
653.41	25247.36
653.55	25266.08
653.70	24898.62
653.84	25645.25
653.99	25572.69
654.13	25343.32
654.27	25331.62
654.42	25596.10
654.56	25383.11
654.71	25453.33
654.85	25219.27
655.00	25322.26
655.14	25589.08
655.29	25247.36
655.43	25245.02
655.57	25097.56
655.72	24898.62
655.86	25109.27
656.01	24966.49
656.15	24891.60
656.30	25144.38
656.44	25109.27
656.58	25116.29
656.73	24882.24
656.87	25102.25
657.01	24989.90
657.16	25020.33
657.30	25188.85
657.45	24924.36
657.59	25064.80
657.73	24713.72
657.88	24858.83
658.02	25053.09
658.16	24744.14
658.31	24973.52
658.45	24680.95
658.60	24439.87
658.74	24746.48
658.88	24556.90
659.03	24573.28
659.17	24615.41
659.31	24760.53
659.46	24716.06
659.60	24854.15
659.74	24592.01
659.89	24685.63
660.03	24379.02
660.17	24650.52
660.32	24191.78
660.46	24442.21
660.60	24325.19
660.74	24304.12
660.89	24254.97
661.03	23819.63
661.17	24091.13
661.32	24498.39
661.46	24233.91
661.60	24149.65
661.74	24325.19
661.89	24053.69
662.03	24320.51
662.17	24079.43
662.31	23854.74
662.46	24418.81
662.60	24102.84
662.74	23948.36
662.88	23854.74
663.03	23545.79
663.17	23676.86
663.31	23765.80
663.45	23763.46
663.60	23726.01
663.74	23672.18
663.88	23578.56
664.02	23541.11
664.17	23875.80
664.31	23367.91
664.45	23290.67
664.59	23744.73
664.73	23363.23
664.88	23335.14
665.02	23419.40
665.16	23470.89
665.30	23101.09
665.44	23482.59
665.59	23201.73
665.73	23044.91
665.87	23168.96
666.01	23222.80
666.15	23166.62
666.29	23506.00
666.44	23365.57
666.58	22911.50
666.72	23222.80
666.86	23178.33
667.00	23232.16
667.14	22560.42
667.28	23061.30
667.43	22970.02
667.57	22759.37
667.71	22658.73
667.85	22881.08
667.99	22558.08
668.13	22888.10
668.27	22909.16
668.41	22993.42
668.56	22590.85
668.70	22864.69
668.84	22625.96
668.98	22597.87
669.12	22654.05
669.26	22691.49
669.40	22464.46
669.54	22455.10
669.68	22548.72
669.82	22565.10
669.96	22305.31
670.10	22118.06
670.25	22520.63
670.39	22113.38
670.53	22335.73
670.67	21923.80
670.81	22391.91
670.95	22136.79
671.09	22148.49
671.23	22085.30
671.37	21965.93
671.51	22218.71
671.65	22267.86
671.79	21710.81
671.93	21759.96
672.07	21752.94
672.21	21605.49
672.35	21900.39
672.49	21673.36
672.63	21455.69
672.77	21312.92
672.91	21287.17
673.05	21561.02
673.19	21184.19
673.33	21135.04
673.47	21095.25
673.61	21373.77
673.75	21439.31
673.89	21280.15
674.03	21097.59
674.17	21291.85
674.31	21266.11
674.45	20957.16
674.59	21027.37
674.73	21378.45
674.87	20755.87
675.01	20992.26
675.15	20868.22
675.29	20690.34
675.43	20793.32
675.56	20753.53
675.70	20865.88
675.84	20460.96
675.98	20039.67
676.12	20662.25
676.26	20795.66
676.40	20430.54
676.54	20816.72
676.68	20631.82
676.82	19786.89
676.96	20276.06
677.10	20297.13
677.23	20037.33
677.37	19854.76
677.51	20060.73
677.65	19906.26
677.79	19819.66
677.93	19735.40
678.07	19697.95
678.21	19506.02
678.34	19541.13
678.48	19552.84
678.62	19370.27
678.76	19599.65
678.90	19358.57
679.04	19257.93
679.18	19557.52
679.31	19096.43
679.45	18745.35
679.59	18939.62
679.73	18941.96
679.87	18951.32
680.00	18635.35
680.14	18586.19
680.28	18567.47
680.42	19117.50
680.56	18890.46
680.70	18799.18
680.83	18625.98
680.97	18845.99
681.11	18913.87
681.25	18490.23
681.39	18682.16
681.52	18314.69
681.66	18078.30
681.80	18167.24
681.94	18216.39
682.07	18361.50
682.21	18277.24
682.35	18082.98
682.49	17837.22
682.62	17874.67
682.76	17958.93
682.90	17659.34
683.04	18235.11
683.17	17797.43
683.31	17645.30
683.45	17806.80
683.59	17987.02
683.72	17755.30
683.86	17605.51
684.00	17514.23
684.13	17589.13
684.27	17640.62
684.41	17252.09
684.55	17071.87
684.68	17139.74
684.82	17207.62
684.96	17060.16
685.09	16840.15
685.23	16819.09
685.37	17235.70
685.50	16893.99
685.64	16943.14
685.78	16882.28
685.91	17048.46
686.05	17029.74
686.19	16833.13
686.32	16692.70
686.46	16702.06
686.60	16470.35
686.73	16308.85
686.87	16205.87
687.01	16208.21
687.14	16306.51
687.28	16091.18
687.42	15981.18
687.55	16163.74
687.69	16236.30
687.82	16053.73
687.96	15871.17
688.10	15913.30
688.23	16086.50
688.37	15995.22
688.50	15915.64
688.64	15655.84
688.78	15805.64
688.91	15587.97
689.05	15489.67
689.18	15463.92
689.32	15063.69
689.46	15543.50
689.59	15272.00
689.73	15470.94
689.86	15283.70
690.00	15096.46
690.13	15227.53
690.27	15215.82
690.41	15136.24
690.54	14953.68
690.68	15103.48
690.81	14967.73
690.95	14972.41
691.08	15229.87
691.22	14792.19
691.35	14649.41
691.49	14981.77
691.62	14647.07
691.76	14579.20
691.89	14162.58
692.03	14291.31
692.16	14015.13
692.30	14211.73
692.43	13937.89
692.57	14015.13
692.70	14125.13
692.84	14310.04
692.97	14143.86
693.11	14279.61
693.24	13811.50
693.38	14097.05
693.51	13827.88
693.65	13898.10
693.78	13664.05
693.92	13727.24
694.05	13984.70
694.19	13462.76
694.32	13378.50
694.45	13348.08
694.59	13308.29
694.72	13284.88
694.86	13132.75
694.99	13123.38
695.13	13015.72
695.26	13043.81
695.39	12922.10
695.53	13130.41
695.66	13172.54
695.80	12908.05
695.93	12840.18
696.07	13078.91
696.20	13104.66
696.33	12849.54
696.47	12545.27
696.60	12732.51
696.73	12299.52
696.87	12826.14
697.00	12421.22
697.14	12470.37
697.27	12280.79
697.40	11971.84
697.54	12102.91
697.67	12184.83
697.80	12386.12
697.94	12039.72
698.07	11597.35
698.21	11934.39
698.34	11976.52
698.47	12002.27
698.61	12002.27
698.74	12032.69
698.87	11885.24
699.01	11758.85
699.14	11815.02
699.27	11852.47
699.40	11836.09
699.54	11447.56
699.67	11627.78
699.80	11520.12
699.94	11379.68
700.07	11257.98
700.20	11307.13
700.34	11236.91
700.47	11082.44
700.60	11194.78
700.73	11096.48
700.87	11047.33
701.00	10963.07
701.13	11089.46
701.26	11009.88
701.40	11063.71
701.53	10867.11
701.66	10998.18
701.79	10778.17
701.93	10661.14
702.06	10668.16
702.19	10672.84
702.32	10267.93
702.46	10600.29
702.59	10270.27
702.72	10249.21
702.85	10368.57
702.99	10239.84
703.12	10368.57
703.25	10155.58
703.38	10211.76
703.51	10225.80
703.65	10190.69
703.78	10202.40
703.91	10010.47
704.04	10200.05
704.17	9994.09
704.31	9970.68
704.44	9909.83
704.57	9973.02
704.70	9706.20
704.83	9804.50
704.96	9551.73
705.10	9753.01
705.23	9633.64
>>>>>End Processed Spectral Data<<<<<
