SpectraSuite Data File
++++++++++++++++++++++++++++++++++++
Date: Fri Oct 18 13:58:17 GMT-05:00 2013
User: bianchi
Dark Spectrum Present: No
Reference Spectrum Present: No
Number of Sampled Component Spectra: 1
Spectrometers: USB2+H05261
Integration Time (usec): 50000 (USB2+H05261)
Spectra Averaged: 1 (USB2+H05261)
Boxcar Smoothing: 0 (USB2+H05261)
Correct for Electrical Dark: No (USB2+H05261)
Strobe/Lamp Enabled: No (USB2+H05261)
Correct for Detector Non-linearity: No (USB2+H05261)
Correct for Stray Light: No (USB2+H05261)
Number of Pixels in Processed Spectrum: 2048
>>>>>Begin Processed Spectral Data<<<<<
365.73	0.00
365.92	0.00
366.12	0.00
366.32	0.00
366.52	0.00
366.72	0.00
366.91	0.00
367.11	0.00
367.31	0.00
367.51	0.00
367.70	0.00
367.90	0.00
368.10	0.00
368.30	0.00
368.49	0.00
368.69	0.00
368.89	0.00
369.09	0.00
369.28	0.00
369.48	0.00
369.68	0.00
369.87	0.00
370.07	0.00
370.27	0.00
370.47	0.00
370.66	149.79
370.86	23.41
371.06	133.41
371.25	170.86
371.45	105.32
371.65	170.86
371.84	126.39
372.04	154.48
372.24	212.99
372.44	227.03
372.63	311.29
372.83	222.35
373.03	243.42
373.22	163.84
373.42	149.79
373.62	210.65
373.81	241.08
374.01	255.12
374.21	264.48
374.40	248.10
374.60	252.78
374.79	315.97
374.99	248.10
375.19	255.12
375.38	208.31
375.58	255.12
375.78	283.20
375.97	290.23
376.17	252.78
376.37	257.46
376.56	257.46
376.76	243.42
376.95	250.44
377.15	283.20
377.35	215.33
377.54	320.65
377.74	292.57
377.93	259.80
378.13	259.80
378.33	325.33
378.52	320.65
378.72	278.52
378.91	252.78
379.11	198.95
379.31	250.44
379.50	297.25
379.70	280.86
379.89	234.05
380.09	236.39
380.28	322.99
380.48	292.57
380.68	337.04
380.87	306.61
381.07	285.55
381.26	285.55
381.46	320.65
381.65	404.91
381.85	327.68
382.04	327.68
382.24	425.98
382.43	376.83
382.63	297.25
382.83	360.44
383.02	388.53
383.22	337.04
383.41	259.80
383.61	421.30
383.80	290.23
384.00	344.06
384.19	367.46
384.39	299.59
384.58	339.38
384.78	367.46
384.97	374.49
385.17	447.04
385.36	416.62
385.56	372.15
385.75	400.23
385.95	449.38
386.14	514.92
386.34	353.42
386.53	411.93
386.72	355.76
386.92	428.32
387.11	411.93
387.31	311.29
387.50	440.02
387.70	402.57
387.89	383.85
388.09	482.15
388.28	376.83
388.48	444.70
388.67	465.77
388.86	435.34
389.06	465.77
389.25	484.49
389.45	437.68
389.64	447.04
389.84	514.92
390.03	449.38
390.22	477.47
390.42	404.91
390.61	484.49
390.81	498.53
391.00	500.87
391.19	517.26
391.39	580.45
391.58	519.60
391.78	561.73
391.97	498.53
392.16	524.28
392.36	545.34
392.55	533.64
392.75	585.13
392.94	517.26
393.13	578.11
393.33	533.64
393.52	526.62
393.71	559.39
393.91	599.18
394.10	554.71
394.29	531.30
394.49	610.88
394.68	564.07
394.88	566.41
395.07	622.58
395.26	615.56
395.46	650.67
395.65	678.76
395.84	603.86
396.04	699.82
396.23	636.63
396.42	636.63
396.62	617.90
396.81	540.66
397.00	547.69
397.19	638.97
397.39	587.47
397.58	655.35
397.77	645.99
397.97	713.86
398.16	741.95
398.35	681.10
398.55	706.84
398.74	624.92
398.93	781.74
399.12	732.59
399.32	669.39
399.51	702.16
399.70	688.12
399.90	711.52
400.09	760.67
400.28	779.40
400.47	746.63
400.67	774.72
400.86	767.70
401.05	753.65
401.24	786.42
401.44	833.23
401.63	678.76
401.82	851.96
402.01	744.29
402.21	791.10
402.40	826.21
402.59	847.27
402.78	835.57
402.97	842.59
403.17	868.34
403.36	805.14
403.55	863.66
403.74	954.94
403.93	844.93
404.13	894.08
404.32	880.04
404.51	870.68
404.70	901.11
404.89	863.66
405.09	915.15
405.28	898.77
405.47	976.00
405.66	959.62
405.85	915.15
406.05	994.73
406.24	887.06
406.43	983.02
406.62	1011.11
406.81	1034.52
407.00	873.02
407.20	957.28
407.39	1104.73
407.58	1095.37
407.77	1071.97
407.96	1048.56
408.15	990.05
408.34	1069.62
408.54	1100.05
408.73	1053.24
408.92	1076.65
409.11	1137.50
409.30	1163.25
409.49	1158.57
409.68	1181.97
409.87	1062.60
410.07	1064.94
410.26	1210.06
410.45	1149.20
410.64	1153.88
410.83	1181.97
411.02	1170.27
411.21	1252.19
411.40	1256.87
411.59	1270.91
411.78	1254.53
411.98	1287.29
412.17	1277.93
412.36	1240.48
412.55	1254.53
412.74	1416.02
412.93	1306.02
413.12	1238.14
413.31	1544.75
413.50	1352.83
413.69	1366.87
413.88	1493.26
414.07	1385.60
414.26	1390.28
414.45	1446.45
414.64	1423.05
414.83	1392.62
415.02	1495.60
415.22	1551.78
415.41	1575.18
415.60	1547.09
415.79	1504.96
415.98	1659.44
416.17	1645.40
416.36	1640.72
416.55	1748.38
416.74	1624.33
416.93	1682.85
417.12	1694.55
417.31	1640.72
417.50	1706.25
417.69	1767.10
417.88	1757.74
418.07	1699.23
418.26	1762.42
418.45	1685.19
418.64	1846.68
418.83	1863.07
419.02	1750.72
419.21	1895.83
419.39	1816.26
419.58	1849.02
419.77	1750.72
419.96	1893.49
420.15	1771.79
420.34	1944.99
420.53	1895.83
420.72	1893.49
420.91	1837.32
421.10	1909.88
421.29	1991.80
421.48	1949.67
421.67	1902.86
421.86	1914.56
422.05	1975.41
422.24	2031.58
422.43	1984.77
422.61	1970.73
422.80	2026.90
422.99	2003.50
423.18	1849.02
423.37	2005.84
423.56	2054.99
423.75	1942.64
423.94	1802.21
424.13	1827.96
424.32	1865.41
424.50	2019.88
424.69	2031.58
424.88	2101.80
425.07	2038.61
425.26	1949.67
425.45	2008.18
425.64	2026.90
425.83	1907.54
426.01	1977.75
426.20	1989.46
426.39	2113.50
426.58	1989.46
426.77	1933.28
426.96	2083.08
427.15	2097.12
427.33	2062.01
427.52	2127.55
427.71	2062.01
427.90	2087.76
428.09	2101.80
428.28	2069.03
428.46	2228.19
428.65	2267.98
428.84	2200.10
429.03	2249.25
429.22	2111.16
429.40	2267.98
429.59	2258.62
429.78	2129.89
429.97	2228.19
430.16	2235.21
430.34	2172.02
430.53	2333.51
430.72	2291.38
430.91	2239.89
431.10	2176.70
431.28	2387.35
431.47	2445.86
431.66	2289.04
431.85	2340.54
432.03	2314.79
432.22	2438.84
432.41	2368.62
432.60	2443.52
432.79	2399.05
432.97	2490.33
433.16	2345.22
433.35	2352.24
433.54	2452.88
433.72	2581.61
433.91	2441.18
434.10	2452.88
434.28	2487.99
434.47	2569.91
434.66	2495.01
434.85	2607.36
435.03	2708.00
435.22	2567.57
435.41	2670.55
435.59	2583.95
435.78	2642.46
435.97	2600.34
436.16	2588.63
436.34	2726.72
436.53	2665.87
436.72	2810.98
436.90	2612.04
437.09	2715.02
437.28	2612.04
437.46	2705.66
437.65	2614.38
437.84	2782.90
438.02	2750.13
438.21	2693.96
438.40	2698.64
438.58	2850.77
438.77	2869.50
438.96	2686.94
439.14	2829.71
439.33	2839.07
439.52	3002.91
439.70	2956.10
439.89	2850.77
440.08	3019.29
440.26	3056.74
440.45	3082.49
440.63	3005.25
440.82	2995.89
441.01	2963.12
441.19	3056.74
441.38	3129.30
441.57	3236.96
441.75	3115.25
441.94	3087.17
442.12	3227.60
442.31	3372.71
442.50	3281.43
442.68	3293.13
442.87	3155.04
443.05	3286.11
443.24	3318.88
443.43	3316.54
443.61	3393.78
443.80	3447.61
443.98	3368.03
444.17	3288.45
444.35	3330.58
444.54	3410.16
444.73	3372.71
444.91	3393.78
445.10	3407.82
445.28	3342.28
445.47	3337.60
445.65	3321.22
445.84	3513.14
446.02	3461.65
446.21	3382.07
446.39	3391.44
446.58	3566.98
446.77	3471.01
446.95	3318.88
447.14	3562.30
447.32	3370.37
447.51	3492.08
447.69	3438.25
447.88	3365.69
448.06	3499.10
448.25	3433.57
448.43	3641.87
448.62	3578.68
448.80	3534.21
448.99	3536.55
449.17	3721.45
449.36	3471.01
449.54	3684.00
449.73	3698.05
449.91	3595.06
450.10	3651.24
450.28	3644.21
450.46	3646.55
450.65	3730.81
450.83	3709.75
451.02	3698.05
451.20	3672.30
451.39	3847.84
451.57	3625.49
451.76	3772.94
451.94	3866.56
452.13	3665.28
452.31	3939.12
452.49	3819.75
452.68	3941.46
452.86	3871.25
453.05	3887.63
453.23	3927.42
453.42	3740.18
453.60	3786.99
453.78	3889.97
453.97	4007.00
454.15	3864.22
454.34	3999.98
454.52	3976.57
454.70	3969.55
454.89	4002.32
455.07	3955.51
455.26	3925.08
455.44	4072.53
455.62	4065.51
455.81	3913.38
455.99	4067.85
456.17	4023.38
456.36	4093.60
456.54	4259.78
456.73	4093.60
456.91	4198.92
457.09	4140.41
457.28	4287.86
457.46	4072.53
457.64	4367.44
457.83	4255.09
458.01	4219.99
458.19	4358.08
458.38	4447.02
458.56	4280.84
458.74	4425.95
458.93	4337.01
459.11	4472.76
459.29	4395.53
459.48	4451.70
459.66	4393.19
459.84	4540.64
460.03	4587.45
460.21	4414.25
460.39	4486.81
460.57	4585.11
460.76	4531.28
460.94	4631.92
461.12	4498.51
461.31	4526.60
461.49	4617.88
461.67	4500.85
461.85	4669.37
462.04	4493.83
462.22	5008.75
462.40	4662.35
462.59	4692.77
462.77	4755.97
462.95	4765.33
463.13	4779.37
463.32	4901.08
463.50	4786.40
463.68	4699.80
463.86	4770.01
464.05	4777.03
464.23	4800.44
464.41	4992.36
464.59	4758.31
464.78	4880.02
464.96	4837.89
465.14	4952.57
465.32	5013.43
465.50	4985.34
465.69	4994.70
465.87	4873.00
466.05	4978.32
466.23	4961.94
466.41	4926.83
466.60	5064.92
466.78	5123.43
466.96	4973.64
467.14	5032.15
467.32	5020.45
467.51	5153.86
467.69	5149.18
467.87	5121.09
468.05	5142.16
468.23	5053.22
468.41	5074.28
468.60	5163.22
468.78	5277.91
468.96	5093.01
469.14	5102.37
469.32	5205.35
469.50	5331.74
469.69	5242.80
469.87	5252.16
470.05	5600.90
470.23	5387.91
470.41	5235.78
470.59	5404.30
470.77	5308.34
470.95	5420.68
471.14	5631.33
471.32	5493.24
471.50	5596.22
471.68	5530.69
471.86	5357.49
472.04	5526.00
472.22	5671.12
472.40	5636.01
472.58	5682.82
472.77	5582.18
472.95	5781.12
473.13	5888.79
473.31	5825.59
473.49	5888.79
473.67	5923.90
473.85	5774.10
474.03	5729.63
474.21	5834.96
474.39	6024.54
474.57	5905.17
474.75	5963.68
474.93	6157.95
475.12	6167.31
475.30	6214.12
475.48	6033.90
475.66	6188.38
475.84	6356.90
476.02	6235.19
476.20	6307.74
476.38	6375.62
476.56	6469.24
476.74	6413.07
476.92	6504.35
477.10	6553.50
477.28	6712.66
477.46	6499.67
477.64	6555.84
477.82	6703.29
478.00	6787.55
478.18	6977.14
478.36	7019.27
478.54	7042.67
478.72	7045.01
478.90	7077.78
479.08	7070.76
479.26	7281.41
479.44	7372.69
479.62	7293.11
479.80	7215.87
479.98	7206.51
480.16	7461.63
480.34	7391.41
480.52	7536.52
480.70	7609.08
480.88	7489.71
481.06	7499.08
481.24	7798.66
481.41	7779.94
481.59	8042.08
481.77	7929.74
481.95	8006.97
482.13	8056.12
482.31	8102.93
482.49	8177.83
482.67	8297.20
482.85	8287.84
483.03	8245.71
483.21	8351.03
483.39	8564.02
483.57	8608.49
483.74	8486.78
483.92	8723.18
484.10	8690.41
484.28	8830.84
484.46	8891.70
484.64	9284.91
484.82	8819.14
485.00	9095.32
485.18	9371.50
485.35	9502.58
485.53	9308.31
485.71	9488.53
485.89	9315.33
486.07	9521.30
486.25	9331.72
486.43	9750.67
486.61	9413.63
486.78	9783.44
486.96	10064.30
487.14	9984.73
487.32	9987.07
487.50	10129.84
487.68	10122.82
487.85	10244.52
488.03	10478.58
488.21	10504.32
488.39	10506.66
488.57	10717.31
488.75	10665.82
488.92	10637.73
489.10	10815.62
489.28	10829.66
489.46	11077.76
489.64	10895.19
489.81	11250.96
489.99	11234.57
490.17	11279.04
490.35	11304.79
490.53	11379.68
490.70	11470.97
490.88	11456.92
491.06	11510.75
491.24	11510.75
491.41	11695.66
491.59	11817.36
491.77	11693.32
491.95	12219.94
492.13	12006.95
492.30	11971.84
492.48	12308.88
492.66	12018.65
492.84	12201.21
493.01	12189.51
493.19	12587.40
493.37	12568.68
493.54	12601.44
493.72	12835.50
493.90	12884.65
494.08	12791.03
494.25	13149.13
494.43	12901.03
494.61	13350.42
494.79	13284.88
494.96	13270.84
495.14	13336.37
495.32	13359.78
495.49	13483.83
495.67	13198.28
495.85	13680.43
496.02	13467.44
496.20	13844.27
496.38	13820.86
496.55	13799.80
496.73	14209.39
496.91	14120.45
497.09	14129.81
497.26	14448.13
497.44	14115.77
497.62	14347.48
497.79	14452.81
497.97	14441.11
498.14	14831.97
498.32	14626.01
498.50	14789.85
498.67	14857.72
498.85	14834.32
499.03	14909.21
499.20	14932.62
499.38	14909.21
499.56	15176.03
499.73	15150.29
499.91	15255.61
500.08	15300.08
500.26	15115.18
500.44	15374.98
500.61	15396.04
500.79	15344.55
500.97	15424.13
501.14	15693.29
501.32	15934.37
501.49	15646.48
501.67	15571.58
501.84	15843.09
502.02	15744.78
502.20	15917.98
502.37	15894.58
502.55	15815.00
502.72	15967.13
502.90	16250.34
503.07	16182.46
503.25	15990.54
503.43	16201.19
503.60	16482.05
503.78	16376.73
503.95	16079.48
504.13	16528.86
504.30	16613.12
504.48	16367.37
504.65	16732.49
504.83	16837.81
505.01	16999.31
505.18	16943.14
505.36	17167.83
505.53	16870.58
505.71	17062.51
505.88	17006.33
506.06	17025.06
506.23	17062.51
506.41	17226.34
506.58	17308.26
506.76	17315.28
506.93	17446.35
507.11	17376.14
507.28	17336.35
507.46	17036.76
507.63	17366.78
507.81	17696.79
507.98	17549.34
508.16	17708.49
508.33	17474.44
508.50	18024.47
508.68	17851.27
508.85	17951.91
509.03	17912.12
509.20	18047.87
509.38	18242.14
509.55	18476.19
509.73	18345.12
509.90	18141.49
510.08	18295.97
510.25	18319.37
510.42	17937.87
510.60	18651.73
510.77	18527.68
510.95	18750.03
511.12	18740.67
511.30	18810.89
511.47	18618.96
511.64	18902.17
511.82	18714.92
511.99	18916.21
512.17	18787.48
512.34	19063.66
512.51	19206.44
512.69	19199.41
512.86	19197.07
513.04	19346.87
513.21	19379.64
513.38	19435.81
513.56	19346.87
513.73	19201.76
513.90	19157.28
514.08	19393.68
514.25	19810.29
514.43	19604.33
514.60	19599.65
514.77	19948.39
514.95	19716.67
515.12	19335.17
515.29	20002.22
515.47	19927.32
515.64	20093.50
515.81	19726.04
515.99	20070.09
516.16	20428.20
516.33	20039.67
516.51	20306.49
516.68	20152.01
516.85	20329.89
517.03	20360.32
517.20	20484.37
517.37	20610.76
517.54	20489.05
517.72	20402.45
517.89	20580.33
518.06	20631.82
518.24	20615.44
518.41	20549.90
518.58	20826.09
518.75	20903.32
518.93	20695.02
519.10	20964.18
519.27	20971.20
519.45	20781.62
519.62	20823.75
519.79	20957.16
519.96	20982.90
520.14	21238.02
520.31	21158.44
520.48	21041.42
520.65	21483.78
520.83	21268.45
521.00	21104.61
521.17	21172.49
521.34	21460.37
521.52	21371.43
521.69	21514.20
521.86	21418.24
522.03	21429.94
522.20	21898.05
522.38	21481.44
522.55	21891.03
522.72	21605.49
522.89	21603.14
523.07	21982.31
523.24	21703.79
523.41	21996.35
523.58	21603.14
523.75	21860.60
523.92	21820.81
524.10	22068.91
524.27	21926.14
524.44	22611.92
524.61	22340.41
524.78	22361.48
524.96	22288.92
525.13	22331.05
525.30	22452.76
525.47	22085.30
525.64	22356.80
525.81	22511.27
525.98	22696.17
526.16	22562.76
526.33	22366.16
526.50	22586.17
526.67	22654.05
526.84	22862.35
527.01	22576.81
527.18	22581.49
527.36	22881.08
527.53	23047.26
527.70	23037.89
527.87	23211.09
528.04	23040.23
528.21	23171.30
528.38	23236.84
528.55	22909.16
528.72	23157.26
528.89	23143.22
529.07	23367.91
529.24	23466.21
529.41	23255.56
529.58	23475.57
529.75	23061.30
529.92	23260.24
530.09	23487.28
530.26	23690.90
530.43	23597.28
530.60	23213.43
530.77	23779.84
530.94	23871.12
531.11	23466.21
531.28	23709.63
531.46	23819.63
531.63	23559.83
531.80	23875.80
531.97	23927.30
532.14	23920.28
532.31	23768.14
532.48	24009.22
532.65	24009.22
532.82	23791.55
532.99	23960.06
533.16	24198.80
533.33	24149.65
533.50	24446.90
533.67	24566.26
533.84	23833.68
534.01	24376.68
534.18	23824.31
534.35	24463.28
534.52	24049.00
534.69	24610.73
534.86	24374.34
535.03	24395.40
535.20	24458.60
535.37	24718.40
535.54	24493.71
535.71	24332.21
535.88	24552.22
536.05	24360.30
536.22	24746.48
536.38	24943.09
536.55	25008.62
536.72	24547.54
536.89	24924.36
537.06	24725.42
537.23	25088.20
537.40	24697.33
537.57	25090.54
537.74	25193.53
537.91	25207.57
538.08	25046.07
538.25	25144.38
538.42	24725.42
538.59	25254.38
538.75	25193.53
538.92	24879.89
539.09	25687.38
539.26	25303.53
539.43	25181.82
539.60	25446.30
539.77	25010.96
539.94	25261.40
540.11	25392.47
540.28	25535.24
540.44	25310.55
540.61	25106.93
540.78	25364.39
540.95	25816.11
541.12	25511.84
541.29	25546.95
541.46	25876.96
541.62	25628.87
541.79	25642.91
541.96	25689.72
542.13	25729.51
542.30	25682.70
542.47	25977.61
542.63	25923.77
542.80	26391.88
542.97	26192.94
543.14	26309.96
543.31	25788.02
543.48	26082.93
543.64	26625.93
543.81	26513.59
543.98	26455.08
544.15	26054.84
544.32	26450.39
544.48	26513.59
544.65	26387.20
544.82	26462.10
544.99	26223.36
545.16	26326.35
545.32	26242.09
545.49	26574.44
545.66	26916.16
545.83	26558.06
546.00	26457.42
546.16	26270.17
546.33	26841.26
546.50	26174.21
546.67	26448.05
546.83	26356.77
547.00	26691.47
547.17	26937.23
547.34	27042.55
547.50	27154.90
547.67	26925.52
547.84	26738.28
548.00	26993.40
548.17	27051.91
548.34	26852.97
548.51	26916.16
548.67	26948.93
548.84	27194.68
549.01	26721.90
549.18	27012.12
549.34	27360.86
549.51	26974.67
549.68	27042.55
549.84	27152.55
550.01	26995.74
550.18	27072.98
550.34	27365.54
550.51	27241.50
550.68	27000.42
550.84	27225.11
551.01	27391.29
551.18	27122.13
551.34	26848.29
551.51	27206.39
551.68	27363.20
551.84	27639.39
552.01	27637.05
552.18	27564.49
552.34	27744.71
552.51	27798.54
552.68	27529.38
552.84	27587.89
553.01	27943.66
553.18	27730.67
553.34	27758.75
553.51	27929.61
553.67	27992.81
553.84	28231.54
554.01	27763.43
554.17	27976.42
554.34	27899.19
554.51	27938.97
554.67	28037.28
554.84	27758.75
555.00	28032.60
555.17	27964.72
555.33	28196.43
555.50	27915.57
555.67	28088.77
555.83	28140.26
556.00	27981.10
556.16	28266.65
556.33	28151.96
556.50	27807.90
556.66	27927.27
556.83	28531.13
556.99	28184.73
557.16	28154.30
557.32	28151.96
557.49	28374.31
557.65	28013.87
557.82	28222.18
557.98	28126.22
558.15	28603.69
558.32	28545.17
558.48	28266.65
558.65	28407.08
558.81	28442.19
558.98	28229.20
559.14	28215.16
559.31	28379.00
559.47	28400.06
559.64	28348.57
559.80	28542.83
559.97	28540.49
560.13	28453.89
560.30	28526.45
560.46	28706.67
560.63	28573.26
560.79	28650.50
560.96	28709.01
561.12	28521.77
561.29	28772.21
561.45	28510.07
561.61	28556.88
561.78	28545.17
561.94	28847.10
562.11	28701.99
562.27	28556.88
562.44	28727.74
562.60	28519.43
562.77	28802.63
562.93	28589.64
563.10	28744.12
563.26	28982.85
563.42	29057.75
563.59	29041.37
563.75	29008.60
563.92	29097.54
564.08	28814.34
564.24	28645.82
564.41	29160.73
564.57	28840.08
564.74	28655.18
564.90	28807.31
565.07	28889.23
565.23	29551.60
565.39	28884.55
565.56	29301.17
565.72	29015.62
565.88	28950.09
566.05	28957.11
566.21	28613.05
566.38	29317.55
566.54	29174.78
566.70	29317.55
566.87	29034.35
567.03	29029.66
567.19	29914.39
567.36	29181.80
567.52	29235.63
567.68	29193.50
567.85	29359.68
568.01	29336.27
568.17	29275.42
568.34	29291.80
568.50	28996.90
568.66	29186.48
568.83	29160.73
568.99	29090.52
569.15	29172.44
569.32	28957.11
569.48	29048.39
569.64	29177.12
569.81	29322.23
569.97	29343.30
570.13	29450.96
570.30	29158.39
570.46	29589.05
570.62	28957.11
570.78	29120.95
570.95	29352.66
571.11	29127.97
571.27	28943.06
571.43	29404.15
571.60	29275.42
571.76	29001.58
571.92	29560.97
572.09	29333.93
572.25	29879.28
572.41	29656.93
572.57	29563.31
572.74	29457.98
572.90	29027.32
573.06	29584.37
573.22	29415.85
573.38	29104.56
573.55	29195.84
573.71	29420.53
573.87	29537.56
574.03	29294.14
574.20	29301.17
574.36	29408.83
574.52	29371.38
574.68	29654.59
574.84	29008.60
575.01	29575.01
575.17	29802.04
575.33	29287.12
575.49	29488.41
575.65	29652.25
575.82	29472.03
575.98	29666.29
576.14	29500.11
576.30	29436.92
576.46	29654.59
576.62	29481.39
576.79	29401.81
576.95	29207.55
577.11	29731.83
577.27	29504.79
577.43	29762.25
577.59	29867.58
577.75	29860.55
577.92	29556.28
578.08	29252.02
578.24	29378.40
578.40	29825.45
578.56	29589.05
578.72	30073.54
578.88	29752.89
579.04	29699.06
579.21	29542.24
579.37	29640.54
579.53	29385.43
579.69	29436.92
579.85	29343.30
580.01	29708.42
580.17	29738.85
580.33	29528.20
580.49	29898.00
580.65	29780.98
580.82	29905.02
580.98	29652.25
581.14	29516.50
581.30	30045.46
581.46	29500.11
581.62	29692.04
581.78	29301.17
581.94	29745.87
582.10	29296.49
582.26	29560.97
582.42	30010.35
582.58	30015.03
582.74	29722.46
582.90	29738.85
583.06	29933.11
583.22	29565.65
583.38	29603.10
583.54	29778.64
583.70	29872.26
583.86	29790.34
584.02	29544.58
584.18	29802.04
584.34	29748.21
584.50	29738.85
584.66	29467.34
584.82	29584.37
584.98	29476.71
585.14	29659.27
585.30	29710.76
585.46	29511.81
585.62	29502.45
585.78	29898.00
585.94	29411.17
586.10	29947.15
586.26	29509.47
586.42	29975.24
586.58	29930.77
586.74	29963.54
586.90	29380.74
587.06	29373.72
587.22	29551.60
587.38	29818.42
587.54	29736.51
587.70	30328.66
587.86	29956.52
588.02	29902.68
588.18	30157.80
588.34	30050.14
588.49	29954.18
588.65	29422.87
588.81	29710.76
588.97	29883.96
589.13	30153.12
589.29	29804.38
589.45	30260.79
589.61	29790.34
589.77	30356.75
589.93	30340.36
590.08	30307.60
590.24	30213.98
590.40	30075.88
590.56	30050.14
590.72	29940.13
590.88	29710.76
591.04	29879.28
591.20	30396.54
591.35	30251.42
591.51	30398.88
591.67	30359.09
591.83	30359.09
591.99	30445.69
592.15	30354.41
592.31	30405.90
592.46	30071.20
592.62	30153.12
592.78	30143.76
592.94	30101.63
593.10	29848.85
593.26	30321.64
593.41	30146.10
593.57	30265.47
593.73	30134.40
593.89	30139.08
594.05	30099.29
594.20	30008.01
594.36	30305.26
594.52	29759.91
594.68	29900.34
594.84	29984.60
594.99	30312.28
595.15	30274.83
595.31	30518.25
595.47	30155.46
595.62	30424.62
595.78	30462.07
595.94	30326.32
596.10	30429.30
596.25	30265.47
596.41	30087.59
596.57	29766.93
596.73	30518.25
596.88	30476.12
597.04	30384.83
597.20	30490.16
597.36	30267.81
597.51	30689.10
597.67	30218.66
597.83	30129.72
597.99	30787.41
598.14	29928.43
598.30	30366.11
598.46	30176.53
598.61	30307.60
598.77	30323.98
598.93	30216.32
599.09	30480.80
599.24	30881.03
599.40	30387.18
599.56	30471.43
599.71	30452.71
599.87	30586.12
600.03	30092.27
600.18	30228.02
600.34	29738.85
600.50	29741.19
600.65	30485.48
600.81	30419.94
600.97	30513.56
601.12	30885.71
601.28	30450.37
601.44	30778.04
601.59	30286.53
601.75	30558.03
601.91	30532.29
602.06	30373.13
602.22	30455.05
602.37	30228.02
602.53	30258.45
602.69	30672.72
602.84	30504.20
603.00	30668.04
603.16	30412.92
603.31	30150.78
603.47	30218.66
603.62	30033.75
603.78	30412.92
603.94	30223.34
604.09	30480.80
604.25	30359.09
604.40	30045.46
604.56	30216.32
604.71	30747.62
604.87	30169.51
605.03	30312.28
605.18	30455.05
605.34	30485.48
605.49	29968.22
605.65	30321.64
605.80	29982.26
605.96	30185.89
606.12	30185.89
606.27	30036.09
606.43	29954.18
606.58	30469.09
606.74	30342.70
606.89	30583.78
607.05	30546.33
607.20	30251.42
607.36	30087.59
607.51	30340.36
607.67	30228.02
607.82	30206.95
607.98	30176.53
608.13	30246.74
608.29	30099.29
608.44	30192.91
608.60	30272.49
608.75	30424.62
608.91	30558.03
609.06	30108.65
609.22	30288.87
609.37	30005.67
609.53	29982.26
609.68	29846.51
609.84	30333.34
609.99	29862.90
610.15	30005.67
610.30	30066.52
610.46	29900.34
610.61	30118.01
610.76	30050.14
610.92	30228.02
611.07	30068.86
611.23	29928.43
611.38	30000.99
611.54	29677.99
611.69	29689.70
611.84	29685.01
612.00	29788.00
612.15	29806.72
612.31	29813.74
612.46	29645.23
612.62	29858.21
612.77	29776.30
612.92	29996.31
613.08	29745.87
613.23	30211.64
613.39	29635.86
613.54	29404.15
613.69	29713.10
613.85	29809.06
614.00	29883.96
614.15	29809.06
614.31	29977.58
614.46	29968.22
614.62	29956.52
614.77	29900.34
614.92	29790.34
615.08	29933.11
615.23	29291.80
615.38	29853.53
615.54	29500.11
615.69	29483.73
615.84	29436.92
616.00	29846.51
616.15	29355.00
616.30	29537.56
616.46	29699.06
616.61	29593.73
616.76	29809.06
616.92	29764.59
617.07	29659.27
617.22	29600.76
617.37	29312.87
617.53	29764.59
617.68	29474.37
617.83	29083.50
617.99	29006.26
618.14	29305.85
618.29	29315.21
618.45	29528.20
618.60	29252.02
618.75	29408.83
618.90	29462.66
619.06	29266.06
619.21	29202.86
619.36	29198.18
619.51	29221.59
619.67	28922.00
619.82	29338.62
619.97	29343.30
620.12	28987.53
620.28	29043.71
620.43	29450.96
620.58	29216.91
620.73	29202.86
620.89	28973.49
621.04	29193.50
621.19	29113.92
621.34	29240.31
621.49	28978.17
621.65	28996.90
621.80	29116.26
621.95	29071.79
622.10	28718.37
622.25	28936.04
622.41	28739.44
622.56	29160.73
622.71	29111.58
622.86	29057.75
623.01	28727.74
623.16	29202.86
623.32	28947.75
623.47	28854.12
623.62	28947.75
623.77	28673.90
623.92	28971.15
624.07	28692.63
624.23	28608.37
624.38	28856.46
624.53	29064.77
624.68	29191.16
624.83	29099.88
624.98	28793.27
625.13	28882.21
625.29	28570.92
625.44	28744.12
625.59	28748.80
625.74	28528.79
625.89	28666.88
626.04	28599.01
626.19	28332.18
626.34	28552.20
626.49	28252.61
626.65	28388.36
626.80	28463.25
626.95	28833.06
627.10	28514.75
627.25	28797.95
627.40	28355.59
627.55	28411.76
627.70	28187.07
627.85	28268.99
628.00	27955.36
628.15	28294.74
628.30	28292.40
628.45	28196.43
628.60	28196.43
628.76	28158.99
628.91	28404.74
629.06	28212.82
629.21	28453.89
629.36	28271.33
629.51	28002.17
629.66	28336.87
629.81	27960.04
629.96	28133.24
630.11	27824.29
630.26	27934.29
630.41	27955.36
630.56	28116.86
630.71	28472.62
630.86	28133.24
631.01	28107.49
631.16	28060.68
631.31	27981.10
631.46	28013.87
631.61	27875.78
631.76	27974.08
631.91	27772.80
632.06	27864.08
632.21	28046.64
632.36	28121.54
632.51	27725.99
632.66	28107.49
632.81	27505.98
632.96	27721.30
633.10	27681.52
633.25	27674.49
633.40	27725.99
633.55	27665.13
633.70	27613.64
633.85	27381.93
634.00	27236.81
634.15	27587.89
634.30	27384.27
634.45	27786.84
634.60	27321.07
634.75	27749.39
634.90	27271.92
635.05	27697.90
635.19	27749.39
635.34	27857.06
635.49	27590.24
635.64	27646.41
635.79	27873.44
635.94	27194.68
636.09	27459.16
636.24	27676.83
636.39	27117.45
636.53	27400.65
636.68	27477.89
636.83	27356.18
636.98	27845.35
637.13	27314.05
637.28	27510.66
637.43	27356.18
637.57	27613.64
637.72	27407.67
637.87	27611.30
638.02	27077.66
638.17	27604.28
638.32	27562.15
638.46	27164.26
638.61	27131.49
638.76	26890.41
638.91	27185.32
639.06	27517.68
639.20	26955.95
639.35	27257.88
639.50	26974.67
639.65	27054.25
639.80	26764.03
639.94	27087.02
640.09	26890.41
640.24	26721.90
640.39	26628.27
640.54	26677.43
640.68	26796.79
640.83	26883.39
640.98	26595.51
641.13	26696.15
641.27	26792.11
641.42	26558.06
641.57	26780.41
641.72	27115.11
641.86	26597.85
642.01	26487.84
642.16	26511.25
642.31	26541.68
642.45	26698.49
642.60	26490.18
642.75	26396.56
642.90	26476.14
643.04	26515.93
643.19	26148.46
643.34	26672.74
643.48	26387.20
643.63	26583.80
643.78	26548.70
643.93	26616.57
644.07	26436.35
644.22	26586.15
644.37	26618.91
644.51	26654.02
644.66	26555.72
644.81	26267.83
644.95	26082.93
645.10	25951.86
645.25	26249.11
645.39	26267.83
645.54	26471.46
645.69	26008.03
645.83	26553.38
645.98	26347.41
646.13	26752.32
646.27	26380.18
646.42	26342.73
646.57	26565.08
646.71	26279.54
646.86	26260.81
647.00	26111.02
647.15	26394.22
647.30	26033.78
647.44	25869.94
647.59	25961.22
647.74	25795.04
647.88	26118.04
648.03	26258.47
648.17	26270.17
648.32	26230.38
648.47	26101.65
648.61	25825.47
648.76	26347.41
648.90	26185.91
649.05	26277.19
649.20	25680.36
649.34	26031.44
649.49	25528.22
649.63	25673.34
649.78	25757.60
649.92	25869.94
650.07	25649.93
650.21	25465.03
650.36	26080.59
650.51	25722.49
650.65	26087.61
650.80	26010.37
650.94	25947.18
651.09	25652.27
651.23	25525.88
651.38	25642.91
651.52	25263.74
651.67	25895.69
651.81	25682.70
651.96	25750.57
652.10	25713.13
652.25	25715.47
652.39	25385.45
652.54	25951.86
652.68	25713.13
652.83	25666.31
652.97	25844.20
653.12	25584.40
653.26	25420.56
653.41	25371.41
653.55	25120.97
653.70	25589.08
653.84	25298.85
653.99	25720.15
654.13	25577.37
654.27	25345.66
654.42	25371.41
654.56	25731.85
654.71	25350.34
654.85	25415.88
655.00	25755.26
655.14	25474.39
655.29	25507.16
655.43	25226.29
655.57	25408.86
655.72	25387.79
655.86	25308.21
656.01	25172.46
656.15	24826.06
656.30	24971.18
656.44	25205.23
656.58	25025.01
656.73	25373.75
656.87	25139.69
657.01	25460.35
657.16	25088.20
657.30	25060.12
657.45	25132.67
657.59	25338.64
657.73	24814.36
657.88	25319.92
658.02	24779.25
658.16	24753.51
658.31	24795.64
658.45	24702.01
658.60	24697.33
658.74	24376.68
658.88	24650.52
659.03	24395.40
659.17	24861.17
659.31	25167.78
659.46	24786.27
659.60	25078.84
659.74	24912.66
659.89	24460.94
660.03	24226.89
660.17	24716.06
660.32	24252.63
660.46	24577.97
660.60	24519.45
660.74	24257.31
660.89	24154.33
661.03	24259.65
661.17	24161.35
661.32	24112.20
661.46	23929.64
661.60	24364.98
661.74	24479.66
661.89	24622.44
662.03	24474.98
662.17	24020.92
662.31	24159.01
662.46	24065.39
662.60	24161.35
662.74	23899.21
662.88	24170.71
663.03	23793.89
663.17	23716.65
663.31	23667.50
663.45	23723.67
663.60	23627.71
663.74	23716.65
663.88	23721.33
664.02	23393.65
664.17	23892.19
664.31	23861.76
664.45	23845.38
664.59	23793.89
664.73	23761.12
664.88	23695.58
665.02	23152.58
665.16	23405.36
665.30	23283.65
665.44	23501.32
665.59	22864.69
665.73	23374.93
665.87	22944.27
666.01	23414.72
666.15	23403.02
666.29	23058.96
666.44	23044.91
666.58	22682.13
666.72	23063.64
666.86	23213.43
667.00	23183.01
667.14	23037.89
667.28	23035.55
667.43	22967.68
667.57	23077.68
667.71	22712.56
667.85	22911.50
667.99	22342.75
668.13	22642.34
668.27	22752.35
668.41	22658.73
668.56	22607.23
668.70	22815.54
668.84	22773.41
668.98	22614.26
669.12	22558.08
669.26	22707.88
669.40	22635.32
669.54	22647.02
669.68	22693.83
669.82	22167.21
669.96	22295.94
670.10	22218.71
670.25	22281.90
670.39	22487.87
670.53	22017.42
670.67	21933.16
670.81	22398.93
670.95	22232.75
671.09	22022.10
671.23	22324.03
671.37	21928.48
671.51	22094.66
671.65	22150.83
671.79	21884.01
671.93	21998.70
672.07	21617.19
672.21	21795.07
672.35	21701.45
672.49	21490.80
672.63	21696.77
672.77	21610.17
672.91	21315.26
673.05	21422.92
673.19	21415.90
673.33	21399.52
673.47	21350.37
673.61	21301.22
673.75	21195.89
673.89	21535.27
674.03	21462.71
674.17	21095.25
674.31	20975.88
674.45	21188.87
674.59	21156.10
674.73	20781.62
674.87	21097.59
675.01	20891.62
675.15	20692.68
675.29	20678.63
675.43	20980.56
675.56	20596.71
675.70	21003.97
675.84	20439.90
675.98	20170.74
676.12	20594.37
676.26	20730.12
676.40	20650.55
676.54	20329.89
676.68	20402.45
676.82	20236.27
676.96	20135.63
677.10	20446.92
677.23	20126.27
677.37	19997.54
677.51	20182.44
677.65	20222.23
677.79	20093.50
677.93	19683.91
678.07	19606.67
678.21	19484.96
678.34	19571.56
678.48	19623.05
678.62	19421.77
678.76	19421.77
678.90	19538.79
679.04	19733.06
679.18	19496.66
679.31	19215.80
679.45	19042.60
679.59	19154.94
679.73	18752.37
679.87	18897.49
680.00	18677.48
680.14	19061.32
680.28	18773.44
680.42	18988.77
680.56	19171.33
680.70	19124.52
680.83	18789.82
680.97	18698.54
681.11	18665.77
681.25	18359.16
681.39	18696.20
681.52	18590.88
681.66	18384.91
681.80	18466.83
681.94	18574.49
682.07	18214.05
682.21	18176.60
682.35	18087.66
682.49	18223.41
682.62	18136.81
682.76	17659.34
682.90	17830.20
683.04	18075.96
683.17	17858.29
683.31	18054.89
683.45	17970.63
683.59	17748.28
683.72	17652.32
683.86	17493.16
684.00	17572.74
684.13	17565.72
684.27	17425.29
684.41	17193.58
684.55	17022.72
684.68	17069.53
684.82	16968.88
684.96	17071.87
685.09	16929.09
685.23	17046.12
685.37	16723.13
685.50	17099.95
685.64	16875.26
685.78	16802.71
685.91	16985.27
686.05	16821.43
686.19	16596.74
686.32	16968.88
686.46	16556.95
686.60	16262.04
686.73	16566.31
686.87	16262.04
687.01	16512.48
687.14	16404.81
687.28	16070.12
687.42	15992.88
687.55	16145.02
687.69	15981.18
687.82	15992.88
687.96	15995.22
688.10	16093.52
688.23	15920.32
688.37	15861.81
688.50	16025.65
688.64	15990.54
688.78	15803.30
688.91	15379.66
689.05	15674.57
689.18	15473.28
689.32	15187.74
689.46	15236.89
689.59	15150.29
689.73	15300.08
689.86	15082.41
690.00	15101.14
690.13	15433.49
690.27	15021.56
690.41	15033.26
690.54	15103.48
690.68	14946.66
690.81	15033.26
690.95	15164.33
691.08	15033.26
691.22	14853.04
691.35	14780.48
691.49	14593.24
691.62	14602.60
691.76	14707.93
691.89	14305.35
692.03	14195.35
692.16	14246.84
692.30	14183.65
692.43	14066.62
692.57	14092.37
692.70	14111.09
692.84	13771.71
692.97	14038.53
693.11	13598.51
693.24	13799.80
693.38	13781.07
693.51	13752.99
693.65	14113.43
693.78	13921.51
693.92	13750.65
694.05	13771.71
694.19	13743.63
694.32	13401.91
694.45	13315.31
694.59	13404.25
694.72	13249.77
694.86	13315.31
694.99	13123.38
695.13	13221.69
695.26	13387.86
695.39	13067.21
695.53	13214.66
695.66	13165.51
695.80	12842.52
695.93	12905.71
696.07	12879.97
696.20	13074.23
696.33	12636.55
696.47	12849.54
696.60	12685.70
696.73	12697.41
696.87	12643.57
697.00	12332.28
697.14	12271.43
697.27	12290.15
697.40	12093.55
697.54	12084.19
697.67	12131.00
697.80	12196.53
697.94	12161.42
698.07	12093.55
698.21	12065.46
698.34	11929.71
698.47	12006.95
698.61	11847.79
698.74	11943.75
698.87	11967.16
699.01	12018.65
699.14	11756.51
699.27	11679.27
699.40	11777.58
699.54	11674.59
699.67	11428.84
699.80	11445.22
699.94	11613.74
700.07	11541.18
700.20	11192.44
700.34	11101.16
700.47	11211.17
700.60	11300.11
700.73	11295.43
700.87	11037.97
701.00	11007.54
701.13	11019.24
701.26	11166.70
701.40	11026.26
701.53	11122.23
701.66	10920.94
701.79	10785.19
701.93	10993.50
702.06	10494.96
702.19	10436.45
702.32	10579.22
702.46	10665.82
702.59	10307.72
702.72	10251.55
702.85	10464.54
702.99	10490.28
703.12	10204.74
703.25	10319.42
703.38	10310.06
703.51	10076.01
703.65	10003.45
703.78	10071.33
703.91	9900.47
704.04	10104.09
704.17	10092.39
704.31	10026.86
704.44	10012.81
704.57	9937.91
704.70	9722.59
704.83	9673.43
704.96	9561.09
705.10	9432.36
705.23	9561.09
>>>>>End Processed Spectral Data<<<<<
