SpectraSuite Data File
++++++++++++++++++++++++++++++++++++
Date: Fri Oct 18 13:58:07 GMT-05:00 2013
User: bianchi
Dark Spectrum Present: No
Reference Spectrum Present: No
Number of Sampled Component Spectra: 1
Spectrometers: USB2+H05261
Integration Time (usec): 50000 (USB2+H05261)
Spectra Averaged: 1 (USB2+H05261)
Boxcar Smoothing: 0 (USB2+H05261)
Correct for Electrical Dark: No (USB2+H05261)
Strobe/Lamp Enabled: No (USB2+H05261)
Correct for Detector Non-linearity: No (USB2+H05261)
Correct for Stray Light: No (USB2+H05261)
Number of Pixels in Processed Spectrum: 2048
>>>>>Begin Processed Spectral Data<<<<<
365.73	0.00
365.92	0.00
366.12	0.00
366.32	0.00
366.52	0.00
366.72	0.00
366.91	0.00
367.11	0.00
367.31	0.00
367.51	0.00
367.70	0.00
367.90	0.00
368.10	0.00
368.30	0.00
368.49	0.00
368.69	0.00
368.89	0.00
369.09	0.00
369.28	0.00
369.48	0.00
369.68	0.00
369.87	0.00
370.07	0.00
370.27	0.00
370.47	0.00
370.66	84.26
370.86	84.26
371.06	184.90
371.25	121.71
371.45	189.58
371.65	182.56
371.84	177.88
372.04	203.63
372.24	145.11
372.44	257.46
372.63	163.84
372.83	257.46
373.03	191.92
373.22	215.33
373.42	121.71
373.62	182.56
373.81	217.67
374.01	187.24
374.21	250.44
374.40	255.12
374.60	229.37
374.79	208.31
374.99	177.88
375.19	259.80
375.38	318.31
375.58	194.26
375.78	198.95
375.97	269.16
376.17	257.46
376.37	285.55
376.56	266.82
376.76	292.57
376.95	290.23
377.15	292.57
377.35	234.05
377.54	325.33
377.74	285.55
377.93	276.18
378.13	269.16
378.33	320.65
378.52	346.40
378.72	243.42
378.91	257.46
379.11	250.44
379.31	252.78
379.50	229.37
379.70	285.55
379.89	334.70
380.09	255.12
380.28	330.02
380.48	325.33
380.68	315.97
380.87	301.93
381.07	320.65
381.26	306.61
381.46	330.02
381.65	271.50
381.85	255.12
382.04	290.23
382.24	362.78
382.43	355.76
382.63	362.78
382.83	292.57
383.02	355.76
383.22	383.85
383.41	337.04
383.61	283.20
383.80	395.55
384.00	449.38
384.19	372.15
384.39	344.06
384.58	339.38
384.78	402.57
384.97	440.02
385.17	344.06
385.36	402.57
385.56	390.87
385.75	376.83
385.95	484.49
386.14	397.89
386.34	437.68
386.53	451.72
386.72	388.53
386.92	418.96
387.11	507.90
387.31	376.83
387.50	440.02
387.70	423.64
387.89	454.06
388.09	444.70
388.28	393.21
388.48	496.19
388.67	468.11
388.86	402.57
389.06	409.59
389.25	435.34
389.45	423.64
389.64	425.98
389.84	454.06
390.03	447.04
390.22	447.04
390.42	444.70
390.61	468.11
390.81	470.45
391.00	433.00
391.19	531.30
391.39	498.53
391.58	573.43
391.78	545.34
391.97	564.07
392.16	526.62
392.36	528.96
392.55	442.36
392.75	547.69
392.94	531.30
393.13	582.79
393.33	543.00
393.52	545.34
393.71	482.15
393.91	535.98
394.10	589.82
394.29	550.03
394.49	587.47
394.68	699.82
394.88	613.22
395.07	575.77
395.26	554.71
395.46	543.00
395.65	650.67
395.84	636.63
396.04	641.31
396.23	676.41
396.42	695.14
396.62	624.92
396.81	667.05
397.00	697.48
397.19	587.47
397.39	657.69
397.58	683.44
397.77	660.03
397.97	725.57
398.16	695.14
398.35	716.20
398.55	781.74
398.74	692.80
398.93	746.63
399.12	667.05
399.32	798.12
399.51	734.93
399.70	812.17
399.90	744.29
400.09	748.97
400.28	786.42
400.47	791.10
400.67	830.89
400.86	877.70
401.05	758.33
401.24	809.83
401.44	807.48
401.63	819.19
401.82	821.53
402.01	809.83
402.21	898.77
402.40	809.83
402.59	898.77
402.78	858.98
402.97	889.40
403.17	784.08
403.36	758.33
403.55	901.11
403.74	990.05
403.93	875.36
404.13	898.77
404.32	961.96
404.51	922.17
404.70	987.71
404.89	952.60
405.09	884.72
405.28	1013.45
405.47	830.89
405.66	931.53
405.85	964.30
406.05	973.66
406.24	1041.54
406.43	1093.03
406.62	987.71
406.81	1086.01
407.00	978.34
407.20	1029.84
407.39	1022.81
407.58	1081.33
407.77	1071.97
407.96	1048.56
408.15	1081.33
408.34	1086.01
408.54	1095.37
408.73	1018.13
408.92	997.07
409.11	1050.90
409.30	1146.86
409.49	1139.84
409.68	1167.93
409.87	1156.22
410.07	1160.91
410.26	1196.01
410.45	1158.57
410.64	1200.69
410.83	1289.64
411.02	1196.01
411.21	1273.25
411.40	1245.16
411.59	1282.61
411.78	1366.87
411.98	1184.31
412.17	1226.44
412.36	1341.13
412.55	1214.74
412.74	1380.92
412.93	1315.38
413.12	1322.40
413.31	1455.81
413.50	1444.11
413.69	1439.43
413.88	1476.88
414.07	1369.21
414.26	1352.83
414.45	1397.30
414.64	1423.05
414.83	1411.34
415.02	1561.14
415.22	1544.75
415.41	1563.48
415.60	1554.12
415.79	1621.99
415.98	1610.29
416.17	1638.38
416.36	1533.05
416.55	1629.01
416.74	1624.33
416.93	1610.29
417.12	1680.50
417.31	1757.74
417.50	1778.81
417.69	1734.34
417.88	1797.53
418.07	1713.27
418.26	1746.04
418.45	1797.53
418.64	1846.68
418.83	1701.57
419.02	1809.23
419.21	1825.62
419.39	1839.66
419.58	1708.59
419.77	1790.51
419.96	1816.26
420.15	1975.41
420.34	1856.04
420.53	1952.01
420.72	1827.96
420.91	1834.98
421.10	1849.02
421.29	2012.86
421.48	1867.75
421.67	2003.50
421.86	1895.83
422.05	1949.67
422.24	2043.29
422.43	1853.70
422.61	1998.82
422.80	2047.97
422.99	2047.97
423.18	2066.69
423.37	1970.73
423.56	1998.82
423.75	1895.83
423.94	2047.97
424.13	1797.53
424.32	1921.58
424.50	1977.75
424.69	2080.74
424.88	2045.63
425.07	1959.03
425.26	2069.03
425.45	1994.14
425.64	2066.69
425.83	2038.61
426.01	2083.08
426.20	2052.65
426.39	2097.12
426.58	2083.08
426.77	2033.93
426.96	2136.91
427.15	2050.31
427.33	2223.51
427.52	1987.11
427.71	2078.40
427.90	2160.31
428.09	2165.00
428.28	2225.85
428.46	2209.47
428.65	2253.94
428.84	2197.76
429.03	2118.18
429.22	2155.63
429.40	2246.91
429.59	2200.10
429.78	2188.40
429.97	2150.95
430.16	2246.91
430.34	2251.60
430.53	2349.90
430.72	2342.88
430.91	2373.30
431.10	2307.77
431.28	2349.90
431.47	2359.26
431.66	2443.52
431.85	2326.49
432.03	2473.95
432.22	2476.29
432.41	2452.88
432.60	2415.43
432.79	2363.94
432.97	2464.58
433.16	2431.82
433.35	2410.75
433.54	2532.46
433.72	2441.18
433.91	2614.38
434.10	2485.65
434.28	2565.23
434.47	2569.91
434.66	2551.18
434.85	2595.65
435.03	2548.84
435.22	2537.14
435.41	2626.08
435.59	2693.96
435.78	2682.25
435.97	2644.81
436.16	2736.09
436.34	2600.34
436.53	2703.32
436.72	2782.90
436.90	2609.70
437.09	2747.79
437.28	2808.64
437.46	2724.38
437.65	2661.19
437.84	2813.32
438.02	2799.28
438.21	2691.62
438.40	2715.02
438.58	3002.91
438.77	2883.54
438.96	2803.96
439.14	2909.29
439.33	2991.20
439.52	2946.73
439.70	2977.16
439.89	3014.61
440.08	2974.82
440.26	2942.05
440.45	3094.19
440.63	3094.19
440.82	3068.44
441.01	3082.49
441.19	3042.70
441.38	3208.87
441.57	3248.66
441.75	3211.22
441.94	3243.98
442.12	3276.75
442.31	3246.32
442.50	3323.56
442.68	3274.41
442.87	3398.46
443.05	3309.52
443.24	3405.48
443.43	3494.42
443.61	3290.79
443.80	3541.23
443.98	3356.33
444.17	3274.41
444.35	3428.88
444.54	3517.83
444.73	3349.31
444.91	3508.46
445.10	3471.01
445.28	3424.20
445.47	3382.07
445.65	3529.53
445.84	3520.17
446.02	3578.68
446.21	3536.55
446.39	3396.12
446.58	3550.59
446.77	3543.57
446.95	3480.38
447.14	3433.57
447.32	3499.10
447.51	3616.13
447.69	3583.36
447.88	3566.98
448.06	3522.51
448.25	3515.48
448.43	3487.40
448.62	3674.64
448.80	3524.85
448.99	3693.37
449.17	3653.58
449.36	3592.72
449.54	3798.69
449.73	3693.37
449.91	3574.00
450.10	3555.27
450.28	3765.92
450.46	3691.02
450.65	3754.22
450.83	3845.50
451.02	3765.92
451.20	3669.96
451.39	3747.20
451.57	3796.35
451.76	3737.84
451.94	3733.15
452.13	3777.62
452.31	3779.97
452.49	3798.69
452.68	3915.72
452.86	3896.99
453.05	4072.53
453.23	4067.85
453.42	3829.12
453.60	3880.61
453.78	3999.98
453.97	3871.25
454.15	3941.46
454.34	3899.33
454.52	4091.26
454.70	3999.98
454.89	4147.43
455.07	4187.22
455.26	4086.58
455.44	4180.20
455.62	4215.30
455.81	3932.10
455.99	3985.93
456.17	4273.82
456.36	4276.16
456.54	4212.96
456.73	4269.14
456.91	4339.35
457.09	4362.76
457.28	4402.55
457.46	4395.53
457.64	4402.55
457.83	4383.82
458.01	4236.37
458.19	4425.95
458.38	4454.04
458.56	4341.69
458.74	4369.78
458.93	4318.29
459.11	4329.99
459.29	4362.76
459.48	4610.86
459.66	4582.77
459.84	4643.62
460.03	4507.87
460.21	4416.59
460.39	4512.55
460.57	4554.68
460.76	4610.86
460.94	4540.64
461.12	4737.24
461.31	4610.86
461.49	4765.33
461.67	4711.50
461.85	4638.94
462.04	4683.41
462.22	5006.41
462.40	4664.69
462.59	4674.05
462.77	4762.99
462.95	4940.87
463.13	4631.92
463.32	4634.26
463.50	4997.04
463.68	4805.12
463.86	4819.16
464.05	4751.29
464.23	4821.50
464.41	4910.44
464.59	4662.35
464.78	4990.02
464.96	4985.34
465.14	4849.59
465.32	5015.77
465.50	4954.91
465.69	4975.98
465.87	4945.55
466.05	5020.45
466.23	5013.43
466.41	5163.22
466.60	5259.18
466.78	5039.17
466.96	5034.49
467.14	4858.95
467.32	5245.14
467.51	5125.77
467.69	4903.42
467.87	5186.63
468.05	5203.01
468.23	5020.45
468.41	5050.88
468.60	5139.82
468.78	5163.22
468.96	5107.05
469.14	5198.33
469.32	5425.36
469.50	5343.44
469.69	5177.26
469.87	5362.17
470.05	5509.62
470.23	5462.81
470.41	5352.81
470.59	5296.63
470.77	5390.25
470.95	5526.00
471.14	5598.56
471.32	5462.81
471.50	5715.59
471.68	5647.71
471.86	5376.21
472.04	5628.99
472.22	5591.54
472.40	5645.37
472.58	5626.65
472.77	5748.36
472.95	5844.32
473.13	6003.47
473.31	5797.51
473.49	5746.02
473.67	5799.85
473.85	5841.98
474.03	6047.94
474.21	6003.47
474.39	6090.07
474.57	6150.93
474.75	6136.88
474.93	6183.70
475.12	6143.91
475.30	6118.16
475.48	6321.79
475.66	6139.23
475.84	6413.07
476.02	6436.47
476.20	6228.17
476.38	6544.14
476.56	6609.67
476.74	6567.54
476.92	6497.33
477.10	6469.24
477.28	6698.61
477.46	6595.63
477.64	6853.09
477.82	6874.15
478.00	6832.02
478.18	6827.34
478.36	7087.14
478.54	7091.82
478.72	7091.82
478.90	7140.97
479.08	7321.20
479.26	7346.94
479.44	7290.77
479.62	7585.68
479.80	7454.61
479.98	7487.37
480.16	7655.89
480.34	7653.55
480.52	7674.62
480.70	7793.98
480.88	7676.96
481.06	7735.47
481.24	7627.81
481.41	7742.49
481.59	8072.51
481.77	8084.21
481.95	8032.72
482.13	8320.60
482.31	8009.31
482.49	8280.82
482.67	8313.58
482.85	8510.19
483.03	8468.06
483.21	8596.79
483.39	8592.11
483.57	8531.25
483.74	8723.18
483.92	8723.18
484.10	8589.77
484.28	8968.93
484.46	8975.95
484.64	9238.09
484.82	9043.83
485.00	9289.59
485.18	9238.09
485.35	9584.49
485.53	9495.55
485.71	9516.62
485.89	9661.73
486.07	9678.12
486.25	9640.67
486.43	9825.57
486.61	9816.21
486.78	9753.01
486.96	10052.60
487.14	10202.40
487.32	10160.27
487.50	10214.10
487.68	10319.42
487.85	10520.71
488.03	10539.43
488.21	10555.82
488.39	10628.37
488.57	10867.11
488.75	10853.06
488.92	10815.62
489.10	10892.85
489.28	11194.78
489.46	11201.80
489.64	11183.08
489.81	11248.61
489.99	11213.51
490.17	11328.19
490.35	11590.33
490.53	11775.24
490.70	11536.50
490.88	11672.25
491.06	11585.65
491.24	11878.22
491.41	11976.52
491.59	11611.40
491.77	11812.68
491.95	12121.63
492.13	12280.79
492.30	12205.89
492.48	12250.36
492.66	12439.95
492.84	12093.55
493.01	12470.37
493.19	12603.78
493.37	12879.97
493.54	12940.82
493.72	12919.76
493.90	13048.49
494.08	13015.72
494.25	13067.21
494.43	13174.88
494.61	13397.23
494.79	13327.01
494.96	13319.99
495.14	13577.45
495.32	13343.39
495.49	13490.85
495.67	13577.45
495.85	13933.21
496.02	14031.51
496.20	14284.29
496.38	14321.74
496.55	14033.85
496.73	14338.12
496.91	14230.46
497.09	14331.10
497.26	14537.07
497.44	14340.46
497.62	14347.48
497.79	14590.90
497.97	14792.19
498.14	14916.23
498.32	15075.39
498.50	15087.09
498.67	15084.75
498.85	14981.77
499.03	15042.62
499.20	15243.91
499.38	15321.15
499.56	15817.34
499.73	15424.13
499.91	15517.75
500.08	15293.06
500.26	15482.64
500.44	15302.42
500.61	15800.96
500.79	15538.82
500.97	15747.12
501.14	15882.88
501.32	15875.85
501.49	15735.42
501.67	16147.36
501.84	16210.55
502.02	15988.20
502.20	16273.74
502.37	16154.38
502.55	16292.47
502.72	16231.62
502.90	16470.35
503.07	16336.94
503.25	16240.98
503.43	16343.96
503.60	16535.88
503.78	16521.84
503.95	16776.96
504.13	16755.90
504.30	16512.48
504.48	16608.44
504.65	16805.05
504.83	17032.08
505.01	17200.60
505.18	17067.19
505.36	17188.89
505.53	17123.36
505.71	17041.44
505.88	17013.35
506.06	17179.53
506.23	17680.41
506.41	17254.43
506.58	17380.82
506.76	17446.35
506.93	17432.31
507.11	17317.62
507.28	17771.69
507.46	17734.24
507.63	17951.91
507.81	18075.96
507.98	17659.34
508.16	17865.31
508.33	18024.47
508.50	18038.51
508.68	18242.14
508.85	18405.97
509.03	18015.10
509.20	18192.98
509.38	18211.71
509.55	18398.95
509.73	18471.51
509.90	18417.68
510.08	18427.04
510.25	18424.70
510.42	18834.29
510.60	18820.25
510.77	18946.64
510.95	18864.72
511.12	18799.18
511.30	18780.46
511.47	18986.43
511.64	18958.34
511.82	19042.60
511.99	19138.56
512.17	19213.46
512.34	19264.95
512.51	19105.79
512.69	19672.20
512.86	19480.28
513.04	19517.73
513.21	19463.90
513.38	19646.46
513.56	19580.92
513.73	19702.63
513.90	19480.28
514.08	19606.67
514.25	19576.24
514.43	19934.34
514.60	19964.77
514.77	19974.13
514.95	19714.33
515.12	20166.06
515.29	19859.45
515.47	20154.35
515.64	19976.47
515.81	20166.06
515.99	20456.28
516.16	20645.87
516.33	20393.09
516.51	20170.74
516.68	20212.87
516.85	20533.52
517.03	20355.64
517.20	20538.20
517.37	20805.02
517.54	20704.38
517.72	21104.61
517.89	20577.99
518.06	20959.50
518.24	20795.66
518.41	20802.68
518.58	21329.30
518.75	21036.74
518.93	21275.47
519.10	21116.31
519.27	21165.46
519.45	21151.42
519.62	21191.21
519.79	21331.64
519.96	21254.40
520.14	21373.77
520.31	21062.48
520.48	21532.93
520.65	21451.01
520.83	21343.35
521.00	21488.46
521.17	21390.16
521.34	21495.48
521.52	21795.07
521.69	21558.67
521.86	21818.47
522.03	22057.21
522.20	21764.64
522.38	22019.76
522.55	21923.80
522.72	21951.88
522.89	21806.77
523.07	22015.08
523.24	22319.35
523.41	22513.61
523.58	22270.20
523.75	22452.76
523.92	22118.06
524.10	22441.06
524.27	22398.93
524.44	22679.79
524.61	22375.52
524.78	22513.61
524.96	22504.25
525.13	22780.43
525.30	22686.81
525.47	22607.23
525.64	22782.77
525.81	23005.13
525.98	22878.74
526.16	22988.74
526.33	22909.16
526.50	22780.43
526.67	22757.03
526.84	22995.76
527.01	23234.50
527.18	23321.10
527.36	23227.48
527.53	23255.56
527.70	23379.61
527.87	23803.25
528.04	23358.55
528.21	23372.59
528.38	23267.27
528.55	23463.87
528.72	23531.75
528.89	23639.41
529.07	23260.24
529.24	23513.02
529.41	23723.67
529.58	23763.46
529.75	23651.11
529.92	23513.02
530.09	23726.01
530.26	24294.76
530.43	24067.73
530.60	23922.62
530.77	24116.88
530.94	24093.47
531.11	23836.02
531.28	23775.16
531.46	24023.26
531.63	24229.23
531.80	24112.20
531.97	24362.64
532.14	24219.86
532.31	24346.25
532.48	24283.06
532.65	24250.29
532.82	24353.27
532.99	24507.75
533.16	24264.33
533.33	24449.24
533.50	24549.88
533.67	24421.15
533.84	24315.83
534.01	24666.91
534.18	24720.74
534.35	24889.26
534.52	24655.20
534.69	24828.40
534.86	25010.96
535.03	24753.51
535.20	24889.26
535.37	24900.96
535.54	25266.08
535.71	24739.46
535.88	25006.28
536.05	24849.47
536.22	25242.68
536.38	25230.98
536.55	25144.38
536.72	25495.46
536.89	25137.35
537.06	25385.45
537.23	25610.14
537.40	25521.20
537.57	25137.35
537.74	25153.74
537.91	25500.14
538.08	25598.44
538.25	25425.24
538.42	25544.61
538.59	25593.76
538.75	25085.86
538.92	25558.65
539.09	25467.37
539.26	25757.60
539.43	25752.91
539.60	25752.91
539.77	25883.98
539.94	25937.82
540.11	25781.00
540.28	25823.13
540.44	26001.01
540.61	25671.00
540.78	25813.77
540.95	26061.87
541.12	25914.41
541.29	25888.67
541.46	25998.67
541.62	26206.98
541.79	26169.53
541.96	25638.23
542.13	25769.30
542.30	26214.00
542.47	26485.50
542.63	26354.43
542.80	26511.25
542.97	26740.62
543.14	27056.59
543.31	26426.99
543.48	26384.86
543.64	27051.91
543.81	26995.74
543.98	26703.17
544.15	26644.66
544.32	26951.27
544.48	27201.71
544.65	26815.52
544.82	26838.92
544.99	26675.09
545.16	27026.17
545.32	26867.01
545.49	27246.18
545.66	27267.24
545.83	26801.47
546.00	27370.22
546.16	27094.04
546.33	26953.61
546.50	26651.68
546.67	27136.17
546.83	26780.41
547.00	26965.31
547.17	27040.21
547.34	27353.84
547.50	27431.08
547.67	27522.36
547.84	26913.82
548.00	27388.95
548.17	27828.97
548.34	27019.14
548.51	27407.67
548.67	27709.60
548.84	27363.20
549.01	27688.54
549.18	27381.93
549.34	27239.15
549.51	27454.48
549.68	27484.91
549.84	27358.52
550.01	27566.83
550.18	27601.94
550.34	27840.67
550.51	27934.29
550.68	28109.83
550.84	27541.08
551.01	27880.46
551.18	27718.96
551.34	27672.15
551.51	27768.12
551.68	27711.94
551.84	28276.01
552.01	27723.65
552.18	28086.43
552.34	28025.57
552.51	28063.02
552.68	28142.60
552.84	28273.67
553.01	28231.54
553.18	28163.67
553.34	28395.38
553.51	27964.72
553.67	28112.17
553.84	28479.64
554.01	28149.62
554.17	28081.75
554.34	28414.10
554.51	28151.96
554.67	28229.20
554.84	28254.95
555.00	28212.82
555.17	28414.10
555.33	28460.91
555.50	28308.78
555.67	28491.34
555.83	28360.27
556.00	28570.92
556.16	28779.23
556.33	28491.34
556.50	28545.17
556.66	28851.78
556.83	28400.06
556.99	28793.27
557.16	28840.08
557.32	28500.70
557.49	29076.48
557.65	28622.41
557.82	28701.99
557.98	28379.00
558.15	29008.60
558.32	28683.27
558.48	28781.57
558.65	28905.62
558.81	29085.84
558.98	28999.24
559.14	28802.63
559.31	28751.14
559.47	28893.91
559.64	28945.41
559.80	28943.06
559.97	29032.00
560.13	29097.54
560.30	29123.29
560.46	29036.69
560.63	29130.31
560.79	28912.64
560.96	29090.52
561.12	28971.15
561.29	29046.05
561.45	28819.02
561.61	29439.26
561.78	29216.91
561.94	29556.28
562.11	29219.25
562.27	29434.58
562.44	29296.49
562.60	29326.91
562.77	29256.70
562.93	28929.02
563.10	29329.25
563.26	29467.34
563.42	29687.36
563.59	29479.05
563.75	29509.47
563.92	29193.50
564.08	29436.92
564.24	28931.36
564.41	29153.71
564.57	29415.85
564.74	29350.32
564.90	29439.26
565.07	29584.37
565.23	29294.14
565.39	29223.93
565.56	29909.71
565.72	29240.31
565.88	29242.65
566.05	29544.58
566.21	29006.26
566.38	29680.33
566.54	29759.91
566.70	29628.84
566.87	29710.76
567.03	29708.42
567.19	30022.05
567.36	29699.06
567.52	29551.60
567.68	29516.50
567.85	29563.31
568.01	29357.34
568.17	29612.46
568.34	29759.91
568.50	29862.90
568.66	29528.20
568.83	30246.74
568.99	29429.90
569.15	29507.13
569.32	29647.57
569.48	29502.45
569.64	29846.51
569.81	29593.73
569.97	29518.84
570.13	29923.75
570.30	29883.96
570.46	29937.79
570.62	29816.08
570.78	29692.04
570.95	29448.62
571.11	29717.78
571.27	29289.46
571.43	29532.88
571.60	29907.37
571.76	29743.53
571.92	29670.97
572.09	29832.47
572.25	30136.74
572.41	30038.44
572.57	29624.16
572.74	29785.66
572.90	29839.49
573.06	29989.28
573.22	29848.85
573.38	29582.03
573.55	30118.01
573.71	30284.19
573.87	30029.07
574.03	30115.67
574.20	30228.02
574.36	29563.31
574.52	30015.03
574.68	29598.41
574.84	30103.97
575.01	29989.28
575.17	29783.32
575.33	30036.09
575.49	30164.82
575.65	30464.41
575.82	30118.01
575.98	29890.98
576.14	30546.33
576.30	30134.40
576.46	29734.17
576.62	29780.98
576.79	29722.46
576.95	29764.59
577.11	29921.41
577.27	29944.81
577.43	30485.48
577.59	30192.91
577.75	30045.46
577.92	29830.13
578.08	29235.63
578.24	29862.90
578.40	30221.00
578.56	30176.53
578.72	30092.27
578.88	30834.22
579.04	30403.56
579.21	30078.22
579.37	30211.64
579.53	30148.44
579.69	30178.87
579.85	30338.02
580.01	30218.66
580.17	30309.94
580.33	30103.97
580.49	30181.21
580.65	30436.33
580.82	30359.09
580.98	30380.15
581.14	30300.58
581.30	30265.47
581.46	30089.93
581.62	30169.51
581.78	29914.39
581.94	30256.11
582.10	29968.22
582.26	30293.55
582.42	30019.71
582.58	30295.89
582.74	30204.61
582.90	30239.72
583.06	30654.00
583.22	30160.14
583.38	30141.42
583.54	29841.83
583.70	30036.09
583.86	30127.38
584.02	30157.80
584.18	30445.69
584.34	29993.97
584.50	30644.63
584.66	30511.22
584.82	30253.76
584.98	29930.77
585.14	29823.11
585.30	30141.42
585.46	30319.30
585.62	30249.08
585.78	30221.00
585.94	30141.42
586.10	30518.25
586.26	30525.27
586.42	30230.36
586.58	30787.41
586.74	30485.48
586.90	30071.20
587.06	30309.94
587.22	30286.53
587.38	30389.52
587.54	30897.41
587.70	30368.45
587.86	30410.58
588.02	30534.63
588.18	30677.40
588.34	30225.68
588.49	30307.60
588.65	30066.52
588.81	30286.53
588.97	30429.30
589.13	30141.42
589.29	30300.58
589.45	30125.04
589.61	30630.59
589.77	30436.33
589.93	30567.40
590.08	30984.01
590.24	30852.94
590.40	30974.65
590.56	30588.46
590.72	30410.58
590.88	30129.72
591.04	30518.25
591.20	30787.41
591.35	30881.03
591.51	31129.12
591.67	30866.98
591.83	30663.36
591.99	30759.32
592.15	30976.99
592.31	30642.29
592.46	30691.44
592.62	30328.66
592.78	30424.62
592.94	30764.00
593.10	30300.58
593.26	30780.39
593.41	31154.87
593.57	30401.22
593.73	30829.54
593.89	30918.48
594.05	30820.17
594.20	30579.10
594.36	30932.52
594.52	30717.19
594.68	30471.43
594.84	30469.09
594.99	31021.46
595.15	30967.63
595.31	31185.30
595.47	31157.21
595.62	30944.22
595.78	30824.86
595.94	30497.18
596.10	31131.47
596.25	30815.49
596.41	30328.66
596.57	30639.95
596.73	30735.92
596.88	30749.96
597.04	30740.60
597.20	31094.02
597.36	30731.23
597.51	30969.97
597.67	30441.01
597.83	30377.81
597.99	30773.36
598.14	30529.95
598.30	30756.98
598.46	30918.48
598.61	31091.68
598.77	30829.54
598.93	30817.83
599.09	31091.68
599.24	31253.17
599.40	31208.70
599.56	30881.03
599.71	31105.72
599.87	31241.47
600.03	30930.18
600.18	30698.47
600.34	30827.20
600.50	30347.39
600.65	30759.32
600.81	31299.98
600.97	30906.77
601.12	30859.96
601.28	31356.16
601.44	31255.51
601.59	31606.59
601.75	30806.13
601.91	31101.04
602.06	30457.39
602.22	31021.46
602.37	30953.58
602.53	30756.98
602.69	31206.36
602.84	30904.43
603.00	30909.11
603.16	31189.98
603.31	30836.56
603.47	30852.94
603.62	31129.12
603.78	30845.92
603.94	30581.44
604.09	30852.94
604.25	30808.47
604.40	31115.08
604.56	30824.86
604.71	30960.61
604.87	30815.49
605.03	31255.51
605.18	30845.92
605.34	30827.20
605.49	30504.20
605.65	30824.86
605.80	30859.96
605.96	30696.13
606.12	30394.20
606.27	31426.37
606.43	30555.69
606.58	31138.49
606.74	30817.83
606.89	31028.48
607.05	31108.06
607.20	31356.16
607.36	30941.88
607.51	30785.07
607.67	30852.94
607.82	30810.81
607.98	30756.98
608.13	30649.32
608.29	30548.67
608.44	30553.35
608.60	30658.68
608.75	30752.30
608.91	30834.22
609.06	30621.23
609.22	30888.05
609.37	30338.02
609.53	30579.10
609.68	30672.72
609.84	30441.01
609.99	30572.08
610.15	30396.54
610.30	30487.82
610.46	30272.49
610.61	30621.23
610.76	30630.59
610.92	30623.57
611.07	30555.69
611.23	30661.02
611.38	30267.81
611.54	30384.83
611.69	30279.51
611.84	30197.59
612.00	30724.21
612.15	30567.40
612.31	30649.32
612.46	30349.73
612.62	30525.27
612.77	30459.73
612.92	30581.44
613.08	30513.56
613.23	30682.08
613.39	30590.80
613.54	30078.22
613.69	30588.46
613.85	30632.93
614.00	30560.37
614.15	30160.14
614.31	30286.53
614.46	30691.44
614.62	30485.48
614.77	30373.13
614.92	30597.82
615.08	30518.25
615.23	30181.21
615.38	30206.95
615.54	29708.42
615.69	30174.19
615.84	29855.87
616.00	30003.33
616.15	29837.15
616.30	30270.15
616.46	30525.27
616.61	30272.49
616.76	30005.67
616.92	30113.33
617.07	30471.43
617.22	30162.48
617.37	30270.15
617.53	29954.18
617.68	30195.25
617.83	29832.47
617.99	29759.91
618.14	30110.99
618.29	29762.25
618.45	29764.59
618.60	30281.85
618.75	29972.90
618.90	30015.03
619.06	30038.44
619.21	29689.70
619.36	30085.25
619.51	29685.01
619.67	29340.96
619.82	29493.09
619.97	29685.01
620.12	29685.01
620.28	29607.78
620.43	29692.04
620.58	30106.31
620.73	29582.03
620.89	29912.05
621.04	30040.78
621.19	29560.97
621.34	29703.74
621.49	29626.50
621.65	29476.71
621.80	29532.88
621.95	29668.63
622.10	29427.56
622.25	29392.45
622.41	29766.93
622.56	29699.06
622.71	29905.02
622.86	29537.56
623.01	29380.74
623.16	29338.62
623.32	29104.56
623.47	29493.09
623.62	29722.46
623.77	29488.41
623.92	29537.56
624.07	29305.85
624.23	29490.75
624.38	29413.51
624.53	29254.36
624.68	29263.72
624.83	29713.10
624.98	29301.17
625.13	29336.27
625.29	29537.56
625.44	29298.83
625.59	29317.55
625.74	29083.50
625.89	28872.85
626.04	28964.13
626.19	29062.43
626.34	29401.81
626.49	28898.59
626.65	29294.14
626.80	29099.88
626.95	29233.29
627.10	29104.56
627.25	29577.35
627.40	28826.04
627.55	28690.29
627.70	29069.45
627.85	28746.46
628.00	28622.41
628.15	29024.98
628.30	28762.84
628.45	28711.35
628.60	28718.37
628.76	28772.21
628.91	28716.03
629.06	28851.78
629.21	28879.87
629.36	28718.37
629.51	28652.84
629.66	28910.30
629.81	28402.40
629.96	28608.37
630.11	28709.01
630.26	28369.63
630.41	28496.02
630.56	28615.39
630.71	28657.52
630.86	28577.94
631.01	28884.55
631.16	28816.68
631.31	28573.26
631.46	28264.31
631.61	28849.44
631.76	28694.97
631.91	28201.11
632.06	28205.80
632.21	28341.55
632.36	28222.18
632.51	28268.99
632.66	28701.99
632.81	28503.04
632.96	28348.57
633.10	28219.84
633.25	28243.24
633.40	28514.75
633.55	28500.70
633.70	28247.93
633.85	28231.54
634.00	28048.98
634.15	28224.52
634.30	28163.67
634.45	28273.67
634.60	28091.11
634.75	28376.66
634.90	27927.27
635.05	28540.49
635.19	27868.76
635.34	27974.08
635.49	28545.17
635.64	28107.49
635.79	27983.44
635.94	27747.05
636.09	28379.00
636.24	27894.50
636.39	27438.10
636.53	28210.48
636.68	28095.79
636.83	28032.60
636.98	27880.46
637.13	28072.39
637.28	28025.57
637.43	27770.46
637.57	27878.12
637.72	28051.32
637.87	27995.15
638.02	27566.83
638.17	27866.42
638.32	27178.30
638.46	27618.32
638.61	27470.87
638.76	27328.10
638.91	27585.55
639.06	27697.90
639.20	27545.76
639.35	27803.22
639.50	27697.90
639.65	27751.73
639.80	27852.38
639.94	27103.40
640.09	27761.09
640.24	27784.50
640.39	27351.50
640.54	27197.02
640.68	27119.79
640.83	27653.43
640.98	27225.11
641.13	27091.70
641.27	27674.49
641.42	27630.02
641.57	27414.69
641.72	27569.17
641.86	27222.77
642.01	27040.21
642.16	27243.84
642.31	27089.36
642.45	27122.13
642.60	26731.26
642.75	27145.53
642.90	26820.20
643.04	26824.88
643.19	26726.58
643.34	27182.98
643.48	27164.26
643.63	27115.11
643.78	27276.60
643.93	27143.19
644.07	27171.28
644.22	26981.70
644.37	27136.17
644.51	27080.00
644.66	26700.83
644.81	26824.88
644.95	26473.80
645.10	26923.18
645.25	27044.89
645.39	26630.62
645.54	26808.50
645.69	26904.46
645.83	26836.58
645.98	26735.94
646.13	26958.29
646.27	26969.99
646.42	26998.08
646.57	26735.94
646.71	26859.99
646.86	26808.50
647.00	26749.98
647.15	26895.10
647.30	26696.15
647.44	26520.61
647.59	26647.00
647.74	26565.08
647.88	26595.51
648.03	26558.06
648.17	26824.88
648.32	26618.91
648.47	26848.29
648.61	26714.87
648.76	27281.28
648.90	26457.42
649.05	26581.46
649.20	26539.33
649.34	26321.66
649.49	26015.05
649.63	26221.02
649.78	26075.91
649.92	26221.02
650.07	26384.86
650.21	26347.41
650.36	26607.21
650.51	25937.82
650.65	26331.03
650.80	26410.60
650.94	26359.11
651.09	26361.45
651.23	26251.45
651.38	26150.81
651.52	26092.29
651.67	26127.40
651.81	25928.45
651.96	26316.98
652.10	25972.92
652.25	26258.47
652.39	26082.93
652.54	26539.33
652.68	26340.39
652.83	26284.22
652.97	26569.76
653.12	25914.41
653.26	26075.91
653.41	25996.33
653.55	25916.75
653.70	25965.90
653.84	25921.43
653.99	25827.81
654.13	25958.88
654.27	26204.64
654.42	26031.44
654.56	25813.77
654.71	26008.03
654.85	25535.24
655.00	25874.62
655.14	25858.24
655.29	25799.73
655.43	25879.30
655.57	25785.68
655.72	25818.45
655.86	25781.00
656.01	25783.34
656.15	25483.75
656.30	25898.03
656.44	25638.23
656.58	25427.58
656.73	25694.40
656.87	25546.95
657.01	25518.86
657.16	25844.20
657.30	25687.38
657.45	25722.49
657.59	25820.79
657.73	25359.70
657.88	25876.96
658.02	25743.55
658.16	25137.35
658.31	25165.44
658.45	25495.46
658.60	25198.21
658.74	25326.94
658.88	25074.16
659.03	25502.48
659.17	25156.08
659.31	25111.61
659.46	25465.03
659.60	25343.32
659.74	25324.60
659.89	25041.39
660.03	24912.66
660.17	25345.66
660.32	24732.44
660.46	25074.16
660.60	24744.14
660.74	24669.25
660.89	24741.80
661.03	24872.87
661.17	24886.92
661.32	24648.18
661.46	24652.86
661.60	24833.08
661.74	24989.90
661.89	25010.96
662.03	24788.61
662.17	24758.19
662.31	24613.07
662.46	24599.03
662.60	24470.30
662.74	24531.15
662.88	24463.28
663.03	24383.70
663.17	24353.27
663.31	24271.36
663.45	24107.52
663.60	24261.99
663.74	24273.70
663.88	24512.43
664.02	24283.06
664.17	24587.33
664.31	24226.89
664.45	24109.86
664.59	24091.13
664.73	24524.13
664.88	24009.22
665.02	24072.41
665.16	23957.72
665.30	24056.03
665.44	23758.78
665.59	23503.66
665.73	23758.78
665.87	23639.41
666.01	24144.97
666.15	23552.81
666.29	23873.46
666.44	23866.44
666.58	23424.08
666.72	23590.26
666.86	23541.11
667.00	23679.20
667.14	23267.27
667.28	23616.01
667.43	23239.18
667.57	23634.73
667.71	23456.85
667.85	23257.90
667.99	23154.92
668.13	23232.16
668.27	22948.95
668.41	23108.11
668.56	23119.81
668.70	23243.86
668.84	23293.01
668.98	23166.62
669.12	23288.33
669.26	22902.14
669.40	22963.00
669.54	22939.59
669.68	23051.94
669.82	22604.89
669.96	22841.29
670.10	22595.53
670.25	22918.53
670.39	22658.73
670.53	22602.55
670.67	22429.35
670.81	22625.96
670.95	22494.89
671.09	22434.03
671.23	22422.33
671.37	22431.69
671.51	22464.46
671.65	22970.02
671.79	22380.20
671.93	22342.75
672.07	22396.59
672.21	22281.90
672.35	22052.53
672.49	21937.84
672.63	21989.33
672.77	21518.89
672.91	21907.41
673.05	21582.08
673.19	22008.06
673.33	21865.28
673.47	22003.38
673.61	21942.52
673.75	21958.91
673.89	21617.19
674.03	21692.08
674.17	21617.19
674.31	21600.80
674.45	21671.02
674.59	21947.20
674.73	21806.77
674.87	21575.06
675.01	21209.93
675.15	21401.86
675.29	20917.37
675.43	21149.08
675.56	21212.28
675.70	21191.21
675.84	21172.49
675.98	20421.17
676.12	21401.86
676.26	21434.63
676.40	21425.26
676.54	20779.28
676.68	20910.35
676.82	20547.56
676.96	20664.59
677.10	20589.69
677.23	20299.47
677.37	20479.69
677.51	20247.97
677.65	20372.02
677.79	20336.91
677.93	20402.45
678.07	20128.61
678.21	20177.76
678.34	20023.28
678.48	20095.84
678.62	19878.17
678.76	20229.25
678.90	20079.46
679.04	20074.77
679.18	19601.99
679.31	19679.22
679.45	19487.30
679.59	19562.20
679.73	19543.47
679.87	19496.66
680.00	19236.86
680.14	19250.91
680.28	19145.58
680.42	19489.64
680.56	19613.69
680.70	19117.50
680.83	19222.82
680.97	19227.50
681.11	19077.71
681.25	18658.75
681.39	18913.87
681.52	18810.89
681.66	18916.21
681.80	18724.29
681.94	18640.03
682.07	18712.58
682.21	18766.42
682.35	18387.25
682.49	18312.35
682.62	18375.55
682.76	17991.70
682.90	18174.26
683.04	18022.12
683.17	18384.91
683.31	18160.22
683.45	18143.83
683.59	18295.97
683.72	18157.88
683.86	18090.00
684.00	17951.91
684.13	17865.31
684.27	17912.12
684.41	17764.67
684.55	17603.17
684.68	17415.93
684.82	17270.81
684.96	17579.76
685.09	17397.20
685.23	17256.77
685.37	17479.12
685.50	17547.00
685.64	17432.31
685.78	17282.52
685.91	17350.39
686.05	17205.28
686.19	16938.46
686.32	17067.19
686.46	17104.64
686.60	16898.67
686.73	16828.45
686.87	16842.50
687.01	16744.19
687.14	16847.18
687.28	16428.22
687.42	16299.49
687.55	16503.12
687.69	16421.20
687.82	16311.19
687.96	16587.38
688.10	16161.40
688.23	16290.13
688.37	16585.04
688.50	16313.53
688.64	16135.65
688.78	16189.49
688.91	16107.57
689.05	16074.80
689.18	16091.18
689.32	15566.90
689.46	15653.50
689.59	15655.84
689.73	15758.83
689.86	15637.12
690.00	15573.92
690.13	15686.27
690.27	15585.63
690.41	15723.72
690.54	15480.30
690.68	15566.90
690.81	15314.13
690.95	15159.65
691.08	15318.81
691.22	15108.16
691.35	15077.73
691.49	15077.73
691.62	15026.24
691.76	14934.96
691.89	15033.26
692.03	15042.62
692.16	14775.80
692.30	14642.39
692.43	14384.93
692.57	14494.94
692.70	14548.77
692.84	14457.49
692.97	14115.77
693.11	14265.57
693.24	14305.35
693.38	14211.73
693.51	14162.58
693.65	14167.26
693.78	13825.54
693.92	14244.50
694.05	13837.25
694.19	13970.66
694.32	13958.96
694.45	13961.30
694.59	13614.90
694.72	13540.00
694.86	13481.49
694.99	13603.19
695.13	13729.58
695.26	13598.51
695.39	13277.86
695.53	13495.53
695.66	13448.72
695.80	13261.48
695.93	13277.86
696.07	13247.43
696.20	13177.22
696.33	13158.49
696.47	13170.19
696.60	13200.62
696.73	13043.81
696.87	12959.55
697.00	12643.57
697.14	12805.07
697.27	12795.71
697.40	12568.68
697.54	12423.56
697.67	12589.74
697.80	12561.66
697.94	12264.41
698.07	12229.30
698.21	12210.57
698.34	12343.99
698.47	12479.74
698.61	12077.16
698.74	12407.18
698.87	12095.89
699.01	12084.19
699.14	11976.52
699.27	11988.22
699.40	12046.74
699.54	11955.46
699.67	11754.17
699.80	11669.91
699.94	11688.64
700.07	11463.94
700.20	11620.76
700.34	11534.16
700.47	11421.81
700.60	11449.90
700.73	11543.52
700.87	11606.72
701.00	11377.34
701.13	11257.98
701.26	11389.05
701.40	11442.88
701.53	11239.25
701.66	11461.60
701.79	10934.98
701.93	11021.58
702.06	10970.09
702.19	10881.15
702.32	10689.23
702.46	10937.32
702.59	11035.63
702.72	10520.71
702.85	10544.11
702.99	10450.49
703.12	10623.69
703.25	10614.33
703.38	10452.83
703.51	10513.69
703.65	10399.00
703.78	10401.34
703.91	10279.63
704.04	10427.09
704.17	10296.02
704.31	10490.28
704.44	10120.48
704.57	10052.60
704.70	9940.26
704.83	9867.70
704.96	10101.75
705.10	9923.87
705.23	9668.75
>>>>>End Processed Spectral Data<<<<<
