SpectraSuite Data File
++++++++++++++++++++++++++++++++++++
Date: Fri Oct 18 13:58:12 GMT-05:00 2013
User: bianchi
Dark Spectrum Present: No
Reference Spectrum Present: No
Number of Sampled Component Spectra: 1
Spectrometers: USB2+H05261
Integration Time (usec): 50000 (USB2+H05261)
Spectra Averaged: 1 (USB2+H05261)
Boxcar Smoothing: 0 (USB2+H05261)
Correct for Electrical Dark: No (USB2+H05261)
Strobe/Lamp Enabled: No (USB2+H05261)
Correct for Detector Non-linearity: No (USB2+H05261)
Correct for Stray Light: No (USB2+H05261)
Number of Pixels in Processed Spectrum: 2048
>>>>>Begin Processed Spectral Data<<<<<
365.73	0.00
365.92	0.00
366.12	0.00
366.32	0.00
366.52	0.00
366.72	0.00
366.91	0.00
367.11	0.00
367.31	0.00
367.51	0.00
367.70	0.00
367.90	0.00
368.10	0.00
368.30	0.00
368.49	0.00
368.69	0.00
368.89	0.00
369.09	0.00
369.28	0.00
369.48	0.00
369.68	0.00
369.87	0.00
370.07	0.00
370.27	0.00
370.47	0.00
370.66	81.92
370.86	102.98
371.06	138.09
371.25	152.13
371.45	100.64
371.65	140.43
371.84	140.43
372.04	163.84
372.24	227.03
372.44	222.35
372.63	170.86
372.83	222.35
373.03	166.18
373.22	173.20
373.42	215.33
373.62	210.65
373.81	287.89
374.01	241.08
374.21	266.82
374.40	222.35
374.60	259.80
374.79	269.16
374.99	283.20
375.19	262.14
375.38	255.12
375.58	276.18
375.78	217.67
375.97	257.46
376.17	243.42
376.37	266.82
376.56	191.92
376.76	222.35
376.95	231.71
377.15	198.95
377.35	285.55
377.54	201.29
377.74	287.89
377.93	304.27
378.13	330.02
378.33	297.25
378.52	306.61
378.72	311.29
378.91	369.80
379.11	360.44
379.31	341.72
379.50	266.82
379.70	248.10
379.89	322.99
380.09	299.59
380.28	327.68
380.48	297.25
380.68	297.25
380.87	278.52
381.07	294.91
381.26	301.93
381.46	358.10
381.65	376.83
381.85	262.14
382.04	315.97
382.24	367.46
382.43	285.55
382.63	397.89
382.83	411.93
383.02	353.42
383.22	376.83
383.41	353.42
383.61	348.74
383.80	390.87
384.00	355.76
384.19	360.44
384.39	374.49
384.58	365.12
384.78	358.10
384.97	358.10
385.17	353.42
385.36	358.10
385.56	402.57
385.75	411.93
385.95	369.80
386.14	447.04
386.34	358.10
386.53	402.57
386.72	463.43
386.92	433.00
387.11	428.32
387.31	418.96
387.50	482.15
387.70	472.79
387.89	449.38
388.09	416.62
388.28	346.40
388.48	456.40
388.67	472.79
388.86	423.64
389.06	428.32
389.25	423.64
389.45	390.87
389.64	564.07
389.84	451.72
390.03	528.96
390.22	468.11
390.42	433.00
390.61	484.49
390.81	486.83
391.00	528.96
391.19	482.15
391.39	571.09
391.58	550.03
391.78	486.83
391.97	547.69
392.16	585.13
392.36	589.82
392.55	524.28
392.75	521.94
392.94	484.49
393.13	533.64
393.33	557.05
393.52	496.19
393.71	606.20
393.91	550.03
394.10	641.31
394.29	629.60
394.49	545.34
394.68	641.31
394.88	615.56
395.07	580.45
395.26	622.58
395.46	643.65
395.65	706.84
395.84	711.52
396.04	662.37
396.23	730.25
396.42	638.97
396.62	706.84
396.81	709.18
397.00	755.99
397.19	678.76
397.39	645.99
397.58	755.99
397.77	725.57
397.97	704.50
398.16	655.35
398.35	725.57
398.55	753.65
398.74	744.29
398.93	779.40
399.12	695.14
399.32	638.97
399.51	706.84
399.70	772.38
399.90	681.10
400.09	753.65
400.28	786.42
400.47	758.33
400.67	840.25
400.86	795.78
401.05	711.52
401.24	819.19
401.44	847.27
401.63	767.70
401.82	842.59
402.01	851.96
402.21	805.14
402.40	828.55
402.59	863.66
402.78	854.30
402.97	844.93
403.17	828.55
403.36	873.02
403.55	954.94
403.74	889.40
403.93	992.39
404.13	940.90
404.32	840.25
404.51	880.04
404.70	943.24
404.89	936.21
405.09	1034.52
405.28	901.11
405.47	952.60
405.66	997.07
405.85	1025.15
406.05	964.30
406.24	973.66
406.43	968.98
406.62	1111.75
406.81	1064.94
407.00	1001.75
407.20	1004.09
407.39	1046.22
407.58	1057.92
407.77	1125.80
407.96	1022.81
408.15	1069.62
408.34	1048.56
408.54	1086.01
408.73	1020.47
408.92	1057.92
409.11	1146.86
409.30	1231.12
409.49	1151.54
409.68	1146.86
409.87	1163.25
410.07	1172.61
410.26	1153.88
410.45	1212.40
410.64	1179.63
410.83	1296.66
411.02	1135.16
411.21	1224.10
411.40	1193.67
411.59	1336.45
411.78	1268.57
411.98	1268.57
412.17	1352.83
412.36	1198.35
412.55	1256.87
412.74	1404.32
412.93	1343.47
413.12	1331.76
413.31	1369.21
413.50	1411.34
413.69	1399.64
413.88	1439.43
414.07	1476.88
414.26	1451.13
414.45	1591.56
414.64	1500.28
414.83	1427.73
415.02	1488.58
415.22	1483.90
415.41	1516.67
415.60	1598.59
415.79	1600.93
415.98	1633.69
416.17	1570.50
416.36	1579.86
416.55	1577.52
416.74	1617.31
416.93	1621.99
417.12	1727.32
417.31	1636.03
417.50	1743.70
417.69	1692.21
417.88	1724.97
418.07	1708.59
418.26	1732.00
418.45	1748.38
418.64	1818.60
418.83	1748.38
419.02	1820.94
419.21	1827.96
419.39	1844.34
419.58	1851.36
419.77	1795.19
419.96	1872.43
420.15	1811.57
420.34	1902.86
420.53	1930.94
420.72	1926.26
420.91	1940.30
421.10	1942.64
421.29	2033.93
421.48	1916.90
421.67	1900.52
421.86	1944.99
422.05	1909.88
422.24	1900.52
422.43	2062.01
422.61	1851.36
422.80	2008.18
422.99	2026.90
423.18	2022.22
423.37	2143.93
423.56	2026.90
423.75	2069.03
423.94	2026.90
424.13	1823.28
424.32	1935.62
424.50	2083.08
424.69	2104.14
424.88	2160.31
425.07	2022.22
425.26	1994.14
425.45	2047.97
425.64	2125.21
425.83	2012.86
426.01	2150.95
426.20	2125.21
426.39	2050.31
426.58	2036.27
426.77	2148.61
426.96	2101.80
427.15	2087.76
427.33	2221.17
427.52	2113.50
427.71	2038.61
427.90	2146.27
428.09	2193.08
428.28	2214.15
428.46	2174.36
428.65	2188.40
428.84	2300.75
429.03	2317.13
429.22	2115.84
429.40	2380.32
429.59	2385.01
429.78	2129.89
429.97	2284.36
430.16	2211.81
430.34	2338.20
430.53	2382.67
430.72	2420.11
430.91	2279.68
431.10	2267.98
431.28	2377.98
431.47	2377.98
431.66	2373.30
431.85	2363.94
432.03	2473.95
432.22	2471.61
432.41	2541.82
432.60	2523.10
432.79	2375.64
432.97	2413.09
433.16	2513.74
433.35	2530.12
433.54	2576.93
433.72	2513.74
433.91	2527.78
434.10	2546.50
434.28	2511.39
434.47	2574.59
434.66	2574.59
434.85	2675.23
435.03	2569.91
435.22	2506.71
435.41	2794.60
435.59	2759.49
435.78	2668.21
435.97	2633.10
436.16	2534.80
436.34	2651.83
436.53	2722.04
436.72	2829.71
436.90	2677.57
437.09	2764.17
437.28	2722.04
437.46	2715.02
437.65	2717.36
437.84	2780.56
438.02	2916.31
438.21	2860.13
438.40	2991.20
438.58	2904.60
438.77	2935.03
438.96	2871.84
439.14	3040.36
439.33	3101.21
439.52	3052.06
439.70	3054.40
439.89	3105.89
440.08	3047.38
440.26	3094.19
440.45	2970.14
440.63	3119.93
440.82	3110.57
441.01	3155.04
441.19	2972.48
441.38	3180.79
441.57	3288.45
441.75	3375.05
441.94	3276.75
442.12	3276.75
442.31	3344.63
442.50	3239.30
442.68	3372.71
442.87	3332.92
443.05	3307.18
443.24	3503.78
443.43	3473.36
443.61	3501.44
443.80	3513.14
443.98	3379.73
444.17	3248.66
444.35	3480.38
444.54	3513.14
444.73	3506.12
444.91	3487.40
445.10	3489.74
445.28	3466.33
445.47	3496.76
445.65	3473.36
445.84	3503.78
446.02	3616.13
446.21	3524.85
446.39	3368.03
446.58	3501.44
446.77	3396.12
446.95	3534.21
447.14	3459.31
447.32	3524.85
447.51	3557.61
447.69	3552.93
447.88	3606.77
448.06	3466.33
448.25	3545.91
448.43	3515.48
448.62	3641.87
448.80	3524.85
448.99	3634.85
449.17	3698.05
449.36	3609.11
449.54	3723.79
449.73	3698.05
449.91	3730.81
450.10	3637.19
450.28	3695.71
450.46	3803.37
450.65	3826.78
450.83	3911.04
451.02	3831.46
451.20	3829.12
451.39	3836.14
451.57	3737.84
451.76	3794.01
451.94	3833.80
452.13	3892.31
452.31	3712.09
452.49	3747.20
452.68	3810.39
452.86	3775.28
453.05	3960.19
453.23	3932.10
453.42	3786.99
453.60	3833.80
453.78	3960.19
453.97	3941.46
454.15	4025.72
454.34	3927.42
454.52	4166.15
454.70	4124.02
454.89	3922.74
455.07	4077.21
455.26	4149.77
455.44	4147.43
455.62	4131.05
455.81	4119.34
455.99	4147.43
456.17	4236.37
456.36	4168.49
456.54	4306.59
456.73	4257.43
456.91	4341.69
457.09	4243.39
457.28	4344.03
457.46	4177.86
457.64	4379.14
457.83	4540.64
458.01	4416.59
458.19	4498.51
458.38	4451.70
458.56	4587.45
458.74	4465.74
458.93	4407.23
459.11	4496.17
459.29	4507.87
459.48	4580.43
459.66	4528.94
459.84	4610.86
460.03	4578.09
460.21	4622.56
460.39	4636.60
460.57	4627.24
460.76	4624.90
460.94	4629.58
461.12	4531.28
461.31	4634.26
461.49	4662.35
461.67	4564.04
461.85	4718.52
462.04	4615.54
462.22	5011.09
462.40	4744.27
462.59	4744.27
462.77	4765.33
462.95	4835.55
463.13	4854.27
463.32	5048.54
463.50	4971.30
463.68	4828.53
463.86	4929.17
464.05	4896.40
464.23	4851.93
464.41	4936.19
464.59	5018.11
464.78	5100.03
464.96	5060.24
465.14	4903.42
465.32	5067.26
465.50	5146.84
465.69	5097.69
465.87	4980.66
466.05	5200.67
466.23	5121.09
466.41	5060.24
466.60	5240.46
466.78	5198.33
466.96	4971.30
467.14	5177.26
467.32	5076.62
467.51	5228.76
467.69	4975.98
467.87	5203.01
468.05	5139.82
468.23	5203.01
468.41	5200.67
468.60	5181.95
468.78	5355.15
468.96	5247.48
469.14	5376.21
469.32	5401.96
469.50	5203.01
469.69	5530.69
469.87	5556.43
470.05	5523.66
470.23	5497.92
470.41	5486.22
470.59	5577.50
470.77	5500.26
470.95	5626.65
471.14	5652.39
471.32	5528.35
471.50	5769.42
471.68	5591.54
471.86	5603.24
472.04	5654.73
472.22	5870.06
472.40	5554.09
472.58	5682.82
472.77	5900.49
472.95	5858.36
473.13	6127.52
473.31	5858.36
473.49	5879.43
473.67	5912.19
473.85	6017.52
474.03	6197.74
474.21	6001.13
474.39	6090.07
474.57	6139.23
474.75	6225.82
474.93	6251.57
475.12	6064.33
475.30	6417.75
475.48	6300.72
475.66	6328.81
475.84	6370.94
476.02	6569.88
476.20	6441.15
476.38	6471.58
476.56	6778.19
476.74	6637.76
476.92	6628.40
477.10	6789.89
477.28	6686.91
477.46	6663.51
477.64	6827.34
477.82	6808.62
478.00	7077.78
478.18	6942.03
478.36	6979.48
478.54	7253.32
478.72	7138.63
478.90	7201.83
479.08	7410.14
479.26	7384.39
479.44	7346.94
479.62	7543.55
479.80	7421.84
479.98	7503.76
480.16	7494.40
480.34	7440.56
480.52	7889.95
480.70	7754.19
480.88	7552.91
481.06	7803.35
481.24	7840.79
481.41	8006.97
481.59	8037.40
481.77	8163.79
481.95	8109.96
482.13	8180.17
482.31	8311.24
482.49	8344.01
482.67	8381.46
482.85	8430.61
483.03	8538.27
483.21	8765.31
483.39	8748.92
483.57	8638.92
483.74	8678.71
483.92	8997.02
484.10	8699.77
484.28	8879.99
484.46	9156.18
484.64	9198.31
484.82	9123.41
485.00	9303.63
485.18	9408.95
485.35	9685.14
485.53	9462.79
485.71	9476.83
485.89	9764.72
486.07	9579.81
486.25	9837.27
486.43	9603.22
486.61	9853.66
486.78	10008.13
486.96	9975.36
487.14	10122.82
487.32	10375.59
487.50	10321.76
487.68	10555.82
487.85	10562.84
488.03	10705.61
488.21	11026.26
488.39	10878.81
488.57	10766.46
488.75	10906.90
488.92	11073.07
489.10	11147.97
489.28	11321.17
489.46	10965.41
489.64	11330.53
489.81	11492.03
489.99	11487.35
490.17	11613.74
490.35	11744.81
490.53	11632.46
490.70	11758.85
490.88	11866.52
491.06	11908.65
491.24	11988.22
491.41	12304.20
491.59	12259.73
491.77	12327.60
491.95	12210.57
492.13	12269.09
492.30	12449.31
492.48	12376.75
492.66	12468.03
492.84	12304.20
493.01	12645.91
493.19	12692.73
493.37	12812.09
493.54	13008.70
493.72	13006.36
493.90	13158.49
494.08	13083.59
494.25	13392.55
494.43	13521.27
494.61	13439.36
494.79	13429.99
494.96	13549.36
495.14	13685.11
495.32	13860.65
495.49	13757.67
495.67	13790.44
495.85	14232.80
496.02	13973.00
496.20	14073.64
496.38	14003.43
496.55	14347.48
496.73	14413.02
496.91	14225.78
497.09	14171.94
497.26	14752.40
497.44	14508.98
497.62	14464.51
497.79	14820.27
497.97	14834.32
498.14	15159.65
498.32	15091.77
498.50	15145.61
498.67	15267.31
498.85	15063.69
499.03	15014.54
499.20	15232.21
499.38	15183.06
499.56	15283.70
499.73	15484.98
499.91	15655.84
500.08	15822.02
500.26	15573.92
500.44	15396.04
500.61	15768.19
500.79	15665.21
500.97	15880.53
501.14	15985.86
501.32	16039.69
501.49	16325.24
501.67	16081.82
501.84	16063.10
502.02	16095.86
502.20	16292.47
502.37	16566.31
502.55	16627.17
502.72	16545.25
502.90	16360.34
503.07	16292.47
503.25	16627.17
503.43	16435.24
503.60	16659.93
503.78	16886.97
503.95	16734.83
504.13	16987.61
504.30	16856.54
504.48	16861.22
504.65	16760.58
504.83	17247.41
505.01	17565.72
505.18	17369.12
505.36	17282.52
505.53	17315.28
505.71	17287.20
505.88	17671.04
506.06	17474.44
506.23	17673.39
506.41	17444.01
506.58	17682.75
506.76	17640.62
506.93	17645.30
507.11	17790.41
507.28	17727.22
507.46	17575.08
507.63	17968.29
507.81	18256.18
507.98	18106.38
508.16	18127.45
508.33	17909.78
508.50	18232.77
508.68	18214.05
508.85	18508.96
509.03	18506.62
509.20	18431.72
509.38	18740.67
509.55	18665.77
509.73	18457.46
509.90	18986.43
510.08	18785.14
510.25	18684.50
510.42	18649.39
510.60	19007.49
510.77	19040.26
510.95	19117.50
511.12	18867.06
511.30	19087.07
511.47	19087.07
511.64	19183.03
511.82	19417.08
511.99	19545.81
512.17	19199.41
512.34	19232.18
512.51	19339.85
512.69	19616.03
512.86	19950.73
513.04	19875.83
513.21	19934.34
513.38	19960.09
513.56	19740.08
513.73	19672.20
513.90	20065.41
514.08	19992.86
514.25	19887.53
514.43	19899.23
514.60	20255.00
514.77	20107.54
514.95	20304.15
515.12	20105.20
515.29	20006.90
515.47	20561.61
515.64	20381.38
515.81	20327.55
515.99	20257.34
516.16	20814.38
516.33	20713.74
516.51	20695.02
516.68	20737.15
516.85	20507.77
517.03	20790.98
517.20	20606.08
517.37	20732.47
517.54	20837.79
517.72	20922.05
517.89	20446.92
518.06	20994.61
518.24	21090.57
518.41	21099.93
518.58	20966.52
518.75	21008.65
518.93	21453.35
519.10	21275.47
519.27	21184.19
519.45	21371.43
519.62	21097.59
519.79	21380.79
519.96	21467.39
520.14	21504.84
520.31	21420.58
520.48	21649.96
520.65	21570.38
520.83	21893.37
521.00	21600.80
521.17	21722.51
521.34	22120.40
521.52	21869.97
521.69	21916.78
521.86	22099.34
522.03	22202.32
522.20	22345.09
522.38	22008.06
522.55	22394.25
522.72	22134.45
522.89	22132.11
523.07	22518.29
523.24	22354.46
523.41	22499.57
523.58	22324.03
523.75	22061.89
523.92	22511.27
524.10	22256.15
524.27	22820.22
524.44	22635.32
524.61	22724.26
524.78	22878.74
524.96	22806.18
525.13	22899.80
525.30	23037.89
525.47	22813.20
525.64	23063.64
525.81	23117.47
525.98	23274.29
526.16	22867.03
526.33	23140.88
526.50	23049.60
526.67	23398.34
526.84	23314.08
527.01	23318.76
527.18	23335.14
527.36	23365.57
527.53	23496.64
527.70	24053.69
527.87	23892.19
528.04	23716.65
528.21	23543.45
528.38	23889.85
528.55	23782.18
528.72	23791.55
528.89	24191.78
529.07	23594.94
529.24	23791.55
529.41	23903.89
529.58	23723.67
529.75	23946.02
529.92	23990.49
530.09	24100.50
530.26	24201.14
530.43	24259.65
530.60	23995.17
530.77	24041.98
530.94	24149.65
531.11	24372.00
531.28	24320.51
531.46	24217.52
531.63	24678.61
531.80	24446.90
531.97	24694.99
532.14	24687.97
532.31	24587.33
532.48	24531.15
532.65	24472.64
532.82	24379.02
532.99	24465.62
533.16	24496.05
533.33	24952.45
533.50	25008.62
533.67	25015.65
533.84	24533.50
534.01	25130.33
534.18	24851.81
534.35	25106.93
534.52	25029.69
534.69	25062.46
534.86	25191.19
535.03	24922.02
535.20	25357.36
535.37	25357.36
535.54	25345.66
535.71	24947.77
535.88	25340.98
536.05	25233.32
536.22	24999.26
536.38	25792.70
536.55	25495.46
536.72	25369.07
536.89	25373.75
537.06	25539.93
537.23	25392.47
537.40	25481.41
537.57	25441.62
537.74	25411.20
537.91	25621.84
538.08	25795.04
538.25	25500.14
538.42	25764.62
538.59	25898.03
538.75	25600.78
538.92	25656.95
539.09	25696.74
539.26	26001.01
539.43	25883.98
539.60	25855.90
539.77	25977.61
539.94	25891.01
540.11	25799.73
540.28	25979.95
540.44	25926.11
540.61	25841.85
540.78	26075.91
540.95	26401.24
541.12	26284.22
541.29	26111.02
541.46	26424.65
541.62	26192.94
541.79	26576.78
541.96	25909.73
542.13	25956.54
542.30	26333.37
542.47	26780.41
542.63	26721.90
542.80	26473.80
542.97	26925.52
543.14	26810.84
543.31	26602.53
543.48	26668.06
543.64	26862.33
543.81	27103.40
543.98	26932.54
544.15	27178.30
544.32	27002.76
544.48	27300.01
544.65	26934.88
544.82	26904.46
544.99	26972.33
545.16	26792.11
545.32	27019.14
545.49	27180.64
545.66	27023.83
545.83	27335.12
546.00	27381.93
546.16	27197.02
546.33	27208.73
546.50	27229.79
546.67	27182.98
546.83	27117.45
547.00	27316.39
547.17	27292.99
547.34	27618.32
547.50	27562.15
547.67	27672.15
547.84	27908.55
548.00	27634.71
548.17	27648.75
548.34	27782.16
548.51	27985.79
548.67	27866.42
548.84	27735.35
549.01	27779.82
549.18	27943.66
549.34	27569.17
549.51	27751.73
549.68	27917.91
549.84	27885.14
550.01	28004.51
550.18	27803.22
550.34	27854.72
550.51	28397.72
550.68	28121.54
550.84	27665.13
551.01	27999.83
551.18	28116.86
551.34	27985.79
551.51	27910.89
551.68	28336.87
551.84	28264.31
552.01	28048.98
552.18	28222.18
552.34	28386.02
552.51	28233.88
552.68	28119.20
552.84	28505.38
553.01	28414.10
553.18	28320.48
553.34	28371.97
553.51	28599.01
553.67	28301.76
553.84	28926.68
554.01	28837.74
554.17	28802.63
554.34	28725.39
554.51	28081.75
554.67	28931.36
554.84	28645.82
555.00	28765.18
555.17	29041.37
555.33	28622.41
555.50	28758.16
555.67	28994.56
555.83	28680.92
556.00	28465.60
556.16	29022.64
556.33	28910.30
556.50	28903.28
556.66	28914.98
556.83	28734.76
556.99	29144.35
557.16	29371.38
557.32	28816.68
557.49	29263.72
557.65	29109.24
557.82	28903.28
557.98	28671.56
558.15	29060.09
558.32	29092.86
558.48	29116.26
558.65	29186.48
558.81	29174.78
558.98	28870.51
559.14	29137.33
559.31	29085.84
559.47	29134.99
559.64	29132.65
559.80	29329.25
559.97	29268.40
560.13	28884.55
560.30	29120.95
560.46	29336.27
560.63	29282.44
560.79	29465.00
560.96	29312.87
561.12	29221.59
561.29	29116.26
561.45	29474.37
561.61	29029.66
561.78	29490.75
561.94	29273.08
562.11	29275.42
562.27	29675.65
562.44	29446.28
562.60	29523.52
562.77	29373.72
562.93	29144.35
563.10	29837.15
563.26	29490.75
563.42	29806.72
563.59	29921.41
563.75	29717.78
563.92	29961.20
564.08	29617.14
564.24	29394.79
564.41	29198.18
564.57	29436.92
564.74	29879.28
564.90	29638.20
565.07	29680.33
565.23	29790.34
565.39	29633.52
565.56	29755.23
565.72	29654.59
565.88	29823.11
566.05	29846.51
566.21	29832.47
566.38	29717.78
566.54	29816.08
566.70	30354.41
566.87	30068.86
567.03	30164.82
567.19	30438.67
567.36	30171.85
567.52	30031.41
567.68	30167.16
567.85	29558.63
568.01	30347.39
568.17	29834.81
568.34	30183.55
568.50	30136.74
568.66	29940.13
568.83	29919.07
568.99	29696.72
569.15	29991.62
569.32	29799.70
569.48	30033.75
569.64	29993.97
569.81	29687.36
569.97	30174.19
570.13	30469.09
570.30	29930.77
570.46	30288.87
570.62	30298.23
570.78	29837.15
570.95	29930.77
571.11	30106.31
571.27	29762.25
571.43	29790.34
571.60	29956.52
571.76	29741.19
571.92	30249.08
572.09	30087.59
572.25	30347.39
572.41	30501.86
572.57	30459.73
572.74	30607.19
572.90	29916.73
573.06	30295.89
573.22	29813.74
573.38	30054.82
573.55	30323.98
573.71	30497.18
573.87	30431.65
574.03	30171.85
574.20	30300.58
574.36	29883.96
574.52	30225.68
574.68	29940.13
574.84	29984.60
575.01	30469.09
575.17	30499.52
575.33	29956.52
575.49	30195.25
575.65	30483.14
575.82	29951.84
575.98	30171.85
576.14	30314.62
576.30	30103.97
576.46	30188.23
576.62	30085.25
576.79	30560.37
576.95	30211.64
577.11	30485.48
577.27	30473.78
577.43	30167.16
577.59	30363.77
577.75	30183.55
577.92	30169.51
578.08	30494.84
578.24	30197.59
578.40	30157.80
578.56	30293.55
578.72	30403.56
578.88	30459.73
579.04	30628.25
579.21	30192.91
579.37	29853.53
579.53	30731.23
579.69	29963.54
579.85	30553.35
580.01	30246.74
580.17	30352.07
580.33	30452.71
580.49	30597.82
580.65	30258.45
580.82	30721.87
580.98	30448.03
581.14	30506.54
581.30	30682.08
581.46	30485.48
581.62	30682.08
581.78	30377.81
581.94	30352.07
582.10	30260.79
582.26	30583.78
582.42	30513.56
582.58	30700.81
582.74	30113.33
582.90	30279.51
583.06	30623.57
583.22	30258.45
583.38	30331.00
583.54	30567.40
583.70	30185.89
583.86	30747.62
584.02	30642.29
584.18	30714.85
584.34	30841.24
584.50	30703.15
584.66	30672.72
584.82	30370.79
584.98	30668.04
585.14	30661.02
585.30	30134.40
585.46	30518.25
585.62	30345.05
585.78	30705.49
585.94	30272.49
586.10	30637.61
586.26	30485.48
586.42	30831.88
586.58	30742.94
586.74	30574.42
586.90	30396.54
587.06	30176.53
587.22	30663.36
587.38	30373.13
587.54	30677.40
587.70	30817.83
587.86	30747.62
588.02	30569.74
588.18	30993.37
588.34	30717.19
588.49	30785.07
588.65	30611.87
588.81	30614.21
588.97	30522.93
589.13	30551.01
589.29	30747.62
589.45	30719.53
589.61	31117.42
589.77	31318.71
589.93	31087.00
590.08	30930.18
590.24	31129.12
590.40	31164.23
590.56	31164.23
590.72	30916.14
590.88	31047.21
591.04	30815.49
591.20	31379.56
591.35	30923.16
591.51	31283.60
591.67	30976.99
591.83	30944.22
591.99	31178.28
592.15	31330.41
592.31	30764.00
592.46	30581.44
592.62	31058.91
592.78	30623.57
592.94	31016.78
593.10	30728.89
593.26	31182.96
593.41	31140.83
593.57	31002.74
593.73	31208.70
593.89	31138.49
594.05	30953.58
594.20	30969.97
594.36	31402.97
594.52	31019.12
594.68	30913.80
594.84	30768.68
594.99	31112.74
595.15	31264.88
595.31	31140.83
595.47	30909.11
595.62	31164.23
595.78	30632.93
595.94	31056.57
596.10	31192.32
596.25	31094.02
596.41	30888.05
596.57	30801.45
596.73	30745.28
596.88	30986.35
597.04	31297.64
597.20	31056.57
597.36	31421.69
597.51	31243.81
597.67	30909.11
597.83	31182.96
597.99	31040.18
598.14	31140.83
598.30	31197.00
598.46	30841.24
598.61	30955.93
598.77	30768.68
598.93	31225.09
599.09	31292.96
599.24	31477.86
599.40	31424.03
599.56	31634.68
599.71	31384.24
599.87	31269.56
600.03	30916.14
600.18	30703.15
600.34	31005.08
600.50	31185.30
600.65	31208.70
600.81	31250.83
600.97	31555.10
601.12	31585.53
601.28	31491.91
601.44	31278.92
601.59	31314.03
601.75	31159.55
601.91	31407.65
602.06	31323.39
602.22	31243.81
602.37	30834.22
602.53	31328.07
602.69	31583.19
602.84	31255.51
603.00	31297.64
603.16	31363.18
603.31	31056.57
603.47	31349.14
603.62	31154.87
603.78	31171.25
603.94	31381.90
604.09	31115.08
604.25	31016.78
604.40	30902.09
604.56	31599.57
604.71	31297.64
604.87	31393.61
605.03	31105.72
605.18	31566.81
605.34	30979.33
605.49	30747.62
605.65	30955.93
605.80	31292.96
605.96	30998.06
606.12	30866.98
606.27	31234.45
606.43	31133.81
606.58	31627.66
606.74	30874.01
606.89	31094.02
607.05	31344.45
607.20	31283.60
607.36	31395.95
607.51	31288.28
607.67	30918.48
607.82	30721.87
607.98	30745.28
608.13	31068.27
608.29	31236.79
608.44	31229.77
608.60	30899.75
608.75	31519.99
608.91	30986.35
609.06	31384.24
609.22	31019.12
609.37	30651.66
609.53	30691.44
609.68	30611.87
609.84	30733.57
609.99	31075.29
610.15	30951.24
610.30	30831.88
610.46	30820.17
610.61	31199.34
610.76	30984.01
610.92	31250.83
611.07	31136.15
611.23	30822.51
611.38	30852.94
611.54	30813.15
611.69	30930.18
611.84	30738.26
612.00	30661.02
612.15	30513.56
612.31	31229.77
612.46	30780.39
612.62	30857.62
612.77	30799.11
612.92	30967.63
613.08	30654.00
613.23	30965.29
613.39	30679.74
613.54	30862.30
613.69	30228.02
613.85	30682.08
614.00	30796.77
614.15	30707.83
614.31	30628.25
614.46	31019.12
614.62	30768.68
614.77	30831.88
614.92	30522.93
615.08	30466.75
615.23	30415.26
615.38	30429.30
615.54	30518.25
615.69	30476.12
615.84	30604.84
616.00	30375.47
616.15	30504.20
616.30	30553.35
616.46	30419.94
616.61	30738.26
616.76	30661.02
616.92	30717.19
617.07	30717.19
617.22	30221.00
617.37	30160.14
617.53	30202.27
617.68	30167.16
617.83	30195.25
617.99	30085.25
618.14	30349.73
618.29	30286.53
618.45	30436.33
618.60	30497.18
618.75	30347.39
618.90	30249.08
619.06	30274.83
619.21	30286.53
619.36	30508.88
619.51	30213.98
619.67	30019.71
619.82	29792.68
619.97	30096.95
620.12	29853.53
620.28	30213.98
620.43	30265.47
620.58	29795.02
620.73	30115.67
620.89	29888.64
621.04	30572.08
621.19	30160.14
621.34	29837.15
621.49	30113.33
621.65	29935.45
621.80	29963.54
621.95	29776.30
622.10	29720.12
622.25	29560.97
622.41	29855.87
622.56	30085.25
622.71	29989.28
622.86	29731.83
623.01	29731.83
623.16	29656.93
623.32	29661.61
623.47	29551.60
623.62	29773.95
623.77	29689.70
623.92	29556.28
624.07	29378.40
624.23	29589.05
624.38	29867.58
624.53	29544.58
624.68	29497.77
624.83	29647.57
624.98	29603.10
625.13	29493.09
625.29	29860.55
625.44	29324.57
625.59	29528.20
625.74	29345.64
625.89	29694.38
626.04	29528.20
626.19	29006.26
626.34	29331.59
626.49	28933.70
626.65	29219.25
626.80	29490.75
626.95	29476.71
627.10	29734.17
627.25	28936.04
627.40	29483.73
627.55	29418.19
627.70	29298.83
627.85	28947.75
628.00	29546.92
628.15	28737.10
628.30	29092.86
628.45	29085.84
628.60	28982.85
628.76	28919.66
628.91	28954.77
629.06	28940.72
629.21	29064.77
629.36	29034.35
629.51	28606.03
629.66	28833.06
629.81	28746.46
629.96	29032.00
630.11	28999.24
630.26	28730.08
630.41	28833.06
630.56	28655.18
630.71	29083.50
630.86	29029.66
631.01	28896.25
631.16	29006.26
631.31	28783.91
631.46	28760.50
631.61	28947.75
631.76	28847.10
631.91	29048.39
632.06	28758.16
632.21	28512.41
632.36	28584.96
632.51	28114.52
632.66	28840.08
632.81	28753.48
632.96	28594.32
633.10	28245.58
633.25	29062.43
633.40	28669.22
633.55	28589.64
633.70	28313.46
633.85	28524.11
634.00	28449.21
634.15	28100.47
634.30	28266.65
634.45	28524.11
634.60	28334.53
634.75	28173.03
634.90	28484.32
635.05	28325.16
635.19	28453.89
635.34	28582.62
635.49	28432.83
635.64	28512.41
635.79	28411.76
635.94	28460.91
636.09	28500.70
636.24	28357.93
636.39	28180.05
636.53	28044.30
636.68	27861.74
636.83	28044.30
636.98	28041.96
637.13	28077.07
637.28	28390.70
637.43	28292.40
637.57	28020.89
637.72	28334.53
637.87	27910.89
638.02	27964.72
638.17	28088.77
638.32	27800.88
638.46	27906.21
638.61	27707.26
638.76	27913.23
638.91	27901.53
639.06	27667.47
639.20	27943.66
639.35	27861.74
639.50	28264.31
639.65	28187.07
639.80	28056.00
639.94	28065.36
640.09	27508.32
640.24	27711.94
640.39	27988.13
640.54	27473.21
640.68	27468.53
640.83	27510.66
640.98	27903.87
641.13	27351.50
641.27	27683.86
641.42	27438.10
641.57	27770.46
641.72	27915.57
641.86	27381.93
642.01	27278.94
642.16	27527.04
642.31	27321.07
642.45	27812.59
642.60	27112.77
642.75	27136.17
642.90	26981.70
643.04	26909.14
643.19	27330.44
643.34	27484.91
643.48	27365.54
643.63	27108.08
643.78	27487.25
643.93	27356.18
644.07	27742.37
644.22	27613.64
644.37	27285.97
644.51	27384.27
644.66	27243.84
644.81	27033.19
644.95	27030.85
645.10	27058.93
645.25	27295.33
645.39	26876.37
645.54	27262.56
645.69	27147.87
645.83	27239.15
645.98	27089.36
646.13	27068.30
646.27	26918.50
646.42	26991.06
646.57	27288.31
646.71	27138.51
646.86	27288.31
647.00	27124.47
647.15	26913.82
647.30	26761.69
647.44	26967.65
647.59	26937.23
647.74	26892.76
647.88	26843.60
648.03	27122.13
648.17	26906.80
648.32	26831.90
648.47	26735.94
648.61	26728.92
648.76	26883.39
648.90	26820.20
649.05	27044.89
649.20	26939.57
649.34	26522.95
649.49	26452.73
649.63	26422.31
649.78	26637.64
649.92	26597.85
650.07	26852.97
650.21	26700.83
650.36	26506.57
650.51	26508.91
650.65	26897.44
650.80	26300.60
650.94	26319.32
651.09	26508.91
651.23	26558.06
651.38	26302.94
651.52	26700.83
651.67	26272.51
651.81	26403.58
651.96	26469.12
652.10	26513.59
652.25	26324.01
652.39	26354.43
652.54	26536.99
652.68	26352.09
652.83	26625.93
652.97	26551.04
653.12	26295.92
653.26	26333.37
653.41	26588.49
653.55	26239.75
653.70	26153.15
653.84	25902.71
653.99	26164.85
654.13	26185.91
654.27	26211.66
654.42	25905.05
654.56	26155.49
654.71	26377.84
654.85	25762.28
655.00	26246.77
655.14	25900.37
655.29	26302.94
655.43	26066.55
655.57	26057.18
655.72	25914.41
655.86	26127.40
656.01	25642.91
656.15	26066.55
656.30	25366.73
656.44	25731.85
656.58	26192.94
656.73	25855.90
656.87	25954.20
657.01	26061.87
657.16	26029.10
657.30	26129.74
657.45	26279.54
657.59	25914.41
657.73	25603.12
657.88	25610.14
658.02	25502.48
658.16	25406.52
658.31	25366.73
658.45	25275.45
658.60	25390.13
658.74	25167.78
658.88	25626.53
659.03	25563.33
659.17	25469.71
659.31	25303.53
659.46	25336.30
659.60	25486.09
659.74	25432.26
659.89	25387.79
660.03	25090.54
660.17	25809.09
660.32	25493.12
660.46	25245.02
660.60	25151.40
660.74	25261.40
660.89	24987.56
661.03	24645.84
661.17	25266.08
661.32	25450.99
661.46	25336.30
661.60	24868.19
661.74	24720.74
661.89	25036.71
662.03	25207.57
662.17	25062.46
662.31	24907.98
662.46	24861.17
662.60	24842.45
662.74	24910.32
662.88	24680.95
663.03	24606.05
663.17	24423.49
663.31	24201.14
663.45	24315.83
663.60	24552.22
663.74	24357.96
663.88	24442.21
664.02	24596.69
664.17	24767.55
664.31	24566.26
664.45	24320.51
664.59	24559.24
664.73	24327.53
664.88	24465.62
665.02	23833.68
665.16	24105.18
665.30	23957.72
665.44	24095.82
665.59	23997.51
665.73	24189.44
665.87	23864.10
666.01	23927.30
666.15	24210.50
666.29	23859.42
666.44	23751.76
666.58	23924.96
666.72	23939.00
666.86	23702.61
667.00	24313.48
667.14	23569.19
667.28	23630.05
667.43	23756.44
667.57	23826.65
667.71	23508.34
667.85	23737.71
667.99	23667.50
668.13	23424.08
668.27	23456.85
668.41	23545.79
668.56	23201.73
668.70	23606.64
668.84	23667.50
668.98	23002.78
669.12	23452.17
669.26	23419.40
669.40	23323.44
669.54	23180.67
669.68	23314.08
669.82	23035.55
669.96	22946.61
670.10	22611.92
670.25	22991.08
670.39	22834.27
670.53	22562.76
670.67	22927.89
670.81	23009.81
670.95	22874.06
671.09	22913.84
671.23	22963.00
671.37	23002.78
671.51	22974.70
671.65	22963.00
671.79	22525.32
671.93	22595.53
672.07	22338.07
672.21	22522.98
672.35	22204.66
672.49	22249.13
672.63	22078.27
672.77	22115.72
672.91	22029.12
673.05	22221.05
673.19	22249.13
673.33	22141.47
673.47	21991.67
673.61	22197.64
673.75	22174.24
673.89	22291.26
674.03	22127.42
674.17	21933.16
674.31	21804.43
674.45	21905.07
674.59	21619.53
674.73	21675.70
674.87	21811.45
675.01	21469.73
675.15	21682.72
675.29	21561.02
675.43	21387.82
675.56	21778.68
675.70	21532.93
675.84	21308.24
675.98	20844.81
676.12	21593.78
676.26	21591.44
676.40	21359.73
676.54	21184.19
676.68	21151.42
676.82	20624.80
676.96	21018.01
677.10	21179.51
677.23	20622.46
677.37	20699.70
677.51	20547.56
677.65	20353.30
677.79	20709.06
677.93	20554.58
678.07	20304.15
678.21	20238.61
678.34	20425.86
678.48	20161.37
678.62	20037.33
678.76	19978.81
678.90	20189.46
679.04	19985.83
679.18	20006.90
679.31	20093.50
679.45	19449.85
679.59	19721.35
679.73	19700.29
679.87	19501.34
680.00	19658.16
680.14	19398.36
680.28	19386.66
680.42	19627.73
680.56	19477.94
680.70	19730.72
680.83	19480.28
680.97	19433.47
681.11	19262.61
681.25	19229.84
681.39	19183.03
681.52	19164.31
681.66	19239.20
681.80	18937.27
681.94	18951.32
682.07	18927.91
682.21	18532.36
682.35	18778.12
682.49	18728.97
682.62	18443.42
682.76	18511.30
682.90	18380.23
683.04	18317.03
683.17	18434.06
683.31	18445.76
683.45	18319.37
683.59	18462.15
683.72	18228.09
683.86	18106.38
684.00	18499.59
684.13	17759.98
684.27	18045.53
684.41	17825.52
684.55	17626.57
684.68	17771.69
684.82	17832.54
684.96	17783.39
685.09	17397.20
685.23	17710.83
685.37	17528.27
685.50	17532.95
685.64	17357.41
685.78	17561.04
685.91	17539.97
686.05	17362.09
686.19	17261.45
686.32	17703.81
686.46	17137.40
686.60	17200.60
686.73	16954.84
686.87	16823.77
687.01	16889.31
687.14	16531.20
687.28	16512.48
687.42	16788.66
687.55	16489.07
687.69	16496.10
687.82	16561.63
687.96	16475.03
688.10	16334.60
688.23	16823.77
688.37	16444.60
688.50	16528.86
688.64	16149.70
688.78	16322.90
688.91	15978.84
689.05	15960.11
689.18	16187.14
689.32	15667.55
689.46	15641.80
689.59	15885.22
689.73	15793.94
689.86	15630.10
690.00	15487.32
690.13	15660.52
690.27	15597.33
690.41	15749.46
690.54	15407.75
690.68	15735.42
690.81	15566.90
690.95	15641.80
691.08	15468.60
691.22	15262.63
691.35	15176.03
691.49	15435.83
691.62	15218.16
691.76	15005.17
691.89	15140.93
692.03	14750.06
692.16	14899.85
692.30	14721.97
692.43	14941.98
692.57	14572.18
692.70	14609.62
692.84	14525.36
692.97	14429.40
693.11	14244.50
693.24	14204.71
693.38	14614.30
693.51	14494.94
693.65	14312.38
693.78	14288.97
693.92	14319.40
694.05	14242.16
694.19	14031.51
694.32	14078.32
694.45	14019.81
694.59	13790.44
694.72	13715.54
694.86	13755.33
694.99	13467.44
695.13	13818.52
695.26	13565.74
695.39	13455.74
695.53	13589.15
695.66	13399.57
695.80	13460.42
695.93	13584.47
696.07	13525.96
696.20	13348.08
696.33	13139.77
696.47	13207.64
696.60	13071.89
696.73	13153.81
696.87	13198.28
697.00	13151.47
697.14	12851.88
697.27	12592.08
697.40	12692.73
697.54	12634.21
697.67	12493.78
697.80	12556.97
697.94	12432.93
698.07	12358.03
698.21	12446.97
698.34	12463.35
698.47	12648.26
698.61	12299.52
698.74	12400.16
698.87	12308.88
699.01	12351.01
699.14	12095.89
699.27	12004.61
699.40	11948.43
699.54	11894.60
699.67	11988.22
699.80	12049.08
699.94	11929.71
700.07	11798.64
700.20	11707.36
700.34	11513.10
700.47	11492.03
700.60	11618.42
700.73	11667.57
700.87	11421.81
701.00	11679.27
701.13	11372.66
701.26	11569.27
701.40	11592.67
701.53	11377.34
701.66	11229.89
701.79	11318.83
701.93	11363.30
702.06	11047.33
702.19	11154.99
702.32	11028.60
702.46	10712.63
702.59	10869.45
702.72	10785.19
702.85	10679.86
702.99	10822.64
703.12	10532.41
703.25	10705.61
703.38	10434.11
703.51	10656.46
703.65	10466.88
703.78	10438.79
703.91	10485.60
704.04	10401.34
704.17	10445.81
704.31	10420.06
704.44	10303.04
704.57	10286.65
704.70	10078.35
704.83	10087.71
704.96	10125.16
705.10	9881.74
705.23	10019.83
>>>>>End Processed Spectral Data<<<<<
