SpectraSuite Data File
++++++++++++++++++++++++++++++++++++
Date: Fri Oct 18 13:58:43 GMT-05:00 2013
User: bianchi
Dark Spectrum Present: No
Reference Spectrum Present: No
Number of Sampled Component Spectra: 1
Spectrometers: USB2+H05261
Integration Time (usec): 50000 (USB2+H05261)
Spectra Averaged: 1 (USB2+H05261)
Boxcar Smoothing: 0 (USB2+H05261)
Correct for Electrical Dark: No (USB2+H05261)
Strobe/Lamp Enabled: No (USB2+H05261)
Correct for Detector Non-linearity: No (USB2+H05261)
Correct for Stray Light: No (USB2+H05261)
Number of Pixels in Processed Spectrum: 2048
>>>>>Begin Processed Spectral Data<<<<<
365.73	0.00
365.92	0.00
366.12	0.00
366.32	0.00
366.52	0.00
366.72	0.00
366.91	0.00
367.11	0.00
367.31	0.00
367.51	0.00
367.70	0.00
367.90	0.00
368.10	0.00
368.30	0.00
368.49	0.00
368.69	0.00
368.89	0.00
369.09	0.00
369.28	0.00
369.48	0.00
369.68	0.00
369.87	0.00
370.07	0.00
370.27	0.00
370.47	0.00
370.66	72.56
370.86	100.64
371.06	138.09
371.25	161.50
371.45	133.41
371.65	191.92
371.84	163.84
372.04	128.73
372.24	189.58
372.44	133.41
372.63	196.60
372.83	255.12
373.03	248.10
373.22	119.37
373.42	229.37
373.62	252.78
373.81	264.48
374.01	320.65
374.21	346.40
374.40	184.90
374.60	243.42
374.79	264.48
374.99	212.99
375.19	131.07
375.38	217.67
375.58	198.95
375.78	290.23
375.97	177.88
376.17	322.99
376.37	273.84
376.56	227.03
376.76	210.65
376.95	166.18
377.15	266.82
377.35	308.95
377.54	276.18
377.74	205.97
377.93	325.33
378.13	353.42
378.33	332.36
378.52	428.32
378.72	266.82
378.91	351.08
379.11	285.55
379.31	304.27
379.50	273.84
379.70	341.72
379.89	308.95
380.09	297.25
380.28	245.76
380.48	276.18
380.68	344.06
380.87	250.44
381.07	276.18
381.26	327.68
381.46	355.76
381.65	330.02
381.85	348.74
382.04	334.70
382.24	273.84
382.43	376.83
382.63	376.83
382.83	346.40
383.02	407.25
383.22	379.17
383.41	416.62
383.61	353.42
383.80	397.89
384.00	299.59
384.19	294.91
384.39	334.70
384.58	416.62
384.78	407.25
384.97	411.93
385.17	365.12
385.36	402.57
385.56	409.59
385.75	411.93
385.95	393.21
386.14	407.25
386.34	425.98
386.53	360.44
386.72	337.04
386.92	433.00
387.11	458.74
387.31	358.10
387.50	414.27
387.70	390.87
387.89	367.46
388.09	486.83
388.28	470.45
388.48	430.66
388.67	468.11
388.86	369.80
389.06	482.15
389.25	435.34
389.45	437.68
389.64	465.77
389.84	510.24
390.03	617.90
390.22	493.85
390.42	461.09
390.61	447.04
390.81	470.45
391.00	479.81
391.19	458.74
391.39	411.93
391.58	484.49
391.78	442.36
391.97	416.62
392.16	496.19
392.36	592.16
392.55	517.26
392.75	606.20
392.94	433.00
393.13	517.26
393.33	526.62
393.52	524.28
393.71	585.13
393.91	620.24
394.10	608.54
394.29	655.35
394.49	638.97
394.68	596.84
394.88	526.62
395.07	550.03
395.26	545.34
395.46	655.35
395.65	568.75
395.84	587.47
396.04	713.86
396.23	638.97
396.42	557.05
396.62	699.82
396.81	603.86
397.00	627.26
397.19	730.25
397.39	610.88
397.58	653.01
397.77	744.29
397.97	725.57
398.16	671.73
398.35	641.31
398.55	662.37
398.74	676.41
398.93	699.82
399.12	641.31
399.32	711.52
399.51	697.48
399.70	734.93
399.90	681.10
400.09	737.27
400.28	744.29
400.47	774.72
400.67	802.80
400.86	732.59
401.05	802.80
401.24	800.46
401.44	851.96
401.63	833.23
401.82	791.10
402.01	788.76
402.21	772.38
402.40	739.61
402.59	877.70
402.78	919.83
402.97	821.53
403.17	809.83
403.36	844.93
403.55	877.70
403.74	861.32
403.93	828.55
404.13	917.49
404.32	936.21
404.51	851.96
404.70	866.00
404.89	842.59
405.09	908.13
405.28	945.58
405.47	933.87
405.66	908.13
405.85	971.32
406.05	980.68
406.24	1020.47
406.43	966.64
406.62	1100.05
406.81	1022.81
407.00	954.94
407.20	1053.24
407.39	1032.18
407.58	954.94
407.77	1027.50
407.96	1062.60
408.15	954.94
408.34	1146.86
408.54	1022.81
408.73	1128.14
408.92	1116.44
409.11	1132.82
409.30	1151.54
409.49	1097.71
409.68	1205.38
409.87	1102.39
410.07	1203.04
410.26	1181.97
410.45	1156.22
410.64	1160.91
410.83	1163.25
411.02	1217.08
411.21	1212.40
411.40	1174.95
411.59	1207.72
411.78	1299.00
411.98	1322.40
412.17	1294.32
412.36	1320.06
412.55	1303.68
412.74	1284.95
412.93	1291.98
413.12	1235.80
413.31	1331.76
413.50	1362.19
413.69	1380.92
413.88	1385.60
414.07	1284.95
414.26	1397.30
414.45	1444.11
414.64	1495.60
414.83	1500.28
415.02	1430.07
415.22	1481.56
415.41	1577.52
415.60	1572.84
415.79	1565.82
415.98	1565.82
416.17	1633.69
416.36	1537.73
416.55	1614.97
416.74	1556.46
416.93	1647.74
417.12	1713.27
417.31	1732.00
417.50	1694.55
417.69	1673.48
417.88	1671.14
418.07	1591.56
418.26	1650.08
418.45	1715.61
418.64	1830.30
418.83	1837.32
419.02	1746.04
419.21	1746.04
419.39	1760.08
419.58	1753.06
419.77	1774.13
419.96	1872.43
420.15	1830.30
420.34	1806.89
420.53	1788.17
420.72	1799.87
420.91	1837.32
421.10	1893.49
421.29	1872.43
421.48	1944.99
421.67	1996.48
421.86	1905.20
422.05	1886.47
422.24	1928.60
422.43	1877.11
422.61	1902.86
422.80	2024.56
422.99	2026.90
423.18	1923.92
423.37	2019.88
423.56	1930.94
423.75	1975.41
423.94	1921.58
424.13	1844.34
424.32	1919.24
424.50	2008.18
424.69	2071.37
424.88	2085.42
425.07	1963.71
425.26	1989.46
425.45	2005.84
425.64	2052.65
425.83	2040.95
426.01	2054.99
426.20	2080.74
426.39	2066.69
426.58	2050.31
426.77	2078.40
426.96	2120.53
427.15	2057.33
427.33	2188.40
427.52	2099.46
427.71	2228.19
427.90	2167.34
428.09	2162.66
428.28	2120.53
428.46	2214.15
428.65	2190.74
428.84	2216.49
429.03	2202.44
429.22	2099.46
429.40	2200.10
429.59	2165.00
429.78	2207.13
429.97	2092.44
430.16	2242.23
430.34	2291.38
430.53	2314.79
430.72	2319.47
430.91	2169.68
431.10	2335.85
431.28	2373.30
431.47	2441.18
431.66	2401.39
431.85	2204.78
432.03	2455.22
432.22	2326.49
432.41	2291.38
432.60	2366.28
432.79	2380.32
432.97	2558.21
433.16	2415.43
433.35	2422.45
433.54	2546.50
433.72	2410.75
433.91	2473.95
434.10	2417.77
434.28	2518.42
434.47	2443.52
434.66	2537.14
434.85	2544.16
435.03	2565.23
435.22	2469.27
435.41	2799.28
435.59	2705.66
435.78	2642.46
435.97	2640.12
436.16	2595.65
436.34	2546.50
436.53	2574.59
436.72	2593.31
436.90	2619.06
437.09	2689.28
437.28	2612.04
437.46	2836.73
437.65	2656.51
437.84	2717.36
438.02	2780.56
438.21	2712.68
438.40	2794.60
438.58	2827.37
438.77	2862.48
438.96	2832.05
439.14	2876.52
439.33	2946.73
439.52	2778.22
439.70	3096.53
439.89	3019.29
440.08	3087.17
440.26	2963.12
440.45	3012.27
440.63	3070.78
440.82	3117.59
441.01	3059.08
441.19	3087.17
441.38	3070.78
441.57	3180.79
441.75	3173.77
441.94	3208.87
442.12	3276.75
442.31	3361.01
442.50	3335.26
442.68	3309.52
442.87	3309.52
443.05	3344.63
443.24	3311.86
443.43	3358.67
443.61	3346.97
443.80	3571.66
443.98	3232.28
444.17	3260.37
444.35	3363.35
444.54	3391.44
444.73	3433.57
444.91	3361.01
445.10	3438.25
445.28	3379.73
445.47	3246.32
445.65	3424.20
445.84	3447.61
446.02	3569.32
446.21	3487.40
446.39	3456.97
446.58	3485.06
446.77	3412.50
446.95	3358.67
447.14	3440.59
447.32	3569.32
447.51	3417.18
447.69	3396.12
447.88	3522.51
448.06	3463.99
448.25	3538.89
448.43	3480.38
448.62	3501.44
448.80	3548.25
448.99	3463.99
449.17	3552.93
449.36	3599.74
449.54	3674.64
449.73	3777.62
449.91	3517.83
450.10	3613.79
450.28	3765.92
450.46	3791.67
450.65	3719.11
450.83	3751.88
451.02	3669.96
451.20	3808.05
451.39	3836.14
451.57	3754.22
451.76	3693.37
451.94	3777.62
452.13	3833.80
452.31	3721.45
452.49	3911.04
452.68	3742.52
452.86	3765.92
453.05	3861.88
453.23	3847.84
453.42	3861.88
453.60	3901.67
453.78	3899.33
453.97	3817.41
454.15	3836.14
454.34	3925.08
454.52	3889.97
454.70	4025.72
454.89	4147.43
455.07	4002.32
455.26	4053.81
455.44	4023.38
455.62	4079.55
455.81	3908.69
455.99	3988.27
456.17	4070.19
456.36	4142.75
456.54	4201.26
456.73	4229.35
456.91	4224.67
457.09	4351.06
457.28	4285.52
457.46	4250.41
457.64	4468.08
457.83	4301.90
458.01	4285.52
458.19	4297.22
458.38	4285.52
458.56	4423.61
458.74	4348.72
458.93	4388.50
459.11	4447.02
459.29	4355.74
459.48	4442.34
459.66	4517.23
459.84	4461.06
460.03	4585.11
460.21	4491.49
460.39	4533.62
460.57	4479.79
460.76	4475.10
460.94	4723.20
461.12	4454.04
461.31	4603.83
461.49	4610.86
461.67	4517.23
461.85	4594.47
462.04	4493.83
462.22	4685.75
462.40	4732.56
462.59	4690.43
462.77	4793.42
462.95	4608.51
463.13	4660.01
463.32	4753.63
463.50	4739.58
463.68	4786.40
463.86	4699.80
464.05	4800.44
464.23	4898.74
464.41	4882.36
464.59	4767.67
464.78	5095.35
464.96	5093.01
465.14	5006.41
465.32	5048.54
465.50	5025.13
465.69	4652.98
465.87	4835.55
466.05	5008.75
466.23	4868.31
466.41	4978.32
466.60	5123.43
466.78	4983.00
466.96	5043.85
467.14	5041.51
467.32	5041.51
467.51	5130.45
467.69	5008.75
467.87	5233.44
468.05	5308.34
468.23	4985.34
468.41	4992.36
468.60	5043.85
468.78	5303.65
468.96	5116.41
469.14	5268.55
469.32	5226.42
469.50	5029.81
469.69	5203.01
469.87	5270.89
470.05	5177.26
470.23	5289.61
470.41	5334.08
470.59	5427.70
470.77	5348.12
470.95	5376.21
471.14	5528.35
471.32	5427.70
471.50	5418.34
471.68	5528.35
471.86	5561.11
472.04	5561.11
472.22	5795.17
472.40	5528.35
472.58	5724.95
472.77	5844.32
472.95	5675.80
473.13	5956.66
473.31	5743.67
473.49	5788.14
473.67	5687.50
473.85	5657.07
474.03	5914.53
474.21	5891.13
474.39	6017.52
474.57	6059.65
474.75	6090.07
474.93	6146.25
475.12	6054.97
475.30	6080.71
475.48	6022.20
475.66	6291.36
475.84	5921.56
476.02	6225.82
476.20	6303.06
476.38	6401.37
476.56	6434.13
476.74	6462.22
476.92	6377.96
477.10	6478.60
477.28	6452.86
477.46	6579.25
477.64	6707.98
477.82	6925.65
478.00	6946.71
478.18	6782.87
478.36	6864.79
478.54	6920.96
478.72	7124.59
478.90	7063.74
479.08	7148.00
479.26	7201.83
479.44	7131.61
479.62	7157.36
479.80	7241.62
479.98	7386.73
480.16	7386.73
480.34	7332.90
480.52	7714.41
480.70	7508.44
480.88	7447.58
481.06	7688.66
481.24	7819.73
481.41	7676.96
481.59	7845.48
481.77	7978.89
481.95	8042.08
482.13	8088.89
482.31	7964.84
482.49	8292.52
482.67	8159.11
482.85	8222.30
483.03	8479.76
483.21	8344.01
483.39	8608.49
483.57	8437.63
483.74	8531.25
483.92	8737.22
484.10	8585.08
484.28	9018.08
484.46	8973.61
484.64	9125.75
484.82	8840.20
485.00	9029.79
485.18	9212.35
485.35	9387.89
485.53	9221.71
485.71	9254.48
485.89	9399.59
486.07	9380.87
486.25	9423.00
486.43	9563.43
486.61	9699.18
486.78	9853.66
486.96	9696.84
487.14	9839.61
487.32	9865.36
487.50	10150.90
487.68	10015.15
487.85	10232.82
488.03	10452.83
488.21	10394.32
488.39	10335.81
488.57	10546.45
488.75	10677.52
488.92	10670.50
489.10	10834.34
489.28	10860.09
489.46	11082.44
489.64	11070.73
489.81	11234.57
489.99	11293.08
490.17	11311.81
490.35	11239.25
490.53	11545.86
490.70	11328.19
490.88	11339.90
491.06	11599.70
491.24	11644.17
491.41	11885.24
491.59	11946.09
491.77	11866.52
491.95	12182.49
492.13	12098.23
492.30	12388.46
492.48	12107.59
492.66	12439.95
492.84	12329.94
493.01	12428.24
493.19	12301.86
493.37	12692.73
493.54	12896.35
493.72	12615.49
493.90	13013.38
494.08	12762.94
494.25	13132.75
494.43	12912.74
494.61	13181.90
494.79	12882.31
494.96	13317.65
495.14	13359.78
495.32	13497.87
495.49	13296.58
495.67	13460.42
495.85	13659.37
496.02	13825.54
496.20	13956.61
496.38	13891.08
496.55	13640.64
496.73	14134.50
496.91	13884.06
497.09	14235.14
497.26	14113.43
497.44	14111.09
497.62	14520.68
497.79	14431.74
497.97	14314.72
498.14	14712.61
498.32	14810.91
498.50	15056.67
498.67	14801.55
498.85	14888.15
499.03	14759.42
499.20	14724.31
499.38	15126.88
499.56	15033.26
499.73	14883.47
499.91	15328.17
500.08	15300.08
500.26	15241.57
500.44	15204.12
500.61	15410.09
500.79	15311.78
500.97	15477.96
501.14	15655.84
501.32	15534.14
501.49	15674.57
501.67	15735.42
501.84	15803.30
502.02	15899.26
502.20	15943.73
502.37	15768.19
502.55	16084.16
502.72	16035.01
502.90	15800.96
503.07	16428.22
503.25	16098.20
503.43	16112.25
503.60	16556.95
503.78	16559.29
503.95	16229.27
504.13	16505.46
504.30	16779.30
504.48	16407.16
504.65	16400.13
504.83	16989.95
505.01	16863.56
505.18	16725.47
505.36	17046.12
505.53	17006.33
505.71	16903.35
505.88	16931.44
506.06	16851.86
506.23	17212.30
506.41	17015.69
506.58	17294.22
506.76	17266.13
506.93	17284.86
507.11	17404.22
507.28	17596.15
507.46	17284.86
507.63	17436.99
507.81	17734.24
507.98	17495.50
508.16	17666.36
508.33	17387.84
508.50	17996.38
508.68	17640.62
508.85	17813.82
509.03	17947.23
509.20	18258.52
509.38	18122.77
509.55	17841.90
509.73	18277.24
509.90	18218.73
510.08	18087.66
510.25	18310.01
510.42	18324.05
510.60	18649.39
510.77	18831.95
510.95	18698.54
511.12	18429.38
511.30	18501.93
511.47	18609.60
511.64	18420.02
511.82	18775.78
511.99	18806.20
512.17	18785.14
512.34	18902.17
512.51	19082.39
512.69	19295.38
512.86	18888.12
513.04	19197.07
513.21	19166.65
513.38	19255.59
513.56	19098.77
513.73	19580.92
513.90	19445.17
514.08	18967.70
514.25	19449.85
514.43	19353.89
514.60	19576.24
514.77	19754.12
514.95	19843.06
515.12	19697.95
515.29	19576.24
515.47	19903.92
515.64	20238.61
515.81	19566.88
515.99	19772.85
516.16	20308.83
516.33	19824.34
516.51	20154.35
516.68	20060.73
516.85	19903.92
517.03	20222.23
517.20	20205.84
517.37	19978.81
517.54	20545.22
517.72	20613.10
517.89	20027.96
518.06	20320.53
518.24	20545.22
518.41	20517.14
518.58	20561.61
518.75	20702.04
518.93	20662.25
519.10	20865.88
519.27	20837.79
519.45	20819.07
519.62	20798.00
519.79	20807.36
519.96	20788.64
520.14	21254.40
520.31	20961.84
520.48	21181.85
520.65	21111.63
520.83	21195.89
521.00	21261.43
521.17	21238.02
521.34	21535.27
521.52	21579.74
521.69	21488.46
521.86	21610.17
522.03	21546.97
522.20	21633.57
522.38	21694.43
522.55	21635.91
522.72	21869.97
522.89	21820.81
523.07	22061.89
523.24	21731.87
523.41	22057.21
523.58	21799.75
523.75	21902.73
523.92	22101.68
524.10	21792.73
524.27	22143.81
524.44	22132.11
524.61	22576.81
524.78	22263.18
524.96	22092.32
525.13	22352.12
525.30	22188.28
525.47	22497.23
525.64	22740.64
525.81	22403.61
525.98	22635.32
526.16	22668.09
526.33	22560.42
526.50	22712.56
526.67	22445.74
526.84	22717.24
527.01	22761.71
527.18	22913.84
527.36	22918.53
527.53	23051.94
527.70	23470.89
527.87	23054.28
528.04	23227.48
528.21	23358.55
528.38	23047.26
528.55	23084.70
528.72	23140.88
528.89	23012.15
529.07	23138.54
529.24	23243.86
529.41	23276.63
529.58	23267.27
529.75	23496.64
529.92	23454.51
530.09	23405.36
530.26	23447.49
530.43	23405.36
530.60	23379.61
530.77	23749.42
530.94	23693.24
531.11	23136.20
531.28	23498.98
531.46	23405.36
531.63	23735.37
531.80	23847.72
531.97	23690.90
532.14	23637.07
532.31	23983.47
532.48	23690.90
532.65	24060.71
532.82	23833.68
532.99	23819.63
533.16	23882.83
533.33	24147.31
533.50	24442.21
533.67	24521.79
533.84	23924.96
534.01	24119.22
534.18	23990.49
534.35	24575.62
534.52	24301.78
534.69	24463.28
534.86	24514.77
535.03	24203.48
535.20	24507.75
535.37	24652.86
535.54	24781.59
535.71	24755.85
535.88	24301.78
536.05	24666.91
536.22	24584.99
536.38	24783.93
536.55	24709.04
536.72	25223.95
536.89	24491.37
537.06	24730.10
537.23	24884.58
537.40	24720.74
537.57	25095.22
537.74	24957.13
537.91	25340.98
538.08	25078.84
538.25	24748.82
538.42	24847.13
538.59	25076.50
538.75	25013.31
538.92	25125.65
539.09	24802.66
539.26	25205.23
539.43	25160.76
539.60	25446.30
539.77	25025.01
539.94	25378.43
540.11	25441.62
540.28	25458.01
540.44	25376.09
540.61	25472.05
540.78	25184.16
540.95	25586.74
541.12	25352.68
541.29	25701.42
541.46	25558.65
541.62	25834.83
541.79	25668.66
541.96	25116.29
542.13	25614.82
542.30	25759.94
542.47	25575.03
542.63	25736.53
542.80	25741.21
542.97	26352.09
543.14	25909.73
543.31	25968.24
543.48	25855.90
543.64	26246.77
543.81	26352.09
543.98	26466.78
544.15	26532.31
544.32	26267.83
544.48	26228.04
544.65	26506.57
544.82	26143.78
544.99	25905.05
545.16	26473.80
545.32	26267.83
545.49	26747.64
545.66	26616.57
545.83	26445.71
546.00	26871.69
546.16	26265.49
546.33	26223.36
546.50	26485.50
546.67	26431.67
546.83	26113.36
547.00	26665.72
547.17	26740.62
547.34	26611.89
547.50	26806.16
547.67	26789.77
547.84	26691.47
548.00	26679.77
548.17	26712.53
548.34	27161.92
548.51	26916.16
548.67	27063.61
548.84	27080.00
549.01	26785.09
549.18	26967.65
549.34	26946.59
549.51	27035.53
549.68	27531.72
549.84	26988.72
550.01	27473.21
550.18	27374.91
550.34	27140.85
550.51	27360.86
550.68	27452.14
550.84	27047.23
551.01	27400.65
551.18	27089.36
551.34	27211.07
551.51	27082.34
551.68	27337.46
551.84	27349.16
552.01	26899.78
552.18	27835.99
552.34	27496.61
552.51	27583.21
552.68	27255.54
552.84	27379.59
553.01	27623.00
553.18	27395.97
553.34	27552.79
553.51	27552.79
553.67	27960.04
553.84	27861.74
554.01	27711.94
554.17	27651.09
554.34	27606.62
554.51	27704.92
554.67	27693.22
554.84	27913.23
555.00	28428.15
555.17	27929.61
555.33	28013.87
555.50	27854.72
555.67	27873.44
555.83	28233.88
556.00	27819.61
556.16	28247.93
556.33	27927.27
556.50	27999.83
556.66	28093.45
556.83	27777.48
556.99	28339.21
557.16	28306.44
557.32	28463.25
557.49	28336.87
557.65	28276.01
557.82	27943.66
557.98	28432.83
558.15	28088.77
558.32	28187.07
558.48	28519.43
558.65	28505.38
558.81	28645.82
558.98	28135.58
559.14	28533.47
559.31	28386.02
559.47	28212.82
559.64	28364.95
559.80	28283.03
559.97	28739.44
560.13	28259.63
560.30	28287.71
560.46	28671.56
560.63	28601.35
560.79	28187.07
560.96	28648.16
561.12	28912.64
561.29	28278.35
561.45	28512.41
561.61	28329.84
561.78	29015.62
561.94	28978.17
562.11	28540.49
562.27	28751.14
562.44	28442.19
562.60	28460.91
562.77	28491.34
562.93	28521.77
563.10	28439.85
563.26	28872.85
563.42	29312.87
563.59	28678.58
563.75	28804.97
563.92	29123.29
564.08	29020.30
564.24	28622.41
564.41	28896.25
564.57	28797.95
564.74	28741.78
564.90	28783.91
565.07	29546.92
565.23	29083.50
565.39	28774.55
565.56	29017.96
565.72	28959.45
565.88	28716.03
566.05	28922.00
566.21	28961.79
566.38	29024.98
566.54	28985.19
566.70	28994.56
566.87	29020.30
567.03	29317.55
567.19	29223.93
567.36	29181.80
567.52	29259.04
567.68	29041.37
567.85	29057.75
568.01	29144.35
568.17	29247.33
568.34	29392.45
568.50	29207.55
568.66	28680.92
568.83	29340.96
568.99	29282.44
569.15	28987.53
569.32	28767.52
569.48	29233.29
569.64	29322.23
569.81	29518.84
569.97	29228.61
570.13	29425.22
570.30	29200.52
570.46	29125.63
570.62	29160.73
570.78	29345.64
570.95	28851.78
571.11	29254.36
571.27	28769.86
571.43	28968.81
571.60	29394.79
571.76	29647.57
571.92	29324.57
572.09	29343.30
572.25	29429.90
572.41	29266.06
572.57	29504.79
572.74	29436.92
572.90	29336.27
573.06	29401.81
573.22	29177.12
573.38	29453.30
573.55	29315.21
573.71	29282.44
573.87	29773.95
574.03	29486.07
574.20	29783.32
574.36	29532.88
574.52	29565.65
574.68	29235.63
574.84	29703.74
575.01	29355.00
575.17	29469.69
575.33	29324.57
575.49	29139.67
575.65	29631.18
575.82	29472.03
575.98	29338.62
576.14	30000.99
576.30	29397.13
576.46	29596.07
576.62	29528.20
576.79	29514.16
576.95	29806.72
577.11	29614.80
577.27	29502.45
577.43	29369.04
577.59	29640.54
577.75	29406.49
577.92	29216.91
578.08	29275.42
578.24	29582.03
578.40	29357.34
578.56	30221.00
578.72	29619.48
578.88	29446.28
579.04	29659.27
579.21	29589.05
579.37	29565.65
579.53	29825.45
579.69	29500.11
579.85	29521.18
580.01	29734.17
580.17	29373.72
580.33	29570.33
580.49	29338.62
580.65	29776.30
580.82	29177.12
580.98	29748.21
581.14	29259.04
581.30	29457.98
581.46	29483.73
581.62	29542.24
581.78	29331.59
581.94	29289.46
582.10	29776.30
582.26	29385.43
582.42	29303.51
582.58	29607.78
582.74	29816.08
582.90	29729.48
583.06	30005.67
583.22	29446.28
583.38	29511.81
583.54	29701.40
583.70	29514.16
583.86	29729.48
584.02	29474.37
584.18	29715.44
584.34	29769.27
584.50	29301.17
584.66	29570.33
584.82	29394.79
584.98	29914.39
585.14	29727.14
585.30	29032.00
585.46	29741.19
585.62	29621.82
585.78	29780.98
585.94	29593.73
586.10	29507.13
586.26	29727.14
586.42	29839.49
586.58	29717.78
586.74	29776.30
586.90	29876.94
587.06	29450.96
587.22	29633.52
587.38	29333.93
587.54	29666.29
587.70	29895.66
587.86	30036.09
588.02	29666.29
588.18	30000.99
588.34	29977.58
588.49	29785.66
588.65	29947.15
588.81	29514.16
588.97	29474.37
589.13	29710.76
589.29	29336.27
589.45	29851.19
589.61	30228.02
589.77	30019.71
589.93	30038.44
590.08	29886.30
590.24	30221.00
590.40	29965.88
590.56	29926.09
590.72	29926.09
590.88	29514.16
591.04	29860.55
591.20	30064.18
591.35	30068.86
591.51	30246.74
591.67	29944.81
591.83	30155.46
591.99	30209.29
592.15	30218.66
592.31	30054.82
592.46	29699.06
592.62	29783.32
592.78	30115.67
592.94	30382.49
593.10	30101.63
593.26	30403.56
593.41	30153.12
593.57	29872.26
593.73	30347.39
593.89	30274.83
594.05	30394.20
594.20	30455.05
594.36	29862.90
594.52	29771.61
594.68	29909.71
594.84	29696.72
594.99	30288.87
595.15	30249.08
595.31	30218.66
595.47	30139.08
595.62	30260.79
595.78	30441.01
595.94	30057.16
596.10	29919.07
596.25	30281.85
596.41	30300.58
596.57	29996.31
596.73	30150.78
596.88	30160.14
597.04	30204.61
597.20	30338.02
597.36	30515.90
597.51	30221.00
597.67	30235.04
597.83	30274.83
597.99	30160.14
598.14	29621.82
598.30	30483.14
598.46	30244.40
598.61	30756.98
598.77	30094.61
598.93	30267.81
599.09	30120.35
599.24	30677.40
599.40	30567.40
599.56	30368.45
599.71	30522.93
599.87	29947.15
600.03	30529.95
600.18	30579.10
600.34	30455.05
600.50	29977.58
600.65	30270.15
600.81	30333.34
600.97	30513.56
601.12	30499.52
601.28	30532.29
601.44	30792.09
601.59	30822.51
601.75	29738.85
601.91	30328.66
602.06	30560.37
602.22	29930.77
602.37	30244.40
602.53	30110.99
602.69	30239.72
602.84	30047.80
603.00	30036.09
603.16	30258.45
603.31	30307.60
603.47	30174.19
603.62	30384.83
603.78	30354.41
603.94	30394.20
604.09	30363.77
604.25	30232.70
604.40	29972.90
604.56	30270.15
604.71	30471.43
604.87	29937.79
605.03	30270.15
605.18	29940.13
605.34	30132.06
605.49	29893.32
605.65	29940.13
605.80	29968.22
605.96	30043.12
606.12	30190.57
606.27	29785.66
606.43	30061.84
606.58	30136.74
606.74	30403.56
606.89	30155.46
607.05	30335.68
607.20	30258.45
607.36	30054.82
607.51	30141.42
607.67	29970.56
607.82	30345.05
607.98	30169.51
608.13	30118.01
608.29	30029.07
608.44	30012.69
608.60	30110.99
608.75	30506.54
608.91	30448.03
609.06	30162.48
609.22	30221.00
609.37	29776.30
609.53	30003.33
609.68	30377.81
609.84	29958.86
609.99	29851.19
610.15	30026.73
610.30	29956.52
610.46	30108.65
610.61	29975.24
610.76	30075.88
610.92	29844.17
611.07	29984.60
611.23	29535.22
611.38	29916.73
611.54	29762.25
611.69	30110.99
611.84	29823.11
612.00	29626.50
612.15	29542.24
612.31	30019.71
612.46	29596.07
612.62	29764.59
612.77	29635.86
612.92	29958.86
613.08	29731.83
613.23	29537.56
613.39	29472.03
613.54	29827.79
613.69	29453.30
613.85	29535.22
614.00	29553.94
614.15	29839.49
614.31	29366.70
614.46	29708.42
614.62	29647.57
614.77	29949.50
614.92	29790.34
615.08	29488.41
615.23	29930.77
615.38	29621.82
615.54	29282.44
615.69	29326.91
615.84	28985.19
616.00	29598.41
616.15	29184.14
616.30	29757.57
616.46	29516.50
616.61	29530.54
616.76	29226.27
616.92	29467.34
617.07	29261.38
617.22	29628.84
617.37	29078.82
617.53	29542.24
617.68	29144.35
617.83	29298.83
617.99	29102.22
618.14	29067.11
618.29	29120.95
618.45	29158.39
618.60	29441.60
618.75	28865.83
618.90	29425.22
619.06	29200.52
619.21	29216.91
619.36	29036.69
619.51	28903.28
619.67	28870.51
619.82	28882.21
619.97	29223.93
620.12	29106.90
620.28	28762.84
620.43	29259.04
620.58	29493.09
620.73	29359.68
620.89	28957.11
621.04	29481.39
621.19	29097.54
621.34	28985.19
621.49	28971.15
621.65	28819.02
621.80	29120.95
621.95	28940.72
622.10	28720.71
622.25	28678.58
622.41	28463.25
622.56	28957.11
622.71	29275.42
622.86	28699.65
623.01	28807.31
623.16	29113.92
623.32	28498.36
623.47	28739.44
623.62	28730.08
623.77	29127.97
623.92	28648.16
624.07	28617.73
624.23	28753.48
624.38	28865.83
624.53	28999.24
624.68	29085.84
624.83	28755.82
624.98	28744.12
625.13	28311.12
625.29	28898.59
625.44	28587.30
625.59	28093.45
625.74	28191.75
625.89	28240.90
626.04	28734.76
626.19	28498.36
626.34	28683.27
626.49	28474.96
626.65	28491.34
626.80	28346.23
626.95	28376.66
627.10	28444.53
627.25	28606.03
627.40	28386.02
627.55	28154.30
627.70	27920.25
627.85	27938.97
628.00	28217.50
628.15	28369.63
628.30	28247.93
628.45	27819.61
628.60	27885.14
628.76	28261.97
628.91	28048.98
629.06	28177.71
629.21	28210.48
629.36	28280.69
629.51	28013.87
629.66	28259.63
629.81	27957.70
629.96	27777.48
630.11	28156.64
630.26	28198.77
630.41	28037.28
630.56	27555.13
630.71	28079.41
630.86	27847.69
631.01	27683.86
631.16	27831.31
631.31	27728.33
631.46	27927.27
631.61	28353.25
631.76	27974.08
631.91	27651.09
632.06	27623.00
632.21	27627.68
632.36	27672.15
632.51	27407.67
632.66	27730.67
632.81	27342.14
632.96	27960.04
633.10	27721.30
633.25	27634.71
633.40	27875.78
633.55	27637.05
633.70	27618.32
633.85	27117.45
634.00	27573.85
634.15	27653.43
634.30	27550.45
634.45	27775.14
634.60	27152.55
634.75	27571.51
634.90	27428.74
635.05	27480.23
635.19	27850.03
635.34	27615.98
635.49	27440.44
635.64	27417.04
635.79	27449.80
635.94	27590.24
636.09	27143.19
636.24	27358.52
636.39	27154.90
636.53	27449.80
636.68	27314.05
636.83	27133.83
636.98	27725.99
637.13	26969.99
637.28	27402.99
637.43	27433.42
637.57	26857.65
637.72	27267.24
637.87	27241.50
638.02	26972.33
638.17	27159.58
638.32	26869.35
638.46	26986.38
638.61	26719.56
638.76	26817.86
638.91	27009.78
639.06	27087.02
639.20	27091.70
639.35	26937.23
639.50	26934.88
639.65	27587.89
639.80	27087.02
639.94	27129.15
640.09	26902.12
640.24	26618.91
640.39	26801.47
640.54	26389.54
640.68	26726.58
640.83	26843.60
640.98	26813.18
641.13	26553.38
641.27	26864.67
641.42	26738.28
641.57	26490.18
641.72	26679.77
641.86	26300.60
642.01	26546.36
642.16	26324.01
642.31	26726.58
642.45	26595.51
642.60	26192.94
642.75	26265.49
642.90	26405.92
643.04	26576.78
643.19	26436.35
643.34	26426.99
643.48	26230.38
643.63	26209.32
643.78	26398.90
643.93	26665.72
644.07	26375.50
644.22	26132.08
644.37	26522.95
644.51	26223.36
644.66	26263.15
644.81	26017.40
644.95	26436.35
645.10	26251.45
645.25	25947.18
645.39	26001.01
645.54	26295.92
645.69	26345.07
645.83	26125.06
645.98	26188.25
646.13	26431.67
646.27	26199.96
646.42	26047.82
646.57	26153.15
646.71	25848.88
646.86	26174.21
647.00	26239.75
647.15	25893.35
647.30	25689.72
647.44	26125.06
647.59	25923.77
647.74	26246.77
647.88	26094.63
648.03	25944.84
648.17	25942.50
648.32	25738.87
648.47	25993.99
648.61	26003.35
648.76	26167.19
648.90	25919.09
649.05	26132.08
649.20	25720.15
649.34	25961.22
649.49	25675.68
649.63	25762.28
649.78	25710.78
649.92	25469.71
650.07	25797.38
650.21	25565.67
650.36	25713.13
650.51	25607.80
650.65	25750.57
650.80	25921.43
650.94	25888.67
651.09	25525.88
651.23	25680.36
651.38	25682.70
651.52	25263.74
651.67	25635.89
651.81	25722.49
651.96	25436.94
652.10	25598.44
652.25	25610.14
652.39	25776.32
652.54	25614.82
652.68	25352.68
652.83	25542.27
652.97	25764.62
653.12	25553.97
653.26	25429.92
653.41	25312.89
653.55	25149.06
653.70	25572.69
653.84	25200.55
653.99	25656.95
654.13	25867.60
654.27	25291.83
654.42	24891.60
654.56	25174.80
654.71	25612.48
654.85	25385.45
655.00	25350.34
655.14	25369.07
655.29	25064.80
655.43	25104.59
655.57	25230.98
655.72	25060.12
655.86	24940.75
656.01	25006.28
656.15	24760.53
656.30	25179.48
656.44	24809.68
656.58	24915.00
656.73	25301.19
656.87	24837.76
657.01	24809.68
657.16	25027.35
657.30	25245.02
657.45	24961.81
657.59	24999.26
657.73	24812.02
657.88	25006.28
658.02	24790.95
658.16	24725.42
658.31	24985.22
658.45	24898.62
658.60	24421.15
658.74	24610.73
658.88	24606.05
659.03	24577.97
659.17	24524.13
659.31	24861.17
659.46	24430.51
659.60	24737.12
659.74	24533.50
659.89	24496.05
660.03	24376.68
660.17	24580.31
660.32	24137.94
660.46	24336.89
660.60	24175.39
660.74	24395.40
660.89	24254.97
661.03	24056.03
661.17	24240.93
661.32	24151.99
661.46	24231.57
661.60	24098.16
661.74	24004.53
661.89	24538.18
662.03	23723.67
662.17	24034.96
662.31	24170.71
662.46	24049.00
662.60	24044.32
662.74	23988.15
662.88	23941.34
663.03	23751.76
663.17	23255.56
663.31	23613.66
663.45	23534.09
663.60	23850.06
663.74	23571.54
663.88	23534.09
664.02	23798.57
664.17	24049.00
664.31	23281.31
664.45	23435.78
664.59	23445.15
664.73	23332.80
664.88	23751.76
665.02	23152.58
665.16	23192.37
665.30	23543.45
665.44	23358.55
665.59	23115.13
665.73	23171.30
665.87	23068.32
666.01	23208.75
666.15	23215.77
666.29	23091.73
666.44	23276.63
666.58	22820.22
666.72	22960.66
666.86	23082.36
667.00	22888.10
667.14	22885.76
667.28	23019.17
667.43	22916.19
667.57	23042.57
667.71	23044.91
667.85	22958.31
667.99	22787.46
668.13	22773.41
668.27	22792.14
668.41	22668.09
668.56	22649.36
668.70	22864.69
668.84	22726.60
668.98	22867.03
669.12	22427.01
669.26	22696.17
669.40	22579.15
669.54	22368.50
669.68	22279.56
669.82	22448.08
669.96	22064.23
670.10	22167.21
670.25	22136.79
670.39	22321.69
670.53	22017.42
670.67	21963.59
670.81	22141.47
670.95	22293.60
671.09	22272.54
671.23	22192.96
671.37	21956.57
671.51	22148.49
671.65	22071.25
671.79	21818.47
671.93	21799.75
672.07	21750.60
672.21	21727.19
672.35	21715.49
672.49	21427.60
672.63	21558.67
672.77	21268.45
672.91	21563.36
673.05	21319.94
673.19	21584.42
673.33	21525.91
673.47	21441.65
673.61	21766.98
673.75	21439.31
673.89	21429.94
674.03	21039.08
674.17	21219.30
674.31	21055.46
674.45	21226.32
674.59	21039.08
674.73	20900.98
674.87	20601.40
675.01	20549.90
675.15	20915.03
675.29	20945.45
675.43	21167.80
675.56	20889.28
675.70	20947.79
675.84	20821.41
675.98	20294.79
676.12	20587.35
676.26	20753.53
676.40	20524.16
676.54	20559.27
676.68	20449.26
676.82	20107.54
676.96	20283.08
677.10	20519.48
677.23	19953.07
677.37	20116.90
677.51	19798.59
677.65	19990.52
677.79	19503.68
677.93	19721.35
678.07	19810.29
678.21	19695.61
678.34	19772.85
678.48	19885.19
678.62	19463.90
678.76	19335.17
678.90	19248.57
679.04	19681.56
679.18	19646.46
679.31	19248.57
679.45	19183.03
679.59	19016.85
679.73	18991.11
679.87	18855.36
680.00	18923.23
680.14	18785.14
680.28	18857.70
680.42	18972.38
680.56	18991.11
680.70	18878.76
680.83	18874.08
680.97	18663.43
681.11	18682.16
681.25	18604.92
681.39	18693.86
681.52	18300.65
681.66	18377.89
681.80	18132.13
681.94	18040.85
682.07	18169.58
682.21	18038.51
682.35	17797.43
682.49	17963.61
682.62	17989.36
682.76	17916.80
682.90	18167.24
683.04	17724.88
683.17	17743.60
683.31	17961.27
683.45	18012.76
683.59	17525.93
683.72	17692.11
683.86	17628.92
684.00	17556.36
684.13	17642.96
684.27	17582.10
684.41	17219.32
684.55	17205.28
684.68	17240.39
684.82	17111.66
684.96	16915.05
685.09	16812.07
685.23	16912.71
685.37	17029.74
685.50	16975.91
685.64	16947.82
685.78	17043.78
685.91	16985.27
686.05	16812.07
686.19	16706.74
686.32	16896.33
686.46	16692.70
686.60	16432.90
686.73	16524.18
686.87	16236.30
687.01	16418.86
687.14	16100.55
687.28	16159.06
687.42	16107.57
687.55	16180.12
687.69	16074.80
687.82	15915.64
687.96	15939.05
688.10	15838.41
688.23	15857.13
688.37	15875.85
688.50	16023.31
688.64	15761.17
688.78	15768.19
688.91	15447.54
689.05	15517.75
689.18	15447.54
689.32	14927.94
689.46	15548.18
689.59	15349.23
689.73	15316.47
689.86	15264.97
690.00	15176.03
690.13	15183.06
690.27	15122.20
690.41	15119.86
690.54	14993.47
690.68	15059.01
690.81	14862.40
690.95	14733.67
691.08	14956.02
691.22	14834.32
691.35	14827.29
691.49	14565.15
691.62	14743.03
691.76	14375.57
691.89	14691.54
692.03	14382.59
692.16	14150.88
692.30	14136.84
692.43	13973.00
692.57	14171.94
692.70	13989.38
692.84	13942.57
692.97	13968.32
693.11	14031.51
693.24	13923.85
693.38	13928.53
693.51	13823.20
693.65	13881.72
693.78	13600.85
693.92	13521.27
694.05	13518.93
694.19	13664.05
694.32	13671.07
694.45	13404.25
694.59	13287.22
694.72	13174.88
694.86	13130.41
694.99	13034.44
695.13	13207.64
695.26	13078.91
695.39	12924.44
695.53	13118.70
695.66	12877.63
695.80	12702.09
695.93	12762.94
696.07	12989.97
696.20	12629.53
696.33	12746.56
696.47	12807.41
696.60	12795.71
696.73	12674.00
696.87	12786.35
697.00	12669.32
697.14	12383.77
697.27	12187.17
697.40	12177.81
697.54	12222.28
697.67	12184.83
697.80	12145.04
697.94	11920.35
698.07	12018.65
698.21	12011.63
698.34	12051.42
698.47	11957.80
698.61	11819.71
698.74	12018.65
698.87	12105.25
699.01	11557.57
699.14	11571.61
699.27	11609.06
699.40	11646.51
699.54	11461.60
699.67	11309.47
699.80	11508.41
699.94	11431.18
700.07	11417.13
700.20	11229.89
700.34	11351.60
700.47	11461.60
700.60	11295.43
700.73	11164.36
700.87	11056.69
701.00	10754.76
701.13	10949.03
701.26	10995.84
701.40	11164.36
701.53	10913.92
701.66	10738.38
701.79	10817.96
701.93	10757.10
702.06	10539.43
702.19	10537.09
702.32	10509.01
702.46	10464.54
702.59	10516.03
702.72	10375.59
702.85	10370.91
702.99	10448.15
703.12	10134.52
703.25	10113.45
703.38	10303.04
703.51	10324.10
703.65	10333.47
703.78	10024.51
703.91	10143.88
704.04	10097.07
704.17	10164.95
704.31	10080.69
704.44	10047.92
704.57	9877.06
704.70	9898.13
704.83	9647.69
704.96	9745.99
705.10	9619.60
705.23	9666.41
>>>>>End Processed Spectral Data<<<<<
