SpectraSuite Data File
++++++++++++++++++++++++++++++++++++
Date: Fri Oct 18 13:58:05 GMT-05:00 2013
User: bianchi
Dark Spectrum Present: No
Reference Spectrum Present: No
Number of Sampled Component Spectra: 1
Spectrometers: USB2+H05261
Integration Time (usec): 50000 (USB2+H05261)
Spectra Averaged: 1 (USB2+H05261)
Boxcar Smoothing: 0 (USB2+H05261)
Correct for Electrical Dark: No (USB2+H05261)
Strobe/Lamp Enabled: No (USB2+H05261)
Correct for Detector Non-linearity: No (USB2+H05261)
Correct for Stray Light: No (USB2+H05261)
Number of Pixels in Processed Spectrum: 2048
>>>>>Begin Processed Spectral Data<<<<<
365.73	0.00
365.92	0.00
366.12	0.00
366.32	0.00
366.52	0.00
366.72	0.00
366.91	0.00
367.11	0.00
367.31	0.00
367.51	0.00
367.70	0.00
367.90	0.00
368.10	0.00
368.30	0.00
368.49	0.00
368.69	0.00
368.89	0.00
369.09	0.00
369.28	0.00
369.48	0.00
369.68	0.00
369.87	0.00
370.07	0.00
370.27	0.00
370.47	0.00
370.66	100.64
370.86	100.64
371.06	112.35
371.25	201.29
371.45	91.28
371.65	138.09
371.84	194.26
372.04	198.95
372.24	205.97
372.44	203.63
372.63	210.65
372.83	168.52
373.03	245.76
373.22	201.29
373.42	255.12
373.62	234.05
373.81	276.18
374.01	215.33
374.21	189.58
374.40	196.60
374.60	250.44
374.79	196.60
374.99	255.12
375.19	243.42
375.38	248.10
375.58	264.48
375.78	269.16
375.97	315.97
376.17	208.31
376.37	259.80
376.56	308.95
376.76	241.08
376.95	313.63
377.15	299.59
377.35	259.80
377.54	227.03
377.74	313.63
377.93	217.67
378.13	297.25
378.33	318.31
378.52	313.63
378.72	290.23
378.91	315.97
379.11	301.93
379.31	369.80
379.50	325.33
379.70	297.25
379.89	315.97
380.09	344.06
380.28	318.31
380.48	315.97
380.68	304.27
380.87	332.36
381.07	346.40
381.26	346.40
381.46	285.55
381.65	339.38
381.85	327.68
382.04	332.36
382.24	337.04
382.43	301.93
382.63	308.95
382.83	318.31
383.02	397.89
383.22	404.91
383.41	390.87
383.61	383.85
383.80	442.36
384.00	393.21
384.19	367.46
384.39	374.49
384.58	395.55
384.78	346.40
384.97	353.42
385.17	386.19
385.36	318.31
385.56	339.38
385.75	383.85
385.95	341.72
386.14	383.85
386.34	362.78
386.53	351.08
386.72	388.53
386.92	505.56
387.11	451.72
387.31	437.68
387.50	388.53
387.70	362.78
387.89	451.72
388.09	362.78
388.28	500.87
388.48	528.96
388.67	414.27
388.86	397.89
389.06	383.85
389.25	554.71
389.45	456.40
389.64	454.06
389.84	472.79
390.03	442.36
390.22	468.11
390.42	517.26
390.61	505.56
390.81	449.38
391.00	493.85
391.19	465.77
391.39	571.09
391.58	573.43
391.78	433.00
391.97	545.34
392.16	620.24
392.36	601.52
392.55	573.43
392.75	521.94
392.94	543.00
393.13	573.43
393.33	566.41
393.52	624.92
393.71	587.47
393.91	564.07
394.10	615.56
394.29	594.50
394.49	573.43
394.68	596.84
394.88	620.24
395.07	578.11
395.26	613.22
395.46	592.16
395.65	697.48
395.84	643.65
396.04	737.27
396.23	610.88
396.42	641.31
396.62	667.05
396.81	741.95
397.00	674.07
397.19	636.63
397.39	622.58
397.58	608.54
397.77	702.16
397.97	678.76
398.16	744.29
398.35	760.67
398.55	713.86
398.74	655.35
398.93	723.23
399.12	788.76
399.32	713.86
399.51	833.23
399.70	713.86
399.90	880.04
400.09	777.06
400.28	835.57
400.47	830.89
400.67	814.51
400.86	732.59
401.05	795.78
401.24	868.34
401.44	755.99
401.63	835.57
401.82	891.74
402.01	877.70
402.21	898.77
402.40	903.45
402.59	793.44
402.78	823.87
402.97	828.55
403.17	926.85
403.36	854.30
403.55	940.90
403.74	926.85
403.93	891.74
404.13	973.66
404.32	915.15
404.51	945.58
404.70	997.07
404.89	976.00
405.09	915.15
405.28	931.53
405.47	858.98
405.66	1015.79
405.85	997.07
406.05	959.62
406.24	959.62
406.43	1008.77
406.62	1015.79
406.81	1116.44
407.00	947.92
407.20	1048.56
407.39	1022.81
407.58	1076.65
407.77	1132.82
407.96	1102.39
408.15	1027.50
408.34	1039.20
408.54	1039.20
408.73	1139.84
408.92	1132.82
409.11	1125.80
409.30	1111.75
409.49	1200.69
409.68	1158.57
409.87	1135.16
410.07	1130.48
410.26	1219.42
410.45	1252.19
410.64	1310.70
410.83	1172.61
411.02	1242.82
411.21	1294.32
411.40	1327.08
411.59	1299.00
411.78	1355.17
411.98	1289.64
412.17	1451.13
412.36	1352.83
412.55	1336.45
412.74	1310.70
412.93	1404.32
413.12	1310.70
413.31	1500.28
413.50	1458.15
413.69	1509.65
413.88	1373.89
414.07	1416.02
414.26	1427.73
414.45	1483.90
414.64	1451.13
414.83	1441.77
415.02	1542.41
415.22	1488.58
415.41	1657.10
415.60	1600.93
415.79	1610.29
415.98	1629.01
416.17	1666.46
416.36	1600.93
416.55	1591.56
416.74	1720.29
416.93	1614.97
417.12	1647.74
417.31	1767.10
417.50	1551.78
417.69	1884.13
417.88	1706.25
418.07	1696.89
418.26	1860.73
418.45	1839.66
418.64	1856.04
418.83	1846.68
419.02	1757.74
419.21	1919.24
419.39	1816.26
419.58	1825.62
419.77	1846.68
419.96	1767.10
420.15	1966.05
420.34	1879.45
420.53	1937.96
420.72	1937.96
420.91	1952.01
421.10	1970.73
421.29	1961.37
421.48	1937.96
421.67	1989.46
421.86	2043.29
422.05	1959.03
422.24	1973.07
422.43	1935.62
422.61	2106.48
422.80	2066.69
422.99	2038.61
423.18	2115.84
423.37	2127.55
423.56	2083.08
423.75	2080.74
423.94	2050.31
424.13	1905.20
424.32	2036.27
424.50	2111.16
424.69	2132.23
424.88	2122.87
425.07	2045.63
425.26	2019.88
425.45	2040.95
425.64	2064.35
425.83	2033.93
426.01	2113.50
426.20	2085.42
426.39	2150.95
426.58	2097.12
426.77	2125.21
426.96	2111.16
427.15	2092.44
427.33	2111.16
427.52	2209.47
427.71	2211.81
427.90	2148.61
428.09	2190.74
428.28	2197.76
428.46	2080.74
428.65	2256.28
428.84	2296.07
429.03	2270.32
429.22	2207.13
429.40	2228.19
429.59	2300.75
429.78	2232.87
429.97	2216.49
430.16	2186.06
430.34	2326.49
430.53	2305.43
430.72	2413.09
430.91	2366.28
431.10	2331.17
431.28	2424.80
431.47	2471.61
431.66	2392.03
431.85	2373.30
432.03	2445.86
432.22	2513.74
432.41	2506.71
432.60	2520.76
432.79	2476.29
432.97	2478.63
433.16	2523.10
433.35	2520.76
433.54	2583.95
433.72	2525.44
433.91	2476.29
434.10	2532.46
434.28	2642.46
434.47	2579.27
434.66	2637.78
434.85	2579.27
435.03	2733.75
435.22	2616.72
435.41	2813.32
435.59	2752.47
435.78	2768.85
435.97	2628.42
436.16	2717.36
436.34	2759.49
436.53	2785.24
436.72	2719.70
436.90	2651.83
437.09	2712.68
437.28	2700.98
437.46	2775.88
437.65	2757.15
437.84	2860.13
438.02	2904.60
438.21	2860.13
438.40	2822.69
438.58	2965.46
438.77	2995.89
438.96	2904.60
439.14	2965.46
439.33	3068.44
439.52	3082.49
439.70	3005.25
439.89	3023.97
440.08	3038.02
440.26	3056.74
440.45	3105.89
440.63	3023.97
440.82	3138.66
441.01	3136.32
441.19	3129.30
441.38	3208.87
441.57	3265.05
441.75	3325.90
441.94	3353.99
442.12	3309.52
442.31	3370.37
442.50	3269.73
442.68	3386.76
442.87	3403.14
443.05	3438.25
443.24	3419.52
443.43	3452.29
443.61	3459.31
443.80	3574.00
443.98	3428.88
444.17	3288.45
444.35	3552.93
444.54	3571.66
444.73	3485.06
444.91	3459.31
445.10	3382.07
445.28	3522.51
445.47	3559.95
445.65	3592.72
445.84	3681.66
446.02	3478.04
446.21	3524.85
446.39	3562.30
446.58	3660.60
446.77	3531.87
446.95	3531.87
447.14	3552.93
447.32	3555.27
447.51	3576.34
447.69	3538.89
447.88	3829.12
448.06	3613.79
448.25	3440.59
448.43	3517.83
448.62	3592.72
448.80	3653.58
448.99	3574.00
449.17	3667.62
449.36	3541.23
449.54	3712.09
449.73	3705.07
449.91	3705.07
450.10	3815.07
450.28	3768.26
450.46	3871.25
450.65	3847.84
450.83	3901.67
451.02	3641.87
451.20	3765.92
451.39	3852.52
451.57	3744.86
451.76	3843.16
451.94	3833.80
452.13	4124.02
452.31	3983.59
452.49	3763.58
452.68	3871.25
452.86	3936.78
453.05	4098.28
453.23	4203.60
453.42	3901.67
453.60	3864.22
453.78	4032.74
453.97	3880.61
454.15	3953.16
454.34	3833.80
454.52	3960.19
454.70	4107.64
454.89	4128.70
455.07	4114.66
455.26	4067.85
455.44	4264.46
455.62	4217.65
455.81	4114.66
455.99	4283.18
456.17	4325.31
456.36	4236.37
456.54	4315.95
456.73	4332.33
456.91	4365.10
457.09	4447.02
457.28	4472.76
457.46	4402.55
457.64	4440.00
457.83	4404.89
458.01	4273.82
458.19	4568.73
458.38	4339.35
458.56	4641.28
458.74	4533.62
458.93	4435.32
459.11	4447.02
459.29	4510.21
459.48	4601.49
459.66	4606.17
459.84	4533.62
460.03	4732.56
460.21	4540.64
460.39	4620.22
460.57	4503.19
460.76	4645.96
460.94	4699.80
461.12	4765.33
461.31	4760.65
461.49	4622.56
461.67	4723.20
461.85	4908.10
462.04	4844.91
462.22	5130.45
462.40	4636.60
462.59	4971.30
462.77	4926.83
462.95	4833.21
463.13	4915.12
463.32	4784.06
463.50	4931.51
463.68	4931.51
463.86	4873.00
464.05	4901.08
464.23	4973.64
464.41	4971.30
464.59	5053.22
464.78	5043.85
464.96	4865.97
465.14	4917.47
465.32	5062.58
465.50	5142.16
465.69	5078.96
465.87	5128.11
466.05	5280.25
466.23	5034.49
466.41	5097.69
466.60	5294.29
466.78	5219.39
466.96	5032.15
467.14	5205.35
467.32	5315.36
467.51	5071.94
467.69	5069.60
467.87	5109.39
468.05	5329.40
468.23	5114.07
468.41	5397.28
468.60	5280.25
468.78	5329.40
468.96	5378.55
469.14	5462.81
469.32	5376.21
469.50	5235.78
469.69	5441.75
469.87	5612.60
470.05	5511.96
470.23	5462.81
470.41	5465.15
470.59	5474.51
470.77	5490.90
470.95	5547.07
471.14	5738.99
471.32	5619.63
471.50	5804.53
471.68	5694.52
471.86	5731.97
472.04	5731.97
472.22	5975.39
472.40	5790.49
472.58	5856.02
472.77	5954.32
472.95	6017.52
473.13	6019.86
473.31	5909.85
473.49	6080.71
473.67	5816.23
473.85	6059.65
474.03	6106.46
474.21	6132.20
474.39	6188.38
474.57	6139.23
474.75	6347.53
474.93	6394.34
475.12	6157.95
475.30	6354.55
475.48	6326.47
475.66	6242.21
475.84	6506.69
476.02	6389.66
476.20	6462.22
476.38	6462.22
476.56	6782.87
476.74	6511.37
476.92	6658.82
477.10	6626.06
477.28	6752.45
477.46	6846.07
477.64	6815.64
477.82	6864.79
478.00	7089.48
478.18	7023.95
478.36	7253.32
478.54	7304.81
478.72	7164.38
478.90	7143.32
479.08	7337.58
479.26	7445.24
479.44	7407.80
479.62	7499.08
479.80	7550.57
479.98	7496.74
480.16	7772.92
480.34	7620.78
480.52	7885.26
480.70	7939.10
480.88	7709.72
481.06	7801.01
481.24	7850.16
481.41	7997.61
481.59	8191.88
481.77	8121.66
481.95	8102.93
482.13	8360.39
482.31	8325.29
482.49	8472.74
482.67	8390.82
482.85	8470.40
483.03	8503.17
483.21	8664.66
483.39	8915.10
483.57	8828.50
483.74	8711.47
483.92	8805.10
484.10	8678.71
484.28	9069.58
484.46	9029.79
484.64	9453.42
484.82	9221.71
485.00	9259.16
485.18	9490.87
485.35	9643.01
485.53	9614.92
485.71	9696.84
485.89	9848.97
486.07	9778.76
486.25	9916.85
486.43	9900.47
486.61	9879.40
486.78	10090.05
486.96	10480.92
487.14	10228.14
487.32	10331.12
487.50	10356.87
487.68	10555.82
487.85	10619.01
488.03	10581.56
488.21	10661.14
488.39	10963.07
488.57	10878.81
488.75	10970.09
488.92	11166.70
489.10	11192.44
489.28	11061.37
489.46	11318.83
489.64	11276.70
489.81	11515.44
489.99	11667.57
490.17	11726.08
490.35	11775.24
490.53	11435.86
490.70	12072.48
490.88	11894.60
491.06	11990.56
491.24	12072.48
491.41	11932.05
491.59	12159.08
491.77	12091.21
491.95	12131.00
492.13	12418.88
492.30	12484.42
492.48	12585.06
492.66	12662.30
492.84	12568.68
493.01	13039.12
493.19	12776.98
493.37	12830.82
493.54	13048.49
493.72	13107.00
493.90	13099.98
494.08	13348.08
494.25	13399.57
494.43	13303.60
494.61	13664.05
494.79	13528.30
494.96	13577.45
495.14	13563.40
495.32	13944.91
495.49	13462.76
495.67	13961.30
495.85	14085.34
496.02	13940.23
496.20	14251.52
496.38	14204.71
496.55	14293.65
496.73	14815.59
496.91	14361.53
497.09	14696.22
497.26	14501.96
497.44	14839.00
497.62	14918.57
497.79	14920.92
497.97	14677.50
498.14	14864.74
498.32	15190.08
498.50	15197.10
498.67	15484.98
498.85	15157.31
499.03	15288.38
499.20	15360.94
499.38	15484.98
499.56	15662.86
499.73	15735.42
499.91	15707.34
500.08	16112.25
500.26	15360.94
500.44	16084.16
500.61	15587.97
500.79	15929.69
500.97	16093.52
501.14	16383.75
501.32	16299.49
501.49	16229.27
501.67	16269.06
501.84	16327.58
502.02	16465.67
502.20	16496.10
502.37	16629.51
502.55	16610.78
502.72	16659.93
502.90	16945.48
503.07	16655.25
503.25	16734.83
503.43	16830.79
503.60	16823.77
503.78	16985.27
503.95	17128.04
504.13	16809.73
504.30	16744.19
504.48	16779.30
504.65	17025.06
504.83	17528.27
505.01	17465.08
505.18	17539.97
505.36	17783.39
505.53	17228.68
505.71	17376.14
505.88	17434.65
506.06	17207.62
506.23	17575.08
506.41	17556.36
506.58	17954.25
506.76	17795.09
506.93	17888.71
507.11	17940.21
507.28	17820.84
507.46	17930.84
507.63	18216.39
507.81	18251.50
507.98	17905.10
508.16	18317.03
508.33	18040.85
508.50	18066.60
508.68	18525.34
508.85	18747.69
509.03	18405.97
509.20	18607.26
509.38	19005.15
509.55	18754.71
509.73	18761.73
509.90	18731.31
510.08	18888.12
510.25	18731.31
510.42	18927.91
510.60	19257.93
510.77	18869.40
510.95	19222.82
511.12	19271.97
511.30	19365.59
511.47	19374.95
511.64	19508.37
511.82	19616.03
511.99	19534.11
512.17	19414.74
512.34	19494.32
512.51	19573.90
512.69	19517.73
512.86	19541.13
513.04	19901.58
513.21	19702.63
513.38	19840.72
513.56	19955.41
513.73	19583.26
513.90	19791.57
514.08	19845.40
514.25	19950.73
514.43	20255.00
514.60	20327.55
514.77	19885.19
514.95	20226.91
515.12	20416.49
515.29	20170.74
515.47	20163.72
515.64	20423.51
515.81	20463.30
515.99	20500.75
516.16	20603.74
516.33	20819.07
516.51	20795.66
516.68	21018.01
516.85	20727.78
517.03	20767.57
517.20	21015.67
517.37	21020.35
517.54	21261.43
517.72	20964.18
517.89	21010.99
518.06	21102.27
518.24	21001.63
518.41	21364.41
518.58	21289.51
518.75	21282.49
518.93	21373.77
519.10	21521.23
519.27	21479.10
519.45	21706.13
519.62	21661.66
519.79	21539.95
519.96	21764.64
520.14	21689.74
520.31	21649.96
520.48	22291.26
520.65	21680.38
520.83	21956.57
521.00	22080.61
521.17	21879.33
521.34	22068.91
521.52	22115.72
521.69	21909.75
521.86	22092.32
522.03	22464.46
522.20	22295.94
522.38	22211.68
522.55	22199.98
522.72	22326.37
522.89	22363.82
523.07	22466.80
523.24	22497.23
523.41	22649.36
523.58	22204.66
523.75	23005.13
523.92	22483.19
524.10	22539.36
524.27	22941.93
524.44	23082.36
524.61	22857.67
524.78	22960.66
524.96	22906.82
525.13	23061.30
525.30	22862.35
525.47	23103.43
525.64	23222.80
525.81	23325.78
525.98	23058.96
526.16	23351.52
526.33	23276.63
526.50	23360.89
526.67	23269.61
526.84	23454.51
527.01	23587.92
527.18	23482.59
527.36	23740.05
527.53	23672.18
527.70	23831.33
527.87	24034.96
528.04	23585.58
528.21	23800.91
528.38	23826.65
528.55	23480.25
528.72	23576.22
528.89	23878.15
529.07	23857.08
529.24	24093.47
529.41	24009.22
529.58	24130.92
529.75	24034.96
529.92	24142.63
530.09	24116.88
530.26	24395.40
530.43	24453.92
530.60	24051.34
530.77	24280.72
530.94	24479.66
531.11	24137.94
531.28	24233.91
531.46	24320.51
531.63	24264.33
531.80	25020.33
531.97	24699.67
532.14	24856.49
532.31	24833.08
532.48	24540.52
532.65	25022.67
532.82	24664.57
532.99	24788.61
533.16	24900.96
533.33	24896.28
533.50	25099.90
533.67	25287.15
533.84	24545.20
534.01	24732.44
534.18	24907.98
534.35	25415.88
534.52	24865.85
534.69	25186.50
534.86	25282.47
535.03	25247.36
535.20	25324.60
535.37	25219.27
535.54	25146.72
535.71	25406.52
535.88	25254.38
536.05	25514.18
536.22	25640.57
536.38	25975.27
536.55	25663.97
536.72	25333.96
536.89	25495.46
537.06	25607.80
537.23	25483.75
537.40	25397.15
537.57	25883.98
537.74	25823.13
537.91	25963.56
538.08	26253.79
538.25	25530.56
538.42	25759.94
538.59	25809.09
538.75	25661.63
538.92	26033.78
539.09	25811.43
539.26	26394.22
539.43	25947.18
539.60	26370.82
539.77	26099.31
539.94	26443.37
540.11	26295.92
540.28	26080.59
540.44	26267.83
540.61	26302.94
540.78	26293.58
540.95	26319.32
541.12	26345.07
541.29	26307.62
541.46	26625.93
541.62	26103.99
541.79	26347.41
541.96	26101.65
542.13	26295.92
542.30	26616.57
542.47	26822.54
542.63	26911.48
542.80	26895.10
542.97	27124.47
543.14	27290.65
543.31	27065.96
543.48	27000.42
543.64	27410.01
543.81	27468.53
543.98	27314.05
544.15	27208.73
544.32	27363.20
544.48	27178.30
544.65	27180.64
544.82	27285.97
544.99	27028.51
545.16	27206.39
545.32	27220.43
545.49	27349.16
545.66	27569.17
545.83	27651.09
546.00	27435.76
546.16	27276.60
546.33	27225.11
546.50	26995.74
546.67	27133.83
546.83	27414.69
547.00	27414.69
547.17	27770.46
547.34	27648.75
547.50	27807.90
547.67	27878.12
547.84	27742.37
548.00	27838.33
548.17	27660.45
548.34	27613.64
548.51	27714.28
548.67	28048.98
548.84	27749.39
549.01	27871.10
549.18	28180.05
549.34	27810.25
549.51	27814.93
549.68	27634.71
549.84	27608.96
550.01	27981.10
550.18	28268.99
550.34	28116.86
550.51	28393.04
550.68	28645.82
550.84	28030.26
551.01	28130.90
551.18	27992.81
551.34	28011.53
551.51	28027.92
551.68	28311.12
551.84	28615.39
552.01	28510.07
552.18	28584.96
552.34	28386.02
552.51	28636.45
552.68	28821.36
552.84	28676.24
553.01	28657.52
553.18	28545.17
553.34	28622.41
553.51	28442.19
553.67	29017.96
553.84	28837.74
554.01	28690.29
554.17	29010.94
554.34	28706.67
554.51	28678.58
554.67	29017.96
554.84	28835.40
555.00	28882.21
555.17	28505.38
555.33	29399.47
555.50	28748.80
555.67	28987.53
555.83	28828.38
556.00	28914.98
556.16	29151.37
556.33	28781.57
556.50	29134.99
556.66	29118.60
556.83	29139.67
556.99	29479.05
557.16	29495.43
557.32	29333.93
557.49	29535.22
557.65	29289.46
557.82	29165.42
557.98	29043.71
558.15	28975.83
558.32	29563.31
558.48	29289.46
558.65	29076.48
558.81	29663.95
558.98	29298.83
559.14	29158.39
559.31	29500.11
559.47	29301.17
559.64	29142.01
559.80	29486.07
559.97	29291.80
560.13	29165.42
560.30	29399.47
560.46	29661.61
560.63	29542.24
560.79	29745.87
560.96	30115.67
561.12	29635.86
561.29	29827.79
561.45	29256.70
561.61	29720.12
561.78	29539.90
561.94	29792.68
562.11	29670.97
562.27	30101.63
562.44	29544.58
562.60	29692.04
562.77	29820.77
562.93	29558.63
563.10	30148.44
563.26	29867.58
563.42	29795.02
563.59	29825.45
563.75	29778.64
563.92	29792.68
564.08	29624.16
564.24	29668.63
564.41	29652.25
564.57	29865.24
564.74	29696.72
564.90	29933.11
565.07	30000.99
565.23	29614.80
565.39	30307.60
565.56	30181.21
565.72	30174.19
565.88	30012.69
566.05	29626.50
566.21	30064.18
566.38	29926.09
566.54	30029.07
566.70	30082.91
566.87	30251.42
567.03	30235.04
567.19	30389.52
567.36	30050.14
567.52	29624.16
567.68	30160.14
567.85	29909.71
568.01	30333.34
568.17	29862.90
568.34	30129.72
568.50	30199.93
568.66	30347.39
568.83	30464.41
568.99	30548.67
569.15	29879.28
569.32	29846.51
569.48	29848.85
569.64	30340.36
569.81	30448.03
569.97	30197.59
570.13	30270.15
570.30	30321.64
570.46	30391.86
570.62	30419.94
570.78	30089.93
570.95	30387.18
571.11	30429.30
571.27	29951.84
571.43	30218.66
571.60	30260.79
571.76	30162.48
571.92	30569.74
572.09	30101.63
572.25	30448.03
572.41	30665.70
572.57	30497.18
572.74	30576.76
572.90	30623.57
573.06	30494.84
573.22	30529.95
573.38	30136.74
573.55	30583.78
573.71	30646.97
573.87	30689.10
574.03	30663.36
574.20	30782.73
574.36	30417.60
574.52	30415.26
574.68	30080.56
574.84	30710.17
575.01	30237.38
575.17	30204.61
575.33	30581.44
575.49	30354.41
575.65	30476.12
575.82	30600.16
575.98	30286.53
576.14	30796.77
576.30	30649.32
576.46	30185.89
576.62	30368.45
576.79	30740.60
576.95	30253.76
577.11	30567.40
577.27	30525.27
577.43	30684.42
577.59	30672.72
577.75	30560.37
577.92	30693.79
578.08	30490.16
578.24	30579.10
578.40	30450.37
578.56	31061.25
578.72	30628.25
578.88	30991.03
579.04	30731.23
579.21	30539.31
579.37	30581.44
579.53	30574.42
579.69	30529.95
579.85	30618.89
580.01	30040.78
580.17	30569.74
580.33	30920.82
580.49	30628.25
580.65	30403.56
580.82	30918.48
580.98	30981.67
581.14	30546.33
581.30	30579.10
581.46	30384.83
581.62	30497.18
581.78	30834.22
581.94	30497.18
582.10	30864.64
582.26	30813.15
582.42	30691.44
582.58	31000.40
582.74	30686.76
582.90	31049.55
583.06	30817.83
583.22	30852.94
583.38	30710.17
583.54	30443.35
583.70	30850.60
583.86	30939.54
584.02	30597.82
584.18	30984.01
584.34	30885.71
584.50	31292.96
584.66	30988.69
584.82	30312.28
584.98	30852.94
585.14	30986.35
585.30	30441.01
585.46	30796.77
585.62	31112.74
585.78	30967.63
585.94	30429.30
586.10	31023.80
586.26	30637.61
586.42	30918.48
586.58	31044.87
586.74	30632.93
586.90	30670.38
587.06	30635.27
587.22	30656.34
587.38	30775.70
587.54	31007.42
587.70	31110.40
587.86	30979.33
588.02	31044.87
588.18	31227.43
588.34	31321.05
588.49	31026.14
588.65	30527.61
588.81	30939.54
588.97	30841.24
589.13	30841.24
589.29	31166.57
589.45	31220.41
589.61	30986.35
589.77	31489.57
589.93	31218.07
590.08	30848.26
590.24	31494.25
590.40	31124.44
590.56	30925.50
590.72	31087.00
590.88	31002.74
591.04	30998.06
591.20	31482.55
591.35	31480.21
591.51	31641.70
591.67	31489.57
591.83	31461.48
591.99	31262.54
592.15	30984.01
592.31	31564.46
592.46	31466.16
592.62	30836.56
592.78	30670.38
592.94	31005.08
593.10	31239.13
593.26	31166.57
593.41	31393.61
593.57	31505.95
593.73	31543.40
593.89	31456.80
594.05	31131.47
594.20	31400.63
594.36	31264.88
594.52	30918.48
594.68	30951.24
594.84	30799.11
594.99	31323.39
595.15	31292.96
595.31	31452.12
595.47	31412.33
595.62	31672.13
595.78	31454.46
595.94	31421.69
596.10	31351.48
596.25	31194.66
596.41	30960.61
596.57	30855.28
596.73	31363.18
596.88	31384.24
597.04	31445.10
597.20	31550.42
597.36	31524.68
597.51	31608.93
597.67	31257.85
597.83	31417.01
597.99	31557.44
598.14	31007.42
598.30	31475.52
598.46	31527.02
598.61	31119.76
598.77	31264.88
598.93	31665.11
599.09	31129.12
599.24	31749.37
599.40	31620.64
599.56	31639.36
599.71	31611.28
599.87	31484.89
600.03	31601.91
600.18	31302.32
600.34	31335.09
600.50	31271.90
600.65	31269.56
600.81	31821.92
600.97	31690.85
601.12	31962.36
601.28	31962.36
601.44	31566.81
601.59	31622.98
601.75	31318.71
601.91	31400.63
602.06	31087.00
602.22	31461.48
602.37	31173.60
602.53	31604.25
602.69	31508.29
602.84	31527.02
603.00	31517.65
603.16	31360.84
603.31	31606.59
603.47	31585.53
603.62	31536.38
603.78	31627.66
603.94	31655.75
604.09	31363.18
604.25	31246.15
604.40	31330.41
604.56	31409.99
604.71	31543.40
604.87	31693.19
605.03	31505.95
605.18	31405.31
605.34	31360.84
605.49	31358.50
605.65	31276.58
605.80	31311.69
605.96	31622.98
606.12	31248.49
606.27	31550.42
606.43	31101.04
606.58	31653.40
606.74	31367.86
606.89	31672.13
607.05	31679.15
607.20	31510.63
607.36	31452.12
607.51	31529.36
607.67	31412.33
607.82	31274.24
607.98	31360.84
608.13	31262.54
608.29	31297.64
608.44	31108.06
608.60	31594.89
608.75	31714.26
608.91	31421.69
609.06	31620.64
609.22	31117.42
609.37	31030.82
609.53	31051.89
609.68	31079.97
609.84	31276.58
609.99	30958.27
610.15	31138.49
610.30	30941.88
610.46	31225.09
610.61	31246.15
610.76	31388.92
610.92	31377.22
611.07	31414.67
611.23	30916.14
611.38	30822.51
611.54	30820.17
611.69	30857.62
611.84	30352.07
612.00	30806.13
612.15	30698.47
612.31	31339.77
612.46	31246.15
612.62	31054.23
612.77	30836.56
612.92	30972.31
613.08	30820.17
613.23	31143.17
613.39	30976.99
613.54	30593.14
613.69	30635.27
613.85	30852.94
614.00	30658.68
614.15	31072.95
614.31	31199.34
614.46	30850.60
614.62	31168.91
614.77	31215.72
614.92	30822.51
615.08	30707.83
615.23	30871.67
615.38	30815.49
615.54	30288.87
615.69	30705.49
615.84	30644.63
616.00	30803.79
616.15	30958.27
616.30	30883.37
616.46	30827.20
616.61	31005.08
616.76	30792.09
616.92	30651.66
617.07	30490.16
617.22	30625.91
617.37	30431.65
617.53	30459.73
617.68	30874.01
617.83	30555.69
617.99	30253.76
618.14	30391.86
618.29	30356.75
618.45	30539.31
618.60	30499.52
618.75	29954.18
618.90	30398.88
619.06	30181.21
619.21	30340.36
619.36	30363.77
619.51	30714.85
619.67	30143.76
619.82	30096.95
619.97	30312.28
620.12	30228.02
620.28	30026.73
620.43	30129.72
620.58	30316.96
620.73	30263.13
620.89	30602.50
621.04	30122.69
621.19	30316.96
621.34	30309.94
621.49	29830.13
621.65	30089.93
621.80	30448.03
621.95	30040.78
622.10	30314.62
622.25	30316.96
622.41	30043.12
622.56	29989.28
622.71	30387.18
622.86	30082.91
623.01	30155.46
623.16	30272.49
623.32	30118.01
623.47	29954.18
623.62	29722.46
623.77	29476.71
623.92	30286.53
624.07	29699.06
624.23	29420.53
624.38	30125.04
624.53	29853.53
624.68	30010.35
624.83	29619.48
624.98	29986.94
625.13	29624.16
625.29	29872.26
625.44	29886.30
625.59	29603.10
625.74	29589.05
625.89	29713.10
626.04	29345.64
626.19	29806.72
626.34	29642.88
626.49	29605.44
626.65	29303.51
626.80	29481.39
626.95	29411.17
627.10	29717.78
627.25	29296.49
627.40	29516.50
627.55	29390.11
627.70	29298.83
627.85	29422.87
628.00	29352.66
628.15	29654.59
628.30	29127.97
628.45	29420.53
628.60	29188.82
628.76	29467.34
628.91	29504.79
629.06	29116.26
629.21	29340.96
629.36	29439.26
629.51	29017.96
629.66	29111.58
629.81	29118.60
629.96	28954.77
630.11	29109.24
630.26	29106.90
630.41	29235.63
630.56	28989.88
630.71	29095.20
630.86	29116.26
631.01	29017.96
631.16	29076.48
631.31	28943.06
631.46	28687.95
631.61	29111.58
631.76	28884.55
631.91	29083.50
632.06	28641.14
632.21	28896.25
632.36	28694.97
632.51	28545.17
632.66	28952.43
632.81	28521.77
632.96	28987.53
633.10	28868.17
633.25	28987.53
633.40	28711.35
633.55	28861.15
633.70	28505.38
633.85	28327.50
634.00	28772.21
634.15	28723.05
634.30	28680.92
634.45	28666.88
634.60	28535.81
634.75	28613.05
634.90	28411.76
635.05	28879.87
635.19	28489.00
635.34	28772.21
635.49	28498.36
635.64	28978.17
635.79	28584.96
635.94	28470.28
636.09	28435.17
636.24	28634.11
636.39	28142.60
636.53	28472.62
636.68	28301.76
636.83	28023.23
636.98	28299.42
637.13	28631.77
637.28	28346.23
637.43	28725.39
637.57	28261.97
637.72	28376.66
637.87	28489.00
638.02	28268.99
638.17	28435.17
638.32	28217.50
638.46	27985.79
638.61	28407.08
638.76	27868.76
638.91	28016.21
639.06	27740.03
639.20	28056.00
639.35	28245.58
639.50	28273.67
639.65	28402.40
639.80	28474.96
639.94	28346.23
640.09	28105.15
640.24	27728.33
640.39	27922.59
640.54	27707.26
640.68	27835.99
640.83	27660.45
640.98	28144.94
641.13	27978.76
641.27	27845.35
641.42	28079.41
641.57	27697.90
641.72	28004.51
641.86	27562.15
642.01	27754.07
642.16	27344.48
642.31	27606.62
642.45	27852.38
642.60	27475.55
642.75	27056.59
642.90	27564.49
643.04	27562.15
643.19	27878.12
643.34	27828.97
643.48	27510.66
643.63	27576.19
643.78	27534.06
643.93	27938.97
644.07	27503.64
644.22	27875.78
644.37	27325.75
644.51	27468.53
644.66	27543.42
644.81	27381.93
644.95	27410.01
645.10	27241.50
645.25	26937.23
645.39	27239.15
645.54	27250.86
645.69	27007.44
645.83	27194.68
645.98	27454.48
646.13	27653.43
646.27	27435.76
646.42	27484.91
646.57	27433.42
646.71	27262.56
646.86	27175.96
647.00	27054.25
647.15	26937.23
647.30	27147.87
647.44	27023.83
647.59	27323.41
647.74	27140.85
647.88	27459.16
648.03	27103.40
648.17	27190.00
648.32	27651.09
648.47	27435.76
648.61	27295.33
648.76	27182.98
648.90	26909.14
649.05	26878.71
649.20	27227.45
649.34	27026.17
649.49	26817.86
649.63	26796.79
649.78	26829.56
649.92	26670.40
650.07	26934.88
650.21	26974.67
650.36	26726.58
650.51	26405.92
650.65	26941.91
650.80	26686.79
650.94	26632.96
651.09	26714.87
651.23	26981.70
651.38	26623.59
651.52	26532.31
651.67	26822.54
651.81	27140.85
651.96	26749.98
652.10	26909.14
652.25	26356.77
652.39	26796.79
652.54	26647.00
652.68	26506.57
652.83	26792.11
652.97	26569.76
653.12	26801.47
653.26	26602.53
653.41	26391.88
653.55	26333.37
653.70	26438.69
653.84	26305.28
653.99	26096.97
654.13	26380.18
654.27	26148.46
654.42	26497.20
654.56	26417.63
654.71	26211.66
654.85	26616.57
655.00	26499.55
655.14	26162.51
655.29	26286.56
655.43	26504.23
655.57	26302.94
655.72	25956.54
655.86	26391.88
656.01	25935.48
656.15	25921.43
656.30	25902.71
656.44	25738.87
656.58	25916.75
656.73	25853.56
656.87	26197.62
657.01	25982.29
657.16	26143.78
657.30	26029.10
657.45	26115.70
657.59	25986.97
657.73	25785.68
657.88	25888.67
658.02	25888.67
658.16	25816.11
658.31	25743.55
658.45	25710.78
658.60	25612.48
658.74	25525.88
658.88	25745.89
659.03	25666.31
659.17	25483.75
659.31	25635.89
659.46	25568.01
659.60	25649.93
659.74	25729.51
659.89	25240.34
660.03	25678.02
660.17	25663.97
660.32	25127.99
660.46	25235.66
660.60	25273.10
660.74	25310.55
660.89	25294.17
661.03	25181.82
661.17	24975.86
661.32	25238.00
661.46	25429.92
661.60	25205.23
661.74	25511.84
661.89	25450.99
662.03	25275.45
662.17	25186.50
662.31	24797.98
662.46	25170.12
662.60	25142.03
662.74	24950.11
662.88	24924.36
663.03	24879.89
663.17	24414.13
663.31	24680.95
663.45	24826.06
663.60	24474.98
663.74	24402.43
663.88	24720.74
664.02	24926.71
664.17	24741.80
664.31	24634.14
664.45	24608.39
664.59	24606.05
664.73	24503.07
664.88	24472.64
665.02	24280.72
665.16	24395.40
665.30	24304.12
665.44	24622.44
665.59	23960.06
665.73	24418.81
665.87	23913.25
666.01	24367.32
666.15	24189.44
666.29	23981.13
666.44	24245.61
666.58	23843.04
666.72	23957.72
666.86	24133.26
667.00	24041.98
667.14	24018.58
667.28	24100.50
667.43	23880.49
667.57	23962.40
667.71	23555.15
667.85	23573.88
667.99	23576.22
668.13	23772.82
668.27	23625.37
668.41	23887.51
668.56	23255.56
668.70	23711.97
668.84	23859.42
668.98	23482.59
669.12	23506.00
669.26	23765.80
669.40	23309.40
669.54	22768.73
669.68	23220.45
669.82	23234.50
669.96	23035.55
670.10	22944.27
670.25	23318.76
670.39	23314.08
670.53	22794.48
670.67	22874.06
670.81	23239.18
670.95	23133.86
671.09	23075.34
671.23	22925.55
671.37	23080.02
671.51	22733.62
671.65	22932.57
671.79	22747.67
671.93	22665.75
672.07	22916.19
672.21	22518.29
672.35	22640.00
672.49	22356.80
672.63	22331.05
672.77	22195.30
672.91	22300.62
673.05	22508.93
673.19	22565.10
673.33	22345.09
673.47	22499.57
673.61	22230.41
673.75	22279.56
673.89	22125.08
674.03	21785.71
674.17	22333.39
674.31	21975.29
674.45	22066.57
674.59	22136.79
674.73	22052.53
674.87	21813.79
675.01	21717.83
675.15	22026.78
675.29	21579.74
675.43	21605.49
675.56	21462.71
675.70	21832.52
675.84	21397.18
675.98	21064.82
676.12	21781.03
676.26	21678.04
676.40	21343.35
676.54	21348.03
676.68	21502.50
676.82	20938.43
676.96	21055.46
677.10	20788.64
677.23	20978.22
677.37	20865.88
677.51	20900.98
677.65	20760.55
677.79	20840.13
677.93	20568.63
678.07	20636.50
678.21	20514.80
678.34	20465.64
678.48	20585.01
678.62	20669.27
678.76	20285.42
678.90	20484.37
679.04	20166.06
679.18	20259.68
679.31	19906.26
679.45	19793.91
679.59	19906.26
679.73	19971.79
679.87	19812.63
680.00	19786.89
680.14	19597.31
680.28	19744.76
680.42	19658.16
680.56	19761.14
680.70	19592.62
680.83	19641.78
680.97	19428.79
681.11	19433.47
681.25	19637.09
681.39	19473.26
681.52	19594.96
681.66	18829.61
681.80	18956.00
681.94	19194.73
682.07	19332.82
682.21	18958.34
682.35	18831.95
682.49	18595.56
682.62	18670.45
682.76	18874.08
682.90	18682.16
683.04	18497.25
683.17	18546.40
683.31	18637.69
683.45	18490.23
683.59	18314.69
683.72	18466.83
683.86	18408.31
684.00	18342.78
684.13	18267.88
684.27	18228.09
684.41	18101.70
684.55	17781.05
684.68	17504.87
684.82	17898.08
684.96	17680.41
685.09	17778.71
685.23	17626.57
685.37	17818.50
685.50	17804.46
685.64	17467.42
685.78	17818.50
685.91	17736.58
686.05	17689.77
686.19	17600.83
686.32	17432.31
686.46	17116.34
686.60	17317.62
686.73	17043.78
686.87	17156.13
687.01	17055.48
687.14	16830.79
687.28	17074.21
687.42	17114.00
687.55	16547.59
687.69	16734.83
687.82	16563.97
687.96	16531.20
688.10	16603.76
688.23	16360.34
688.37	16723.13
688.50	16355.66
688.64	16353.32
688.78	16444.60
688.91	16035.01
689.05	16130.97
689.18	16100.55
689.32	15843.09
689.46	15751.81
689.59	16126.29
689.73	15941.39
689.86	15992.88
690.00	15901.60
690.13	15826.70
690.27	15702.65
690.41	15543.50
690.54	15566.90
690.68	15793.94
690.81	15873.51
690.95	15365.62
691.08	15602.01
691.22	15283.70
691.35	15534.14
691.49	15548.18
691.62	15297.74
691.76	15253.27
691.89	15194.76
692.03	14963.04
692.16	14981.77
692.30	14614.30
692.43	14918.57
692.57	14860.06
692.70	14937.30
692.84	14689.20
692.97	14422.38
693.11	14635.37
693.24	14560.47
693.38	14455.15
693.51	14579.20
693.65	14443.45
693.78	14494.94
693.92	14232.80
694.05	14251.52
694.19	14373.23
694.32	13970.66
694.45	14136.84
694.59	13933.21
694.72	13898.10
694.86	13748.31
694.99	13579.79
695.13	13860.65
695.26	13771.71
695.39	13598.51
695.53	13647.66
695.66	13614.90
695.80	13568.09
695.93	13544.68
696.07	13593.83
696.20	13535.32
696.33	13366.80
696.47	13338.71
696.60	13083.59
696.73	13245.09
696.87	13345.73
697.00	13118.70
697.14	12879.97
697.27	12709.11
697.40	12917.42
697.54	12772.30
697.67	12716.13
697.80	12554.63
697.94	12812.09
698.07	12638.89
698.21	12463.35
698.34	12725.49
698.47	12528.89
698.61	12449.31
698.74	12280.79
698.87	12442.29
699.01	12126.32
699.14	12084.19
699.27	12255.04
699.40	12060.78
699.54	12205.89
699.67	12112.27
699.80	11922.69
699.94	11655.87
700.07	11885.24
700.20	11756.51
700.34	11634.80
700.47	11782.26
700.60	11623.10
700.73	11747.15
700.87	11637.14
701.00	11370.32
701.13	11566.93
701.26	11236.91
701.40	11438.20
701.53	11382.03
701.66	11520.12
701.79	11339.90
701.93	11349.26
702.06	11087.12
702.19	11087.12
702.32	10949.03
702.46	11000.52
702.59	10799.23
702.72	10649.44
702.85	10899.87
702.99	10796.89
703.12	10445.81
703.25	10518.37
703.38	10670.50
703.51	10611.99
703.65	10792.21
703.78	10532.41
703.91	10609.65
704.04	10544.11
704.17	10752.42
704.31	10377.94
704.44	10249.21
704.57	10375.59
704.70	10263.25
704.83	10186.01
704.96	10178.99
705.10	10001.11
705.23	10036.22
>>>>>End Processed Spectral Data<<<<<
