SpectraSuite Data File
++++++++++++++++++++++++++++++++++++
Date: Fri Oct 18 13:58:12 GMT-05:00 2013
User: bianchi
Dark Spectrum Present: No
Reference Spectrum Present: No
Number of Sampled Component Spectra: 1
Spectrometers: USB2+H05261
Integration Time (usec): 50000 (USB2+H05261)
Spectra Averaged: 1 (USB2+H05261)
Boxcar Smoothing: 0 (USB2+H05261)
Correct for Electrical Dark: No (USB2+H05261)
Strobe/Lamp Enabled: No (USB2+H05261)
Correct for Detector Non-linearity: No (USB2+H05261)
Correct for Stray Light: No (USB2+H05261)
Number of Pixels in Processed Spectrum: 2048
>>>>>Begin Processed Spectral Data<<<<<
365.73	0.00
365.92	0.00
366.12	0.00
366.32	0.00
366.52	0.00
366.72	0.00
366.91	0.00
367.11	0.00
367.31	0.00
367.51	0.00
367.70	0.00
367.90	0.00
368.10	0.00
368.30	0.00
368.49	0.00
368.69	0.00
368.89	0.00
369.09	0.00
369.28	0.00
369.48	0.00
369.68	0.00
369.87	0.00
370.07	0.00
370.27	0.00
370.47	39.79
370.66	60.85
370.86	0.00
371.06	180.22
371.25	72.56
371.45	156.82
371.65	177.88
371.84	119.37
372.04	63.19
372.24	255.12
372.44	198.95
372.63	194.26
372.83	337.04
373.03	175.54
373.22	243.42
373.42	205.97
373.62	278.52
373.81	236.39
374.01	271.50
374.21	161.50
374.40	191.92
374.60	259.80
374.79	306.61
374.99	245.76
375.19	299.59
375.38	241.08
375.58	245.76
375.78	182.56
375.97	222.35
376.17	292.57
376.37	222.35
376.56	402.57
376.76	348.74
376.95	306.61
377.15	299.59
377.35	332.36
377.54	252.78
377.74	308.95
377.93	271.50
378.13	269.16
378.33	402.57
378.52	351.08
378.72	327.68
378.91	273.84
379.11	175.54
379.31	322.99
379.50	280.86
379.70	325.33
379.89	203.63
380.09	227.03
380.28	304.27
380.48	369.80
380.68	308.95
380.87	315.97
381.07	346.40
381.26	325.33
381.46	283.20
381.65	355.76
381.85	344.06
382.04	360.44
382.24	374.49
382.43	320.65
382.63	330.02
382.83	341.72
383.02	397.89
383.22	346.40
383.41	355.76
383.61	339.38
383.80	435.34
384.00	372.15
384.19	369.80
384.39	381.51
384.58	358.10
384.78	325.33
384.97	397.89
385.17	395.55
385.36	442.36
385.56	409.59
385.75	283.20
385.95	425.98
386.14	475.13
386.34	358.10
386.53	447.04
386.72	421.30
386.92	447.04
387.11	482.15
387.31	435.34
387.50	386.19
387.70	397.89
387.89	425.98
388.09	458.74
388.28	360.44
388.48	468.11
388.67	353.42
388.86	465.77
389.06	433.00
389.25	449.38
389.45	489.17
389.64	503.22
389.84	526.62
390.03	517.26
390.22	578.11
390.42	379.17
390.61	461.09
390.81	538.32
391.00	571.09
391.19	496.19
391.39	540.66
391.58	503.22
391.78	503.22
391.97	521.94
392.16	507.90
392.36	594.50
392.55	587.47
392.75	547.69
392.94	594.50
393.13	477.47
393.33	589.82
393.52	629.60
393.71	629.60
393.91	653.01
394.10	580.45
394.29	566.41
394.49	617.90
394.68	540.66
394.88	653.01
395.07	653.01
395.26	660.03
395.46	634.29
395.65	671.73
395.84	571.09
396.04	667.05
396.23	653.01
396.42	690.46
396.62	620.24
396.81	716.20
397.00	681.10
397.19	706.84
397.39	685.78
397.58	800.46
397.77	587.47
397.97	713.86
398.16	704.50
398.35	655.35
398.55	601.52
398.74	739.61
398.93	746.63
399.12	641.31
399.32	737.27
399.51	716.20
399.70	734.93
399.90	798.12
400.09	723.23
400.28	809.83
400.47	718.54
400.67	788.76
400.86	760.67
401.05	835.57
401.24	812.17
401.44	835.57
401.63	842.59
401.82	788.76
402.01	758.33
402.21	847.27
402.40	877.70
402.59	837.91
402.78	901.11
402.97	828.55
403.17	880.04
403.36	950.26
403.55	912.81
403.74	950.26
403.93	814.51
404.13	863.66
404.32	901.11
404.51	1053.24
404.70	987.71
404.89	961.96
405.09	938.55
405.28	1015.79
405.47	985.37
405.66	999.41
405.85	994.73
406.05	971.32
406.24	1053.24
406.43	966.64
406.62	1015.79
406.81	1048.56
407.00	1025.15
407.20	1043.88
407.39	1050.90
407.58	1095.37
407.77	1027.50
407.96	1076.65
408.15	1053.24
408.34	1097.71
408.54	1071.97
408.73	1069.62
408.92	1139.84
409.11	1158.57
409.30	1184.31
409.49	1167.93
409.68	1125.80
409.87	1128.14
410.07	1181.97
410.26	1163.25
410.45	1203.04
410.64	1177.29
410.83	1153.88
411.02	1273.25
411.21	1294.32
411.40	1273.25
411.59	1336.45
411.78	1308.36
411.98	1324.74
412.17	1364.53
412.36	1355.17
412.55	1378.58
412.74	1322.40
412.93	1521.35
413.12	1317.72
413.31	1455.81
413.50	1378.58
413.69	1570.50
413.88	1411.34
414.07	1549.43
414.26	1516.67
414.45	1502.62
414.64	1561.14
414.83	1554.12
415.02	1535.39
415.22	1603.27
415.41	1563.48
415.60	1619.65
415.79	1598.59
415.98	1638.38
416.17	1570.50
416.36	1619.65
416.55	1629.01
416.74	1720.29
416.93	1680.50
417.12	1687.53
417.31	1802.21
417.50	1703.91
417.69	1809.23
417.88	1865.41
418.07	1788.17
418.26	1727.32
418.45	1863.07
418.64	1856.04
418.83	1884.13
419.02	1783.49
419.21	1858.39
419.39	1898.17
419.58	1811.57
419.77	1849.02
419.96	1895.83
420.15	1944.99
420.34	1966.05
420.53	1968.39
420.72	1984.77
420.91	1884.13
421.10	2026.90
421.29	1947.33
421.48	1987.11
421.67	2031.58
421.86	1987.11
422.05	1968.39
422.24	2001.16
422.43	2066.69
422.61	2057.33
422.80	2129.89
422.99	2085.42
423.18	1989.46
423.37	2073.71
423.56	2127.55
423.75	2005.84
423.94	1952.01
424.13	1820.94
424.32	2015.20
424.50	2038.61
424.69	2005.84
424.88	2104.14
425.07	2040.95
425.26	2062.01
425.45	2005.84
425.64	2101.80
425.83	2246.91
426.01	2134.57
426.20	2043.29
426.39	2069.03
426.58	2094.78
426.77	2066.69
426.96	2244.57
427.15	2160.31
427.33	2129.89
427.52	2256.28
427.71	2122.87
427.90	2190.74
428.09	2225.85
428.28	2132.23
428.46	2174.36
428.65	2225.85
428.84	2218.83
429.03	2270.32
429.22	2284.36
429.40	2251.60
429.59	2406.07
429.78	2176.70
429.97	2179.04
430.16	2335.85
430.34	2253.94
430.53	2352.24
430.72	2347.56
430.91	2352.24
431.10	2314.79
431.28	2403.73
431.47	2466.92
431.66	2326.49
431.85	2518.42
432.03	2492.67
432.22	2396.71
432.41	2459.90
432.60	2483.31
432.79	2541.82
432.97	2377.98
433.16	2509.05
433.35	2527.78
433.54	2551.18
433.72	2581.61
433.91	2630.76
434.10	2534.80
434.28	2431.82
434.47	2630.76
434.66	2623.74
434.85	2698.64
435.03	2602.68
435.22	2663.53
435.41	2803.96
435.59	2642.46
435.78	2670.55
435.97	2759.49
436.16	2703.32
436.34	2649.49
436.53	2745.45
436.72	2836.73
436.90	2806.30
437.09	2743.11
437.28	2733.75
437.46	2787.58
437.65	2729.06
437.84	2789.92
438.02	2778.22
438.21	2911.63
438.40	2738.43
438.58	2853.11
438.77	2951.42
438.96	2949.08
439.14	2923.33
439.33	2988.86
439.52	3009.93
439.70	3019.29
439.89	2974.82
440.08	3070.78
440.26	3019.29
440.45	3028.65
440.63	3211.22
440.82	3236.96
441.01	3178.45
441.19	3131.64
441.38	3393.78
441.57	3225.26
441.75	3356.33
441.94	3316.54
442.12	3361.01
442.31	3480.38
442.50	3337.60
442.68	3424.20
442.87	3325.90
443.05	3358.67
443.24	3445.27
443.43	3440.59
443.61	3398.46
443.80	3590.38
443.98	3379.73
444.17	3361.01
444.35	3471.01
444.54	3555.27
444.73	3541.23
444.91	3412.50
445.10	3625.49
445.28	3421.86
445.47	3557.61
445.65	3527.19
445.84	3590.38
446.02	3581.02
446.21	3693.37
446.39	3522.51
446.58	3620.81
446.77	3590.38
446.95	3375.05
447.14	3510.80
447.32	3405.48
447.51	3515.48
447.69	3576.34
447.88	3557.61
448.06	3574.00
448.25	3492.08
448.43	3590.38
448.62	3463.99
448.80	3585.70
448.99	3602.08
449.17	3651.24
449.36	3681.66
449.54	3691.02
449.73	3801.03
449.91	3817.41
450.10	3637.19
450.28	3850.18
450.46	3728.47
450.65	3726.13
450.83	3843.16
451.02	3845.50
451.20	3875.93
451.39	3861.88
451.57	3803.37
451.76	3873.59
451.94	3871.25
452.13	3864.22
452.31	3927.42
452.49	3967.21
452.68	3974.23
452.86	3960.19
453.05	4007.00
453.23	4081.89
453.42	4037.42
453.60	3920.40
453.78	4070.19
453.97	3957.85
454.15	4063.17
454.34	3999.98
454.52	4177.86
454.70	4046.79
454.89	4014.02
455.07	4079.55
455.26	4135.73
455.44	4159.13
455.62	4140.41
455.81	4124.02
455.99	4241.05
456.17	4142.75
456.36	4175.52
456.54	4372.12
456.73	4329.99
456.91	4273.82
457.09	4376.80
457.28	4416.59
457.46	4365.10
457.64	4388.50
457.83	4475.10
458.01	4545.32
458.19	4442.34
458.38	4484.47
458.56	4456.38
458.74	4400.21
458.93	4477.44
459.11	4484.47
459.29	4638.94
459.48	4685.75
459.66	4475.10
459.84	4631.92
460.03	4547.66
460.21	4573.41
460.39	4662.35
460.57	4664.69
460.76	4746.61
460.94	4697.46
461.12	4610.86
461.31	4655.33
461.49	4767.67
461.67	4699.80
461.85	4805.12
462.04	4903.42
462.22	5043.85
462.40	4896.40
462.59	4896.40
462.77	4802.78
462.95	5060.24
463.13	4856.61
463.32	4908.10
463.50	5008.75
463.68	5013.43
463.86	5015.77
464.05	4954.91
464.23	4840.23
464.41	4903.42
464.59	5018.11
464.78	5116.41
464.96	5095.35
465.14	5102.37
465.32	4938.53
465.50	5085.98
465.69	5137.48
465.87	5013.43
466.05	4997.04
466.23	5085.98
466.41	5191.31
466.60	5336.42
466.78	5135.14
466.96	5057.90
467.14	5046.20
467.32	5188.97
467.51	5200.67
467.69	5093.01
467.87	5371.53
468.05	5369.19
468.23	5310.68
468.41	5245.14
468.60	5373.87
468.78	5362.17
468.96	5275.57
469.14	5502.60
469.32	5502.60
469.50	5308.34
469.69	5476.85
469.87	5439.40
470.05	5633.67
470.23	5584.52
470.41	5561.11
470.59	5699.20
470.77	5516.64
470.95	5579.84
471.14	5727.29
471.32	5467.49
471.50	5776.44
471.68	5689.84
471.86	5738.99
472.04	5834.96
472.22	5825.59
472.40	5753.04
472.58	5783.46
472.77	6026.88
472.95	5914.53
473.13	5860.70
473.31	5914.53
473.49	6001.13
473.67	6057.31
473.85	5970.71
474.03	6193.06
474.21	6054.97
474.39	6029.22
474.57	6216.46
474.75	6094.76
474.93	6160.29
475.12	6134.54
475.30	6431.79
475.48	6296.04
475.66	6380.30
475.84	6342.85
476.02	6579.25
476.20	6478.60
476.38	6679.89
476.56	6588.61
476.74	6689.25
476.92	6656.48
477.10	6834.36
477.28	6881.18
477.46	6679.89
477.64	6773.51
477.82	6930.33
478.00	7157.36
478.18	7138.63
478.36	7028.63
478.54	7302.47
478.72	7218.21
478.90	7253.32
479.08	7286.09
479.26	7410.14
479.44	7391.41
479.62	7492.05
479.80	7609.08
479.98	7662.91
480.16	7747.17
480.34	7566.95
480.52	7796.32
480.70	7922.71
480.88	7801.01
481.06	8011.65
481.24	7852.50
481.41	8002.29
481.59	8126.34
481.77	8175.49
481.95	8168.47
482.13	8226.98
482.31	8454.02
482.49	8486.78
482.67	8430.61
482.85	8566.36
483.03	8573.38
483.21	8638.92
483.39	8805.10
483.57	8830.84
483.74	8737.22
483.92	9029.79
484.10	8683.39
484.28	9081.28
484.46	9043.83
484.64	9261.50
484.82	9090.64
485.00	9329.38
485.18	9369.16
485.35	9654.71
485.53	9692.16
485.71	9738.97
485.89	9987.07
486.07	9795.14
486.25	9643.01
486.43	9839.61
486.61	10068.98
486.78	10085.37
486.96	10324.10
487.14	10251.55
487.32	10291.34
487.50	10246.87
487.68	10581.56
487.85	10532.41
488.03	10747.74
488.21	10824.98
488.39	10918.60
488.57	10920.94
488.75	11035.63
488.92	11112.86
489.10	11117.54
489.28	11283.72
489.46	11414.79
489.64	11059.03
489.81	11566.93
489.99	11454.58
490.17	11751.83
490.35	11852.47
490.53	11850.13
490.70	11719.06
490.88	11742.47
491.06	12067.80
491.24	11892.26
491.41	12156.74
491.59	12233.98
491.77	12194.19
491.95	12414.20
492.13	12217.60
492.30	12592.08
492.48	12353.35
492.66	12564.00
492.84	12671.66
493.01	13025.08
493.19	12727.83
493.37	12828.48
493.54	12992.31
493.72	13252.11
493.90	13383.18
494.08	13516.59
494.25	13331.69
494.43	13432.33
494.61	13577.45
494.79	13586.81
494.96	13502.55
495.14	13635.96
495.32	14090.02
495.49	13877.04
495.67	13790.44
495.85	13916.83
496.02	14153.22
496.20	14113.43
496.38	14073.64
496.55	14277.27
496.73	14637.71
496.91	14555.79
497.09	14558.13
497.26	14700.90
497.44	15051.99
497.62	14857.72
497.79	14796.87
497.97	15035.60
498.14	14949.00
498.32	14897.51
498.50	15300.08
498.67	15262.63
498.85	15400.72
499.03	15241.57
499.20	15246.25
499.38	15211.14
499.56	15414.77
499.73	15875.85
499.91	15674.57
500.08	15948.41
500.26	15719.04
500.44	15660.52
500.61	15885.22
500.79	16020.97
500.97	16051.39
501.14	16287.79
501.32	16231.62
501.49	16463.33
501.67	15908.62
501.84	16435.24
502.02	16240.98
502.20	16287.79
502.37	16706.74
502.55	16449.28
502.72	16610.78
502.90	16659.93
503.07	16791.00
503.25	16381.41
503.43	16903.35
503.60	17015.69
503.78	16924.41
503.95	16961.86
504.13	17074.21
504.30	17020.38
504.48	17046.12
504.65	17116.34
504.83	17432.31
505.01	17172.51
505.18	17472.10
505.36	17511.89
505.53	17488.48
505.71	17516.57
505.88	17589.13
506.06	17694.45
506.23	17748.28
506.41	17385.50
506.58	18171.92
506.76	17888.71
506.93	17851.27
507.11	17799.77
507.28	17980.00
507.46	18281.92
507.63	18026.81
507.81	18040.85
507.98	18298.31
508.16	18150.85
508.33	18389.59
508.50	18333.42
508.68	18394.27
508.85	18532.36
509.03	18572.15
509.20	18590.88
509.38	18874.08
509.55	18838.97
509.73	19021.53
509.90	18670.45
510.08	19096.43
510.25	18630.66
510.42	19061.32
510.60	19140.90
510.77	18902.17
510.95	19115.16
511.12	19253.25
511.30	19140.90
511.47	19070.68
511.64	19424.11
511.82	19807.95
511.99	19381.98
512.17	19529.43
512.34	19491.98
512.51	19800.93
512.69	19791.57
512.86	19772.85
513.04	19538.79
513.21	19985.83
513.38	19962.43
513.56	20025.62
513.73	20056.05
513.90	19772.85
514.08	19559.86
514.25	20013.92
514.43	20453.94
514.60	20372.02
514.77	20418.83
514.95	20449.26
515.12	20215.21
515.29	19852.42
515.47	20432.88
515.64	20563.95
515.81	20170.74
515.99	20669.27
516.16	20798.00
516.33	20606.08
516.51	20936.09
516.68	20947.79
516.85	20835.45
517.03	20835.45
517.20	21144.40
517.37	20849.49
517.54	21212.28
517.72	21025.03
517.89	21497.82
518.06	21289.51
518.24	21010.99
518.41	21032.05
518.58	21373.77
518.75	21135.04
518.93	21479.10
519.10	21167.80
519.27	21696.77
519.45	21298.88
519.62	21539.95
519.79	21369.09
519.96	21734.21
520.14	21614.85
520.31	21839.54
520.48	21813.79
520.65	21900.39
520.83	21862.94
521.00	22312.33
521.17	21802.09
521.34	22008.06
521.52	21970.61
521.69	22298.28
521.86	22260.84
522.03	22328.71
522.20	22508.93
522.38	22335.73
522.55	22228.07
522.72	22354.46
522.89	22522.98
523.07	22562.76
523.24	22637.66
523.41	22918.53
523.58	22923.21
523.75	23075.34
523.92	22457.44
524.10	22752.35
524.27	23040.23
524.44	22787.46
524.61	22986.40
524.78	23164.28
524.96	23180.67
525.13	23005.13
525.30	23112.79
525.47	23391.31
525.64	23412.38
525.81	23026.19
525.98	23594.94
526.16	23531.75
526.33	23384.29
526.50	23878.15
526.67	23143.22
526.84	23541.11
527.01	23541.11
527.18	23480.25
527.36	23623.03
527.53	23875.80
527.70	23906.23
527.87	23852.40
528.04	23791.55
528.21	23695.58
528.38	23737.71
528.55	24170.71
528.72	24149.65
528.89	23962.40
529.07	23964.75
529.24	24091.13
529.41	24123.90
529.58	23791.55
529.75	23946.02
529.92	24226.89
530.09	23840.70
530.26	24320.51
530.43	24451.58
530.60	23948.36
530.77	24336.89
530.94	24247.95
531.11	24261.99
531.28	24388.38
531.46	24348.59
531.63	24514.77
531.80	24905.64
531.97	24758.19
532.14	24765.21
532.31	24685.63
532.48	24849.47
532.65	25032.03
532.82	24482.00
532.99	25003.94
533.16	24559.24
533.33	25352.68
533.50	25193.53
533.67	25013.31
533.84	24613.07
534.01	25095.22
534.18	24861.17
534.35	25188.85
534.52	25256.72
534.69	25233.32
534.86	25322.26
535.03	25226.29
535.20	25205.23
535.37	25640.57
535.54	25230.98
535.71	25446.30
535.88	25544.61
536.05	25656.95
536.22	25528.22
536.38	25951.86
536.55	25699.08
536.72	25575.03
536.89	25542.27
537.06	25813.77
537.23	25954.20
537.40	25795.04
537.57	26031.44
537.74	26061.87
537.91	26038.46
538.08	25731.85
538.25	25888.67
538.42	25736.53
538.59	25991.65
538.75	25811.43
538.92	25855.90
539.09	26396.56
539.26	26127.40
539.43	26443.37
539.60	26008.03
539.77	26417.63
539.94	25902.71
540.11	26333.37
540.28	26120.38
540.44	26457.42
540.61	26057.18
540.78	25872.28
540.95	26457.42
541.12	26553.38
541.29	26508.91
541.46	26724.24
541.62	26356.77
541.79	26508.91
541.96	25996.33
542.13	26604.87
542.30	26621.25
542.47	26764.03
542.63	26909.14
542.80	26855.31
542.97	27021.48
543.14	27236.81
543.31	27002.76
543.48	26923.18
543.64	27190.00
543.81	26637.64
543.98	27314.05
544.15	27283.62
544.32	27091.70
544.48	27489.59
544.65	27386.61
544.82	27307.03
544.99	26836.58
545.16	27473.21
545.32	27695.56
545.49	27541.08
545.66	27985.79
545.83	27632.36
546.00	27707.26
546.16	27023.83
546.33	27316.39
546.50	27505.98
546.67	27440.44
546.83	27234.47
547.00	27608.96
547.17	27733.01
547.34	27742.37
547.50	27882.80
547.67	27938.97
547.84	27725.99
548.00	28020.89
548.17	28032.60
548.34	27674.49
548.51	28149.62
548.67	28175.37
548.84	27950.68
549.01	27847.69
549.18	27583.21
549.34	28177.71
549.51	28060.68
549.68	28060.68
549.84	28051.32
550.01	28283.03
550.18	27931.95
550.34	27929.61
550.51	28505.38
550.68	28051.32
550.84	28177.71
551.01	28072.39
551.18	28166.01
551.34	27957.70
551.51	28095.79
551.68	28318.14
551.84	28474.96
552.01	28369.63
552.18	28591.98
552.34	28900.94
552.51	28835.40
552.68	28444.53
552.84	28606.03
553.01	28638.80
553.18	28343.89
553.34	28641.14
553.51	28875.19
553.67	28886.89
553.84	29163.08
554.01	28924.34
554.17	29212.23
554.34	29329.25
554.51	29015.62
554.67	28835.40
554.84	28503.04
555.00	29010.94
555.17	29071.79
555.33	28835.40
555.50	29366.70
555.67	28936.04
555.83	28837.74
556.00	28849.44
556.16	29460.32
556.33	29024.98
556.50	29394.79
556.66	29242.65
556.83	29237.97
556.99	29247.33
557.16	29462.66
557.32	29186.48
557.49	29118.60
557.65	29142.01
557.82	29090.52
557.98	29383.09
558.15	29312.87
558.32	29390.11
558.48	29427.56
558.65	29259.04
558.81	29575.01
558.98	29092.86
559.14	29259.04
559.31	28900.94
559.47	29200.52
559.64	29392.45
559.80	29589.05
559.97	29591.39
560.13	29427.56
560.30	29425.22
560.46	29764.59
560.63	30057.16
560.79	29584.37
560.96	29867.58
561.12	29605.44
561.29	29603.10
561.45	29462.66
561.61	29734.17
561.78	29670.97
561.94	29509.47
562.11	29727.14
562.27	29689.70
562.44	29703.74
562.60	29589.05
562.77	29811.40
562.93	29640.54
563.10	29839.49
563.26	29984.60
563.42	30059.50
563.59	30087.59
563.75	29930.77
563.92	29827.79
564.08	29860.55
564.24	30071.20
564.41	29626.50
564.57	29996.31
564.74	30108.65
564.90	30169.51
565.07	30349.73
565.23	30433.99
565.39	29993.97
565.56	30108.65
565.72	29935.45
565.88	30204.61
566.05	29577.35
566.21	30384.83
566.38	29879.28
566.54	30167.16
566.70	30237.38
566.87	30574.42
567.03	30167.16
567.19	30377.81
567.36	30078.22
567.52	30174.19
567.68	29919.07
567.85	30206.95
568.01	30417.60
568.17	29949.50
568.34	30319.30
568.50	30277.17
568.66	30038.44
568.83	30492.50
568.99	30066.52
569.15	30520.59
569.32	30120.35
569.48	29900.34
569.64	30078.22
569.81	30583.78
569.97	30469.09
570.13	30389.52
570.30	30333.34
570.46	30293.55
570.62	30288.87
570.78	30295.89
570.95	30335.68
571.11	30403.56
571.27	30253.76
571.43	30288.87
571.60	30401.22
571.76	30525.27
571.92	30574.42
572.09	30464.41
572.25	30391.86
572.41	30654.00
572.57	30747.62
572.74	30522.93
572.90	30185.89
573.06	29905.02
573.22	30548.67
573.38	30593.14
573.55	30286.53
573.71	30838.90
573.87	30850.60
574.03	30260.79
574.20	30492.50
574.36	30462.07
574.52	30417.60
574.68	30433.99
574.84	30738.26
575.01	30616.55
575.17	30813.15
575.33	30363.77
575.49	30438.67
575.65	30579.10
575.82	30693.79
575.98	30632.93
576.14	31012.10
576.30	30630.59
576.46	30466.75
576.62	30319.30
576.79	30941.88
576.95	30258.45
577.11	30815.49
577.27	30506.54
577.43	30876.35
577.59	30661.02
577.75	30705.49
577.92	30466.75
578.08	30824.86
578.24	30347.39
578.40	30558.03
578.56	30965.29
578.72	30829.54
578.88	30834.22
579.04	31274.24
579.21	30532.29
579.37	30785.07
579.53	30799.11
579.69	30448.03
579.85	30087.59
580.01	30862.30
580.17	30525.27
580.33	30792.09
580.49	30731.23
580.65	30857.62
580.82	30682.08
580.98	31037.84
581.14	30834.22
581.30	30920.82
581.46	30457.39
581.62	30738.26
581.78	30721.87
581.94	30644.63
582.10	30611.87
582.26	30515.90
582.42	30319.30
582.58	30932.52
582.74	30885.71
582.90	30773.36
583.06	30848.26
583.22	30572.08
583.38	30824.86
583.54	30632.93
583.70	30607.19
583.86	30698.47
584.02	30670.38
584.18	31056.57
584.34	30995.71
584.50	31143.17
584.66	31005.08
584.82	30778.04
584.98	30974.65
585.14	30384.83
585.30	30607.19
585.46	30464.41
585.62	30417.60
585.78	30733.57
585.94	30663.36
586.10	30955.93
586.26	30834.22
586.42	30909.11
586.58	31559.78
586.74	30628.25
586.90	30778.04
587.06	30717.19
587.22	30618.89
587.38	30487.82
587.54	31009.76
587.70	31297.64
587.86	30965.29
588.02	30976.99
588.18	31159.55
588.34	31040.18
588.49	30773.36
588.65	30890.39
588.81	31204.02
588.97	31143.17
589.13	30885.71
589.29	30752.30
589.45	31171.25
589.61	31157.21
589.77	31255.51
589.93	31166.57
590.08	31288.28
590.24	30735.92
590.40	31391.26
590.56	31630.00
590.72	31271.90
590.88	30490.16
591.04	30981.67
591.20	31482.55
591.35	31461.48
591.51	31381.90
591.67	30972.31
591.83	31796.18
591.99	31264.88
592.15	31019.12
592.31	31679.15
592.46	30897.41
592.62	31023.80
592.78	31124.44
592.94	31012.10
593.10	31182.96
593.26	31292.96
593.41	31349.14
593.57	31541.06
593.73	31337.43
593.89	31459.14
594.05	31601.91
594.20	30969.97
594.36	31346.79
594.52	31283.60
594.68	31435.74
594.84	31117.42
594.99	31505.95
595.15	31573.83
595.31	31615.96
595.47	31592.55
595.62	31744.69
595.78	31571.49
595.94	30916.14
596.10	31559.78
596.25	31356.16
596.41	31246.15
596.57	31365.52
596.73	31180.62
596.88	31381.90
597.04	31555.10
597.20	31328.07
597.36	31541.06
597.51	31899.16
597.67	31639.36
597.83	31466.16
597.99	31477.86
598.14	31433.39
598.30	31482.55
598.46	30937.20
598.61	31519.99
598.77	31571.49
598.93	31611.28
599.09	31625.32
599.24	31775.11
599.40	31709.58
599.56	31847.67
599.71	31491.91
599.87	31606.59
600.03	31426.37
600.18	31292.96
600.34	31627.66
600.50	31428.71
600.65	31405.31
600.81	31592.55
600.97	31482.55
601.12	31606.59
601.28	31723.62
601.44	31756.39
601.59	31721.28
601.75	31395.95
601.91	31924.91
602.06	31590.21
602.22	31166.57
602.37	31323.39
602.53	31587.87
602.69	31838.31
602.84	31431.05
603.00	31234.45
603.16	31538.72
603.31	31522.34
603.47	31653.40
603.62	31199.34
603.78	31372.54
603.94	31349.14
604.09	31381.90
604.25	31314.03
604.40	31218.07
604.56	31260.20
604.71	31585.53
604.87	31538.72
605.03	31850.01
605.18	31552.76
605.34	31236.79
605.49	31323.39
605.65	31372.54
605.80	31075.29
605.96	31213.38
606.12	31192.32
606.27	31189.98
606.43	31299.98
606.58	31543.40
606.74	31353.82
606.89	31639.36
607.05	31522.34
607.20	31747.03
607.36	31309.35
607.51	31494.25
607.67	30946.56
607.82	30862.30
607.98	31145.51
608.13	31328.07
608.29	31269.56
608.44	31407.65
608.60	31311.69
608.75	31831.29
608.91	31562.12
609.06	31103.38
609.22	31473.18
609.37	30967.63
609.53	31063.59
609.68	30838.90
609.84	30967.63
609.99	31227.43
610.15	31089.34
610.30	30829.54
610.46	31325.73
610.61	31859.37
610.76	31314.03
610.92	30852.94
611.07	31395.95
611.23	31332.75
611.38	31194.66
611.54	30796.77
611.69	31131.47
611.84	30965.29
612.00	30703.15
612.15	30984.01
612.31	30941.88
612.46	30995.71
612.62	31407.65
612.77	31115.08
612.92	31271.90
613.08	31117.42
613.23	31049.55
613.39	31042.53
613.54	30485.48
613.69	30829.54
613.85	31042.53
614.00	31084.65
614.15	30881.03
614.31	30698.47
614.46	30976.99
614.62	31482.55
614.77	31241.47
614.92	30773.36
615.08	30815.49
615.23	30675.06
615.38	31063.59
615.54	30663.36
615.69	30625.91
615.84	30511.22
616.00	30962.95
616.15	30859.96
616.30	31068.27
616.46	30520.59
616.61	30766.34
616.76	30759.32
616.92	30689.10
617.07	30834.22
617.22	30822.51
617.37	30288.87
617.53	30930.18
617.68	30518.25
617.83	30410.58
617.99	30534.63
618.14	30302.92
618.29	30401.22
618.45	30639.95
618.60	30134.40
618.75	30572.08
618.90	30710.17
619.06	30506.54
619.21	30314.62
619.36	30286.53
619.51	30204.61
619.67	30235.04
619.82	30108.65
619.97	30340.36
620.12	29874.60
620.28	30270.15
620.43	30443.35
620.58	30120.35
620.73	30604.84
620.89	30249.08
621.04	30122.69
621.19	30171.85
621.34	30148.44
621.49	30026.73
621.65	29888.64
621.80	30368.45
621.95	30134.40
622.10	30064.18
622.25	30167.16
622.41	30387.18
622.56	29762.25
622.71	30164.82
622.86	30101.63
623.01	30417.60
623.16	30113.33
623.32	29862.90
623.47	29951.84
623.62	30394.20
623.77	29752.89
623.92	29869.92
624.07	29699.06
624.23	30005.67
624.38	30029.07
624.53	30043.12
624.68	29951.84
624.83	29862.90
624.98	30314.62
625.13	29567.99
625.29	30026.73
625.44	29703.74
625.59	29696.72
625.74	29640.54
625.89	29738.85
626.04	29610.12
626.19	29701.40
626.34	29493.09
626.49	29252.02
626.65	29689.70
626.80	29668.63
626.95	29820.77
627.10	29443.94
627.25	29654.59
627.40	29401.81
627.55	29497.77
627.70	29467.34
627.85	29102.22
628.00	28961.79
628.15	29422.87
628.30	29380.74
628.45	29685.01
628.60	29362.02
628.76	29523.52
628.91	29525.86
629.06	29046.05
629.21	29188.82
629.36	28952.43
629.51	29041.37
629.66	29123.29
629.81	28973.49
629.96	29170.10
630.11	28950.09
630.26	28989.88
630.41	29151.37
630.56	29064.77
630.71	29287.12
630.86	29235.63
631.01	29118.60
631.16	29062.43
631.31	28797.95
631.46	28823.70
631.61	28968.81
631.76	28727.74
631.91	28886.89
632.06	29034.35
632.21	28753.48
632.36	28854.12
632.51	28386.02
632.66	29024.98
632.81	28659.86
632.96	28964.13
633.10	28929.02
633.25	28617.73
633.40	29387.77
633.55	28973.49
633.70	28638.80
633.85	28386.02
634.00	28739.44
634.15	28453.89
634.30	28884.55
634.45	28746.46
634.60	28582.62
634.75	28659.86
634.90	28285.37
635.05	28517.09
635.19	28739.44
635.34	29291.80
635.49	28582.62
635.64	28739.44
635.79	28755.82
635.94	28669.22
636.09	28601.35
636.24	28596.67
636.39	28379.00
636.53	28837.74
636.68	28701.99
636.83	28486.66
636.98	28601.35
637.13	28327.50
637.28	28435.17
637.43	28409.42
637.57	28643.48
637.72	28510.07
637.87	28102.81
638.02	28346.23
638.17	28526.45
638.32	28177.71
638.46	28158.99
638.61	28388.36
638.76	27889.82
638.91	27976.42
639.06	27943.66
639.20	28425.81
639.35	28477.30
639.50	28215.16
639.65	28369.63
639.80	28568.58
639.94	28023.23
640.09	28011.53
640.24	27934.29
640.39	28081.75
640.54	27976.42
640.68	27644.07
640.83	28100.47
640.98	27637.05
641.13	27358.52
641.27	28041.96
641.42	28058.34
641.57	27765.78
641.72	28196.43
641.86	27295.33
642.01	27740.03
642.16	27711.94
642.31	27826.63
642.45	27807.90
642.60	27604.28
642.75	27585.55
642.90	27276.60
643.04	27555.13
643.19	27218.09
643.34	27889.82
643.48	27363.20
643.63	27700.24
643.78	27503.64
643.93	27690.88
644.07	27828.97
644.22	27597.26
644.37	27552.79
644.51	27175.96
644.66	27585.55
644.81	27332.78
644.95	27246.18
645.10	27124.47
645.25	27421.72
645.39	27365.54
645.54	27274.26
645.69	27173.62
645.83	27377.25
645.98	27721.30
646.13	27236.81
646.27	27529.38
646.42	27529.38
646.57	27173.62
646.71	27552.79
646.86	27395.97
647.00	27353.84
647.15	27133.83
647.30	27138.51
647.44	27232.13
647.59	27435.76
647.74	27091.70
647.88	27232.13
648.03	27587.89
648.17	27103.40
648.32	27241.50
648.47	27557.47
648.61	27318.73
648.76	27283.62
648.90	27292.99
649.05	26958.29
649.20	27019.14
649.34	26946.59
649.49	26586.15
649.63	26859.99
649.78	26602.53
649.92	26457.42
650.07	27168.94
650.21	26838.92
650.36	27168.94
650.51	26602.53
650.65	26544.02
650.80	26789.77
650.94	26782.75
651.09	26775.73
651.23	26859.99
651.38	26291.24
651.52	26738.28
651.67	26810.84
651.81	26731.26
651.96	26948.93
652.10	26771.05
652.25	26473.80
652.39	27080.00
652.54	26668.06
652.68	26829.56
652.83	26754.66
652.97	26979.36
653.12	26260.81
653.26	26616.57
653.41	26515.93
653.55	26728.92
653.70	26441.03
653.84	26792.11
653.99	26614.23
654.13	26302.94
654.27	26658.70
654.42	26347.41
654.56	26518.27
654.71	26419.97
654.85	26490.18
655.00	26410.60
655.14	26136.76
655.29	26024.42
655.43	26211.66
655.57	26471.46
655.72	26295.92
655.86	26429.33
656.01	26094.63
656.15	26015.05
656.30	25902.71
656.44	25818.45
656.58	26288.90
656.73	26075.91
656.87	26162.51
657.01	26352.09
657.16	26043.14
657.30	26394.22
657.45	26010.37
657.59	26235.06
657.73	25944.84
657.88	25951.86
658.02	26239.75
658.16	25734.19
658.31	25834.83
658.45	25858.24
658.60	25958.88
658.74	25558.65
658.88	25940.16
659.03	25652.27
659.17	25905.05
659.31	25436.94
659.46	25823.13
659.60	25935.48
659.74	26029.10
659.89	25673.34
660.03	25266.08
660.17	25771.64
660.32	25390.13
660.46	25551.63
660.60	25209.91
660.74	25245.02
660.89	25432.26
661.03	25268.42
661.17	25205.23
661.32	25277.79
661.46	25584.40
661.60	25172.46
661.74	25642.91
661.89	25282.47
662.03	25319.92
662.17	25109.27
662.31	24982.88
662.46	24996.92
662.60	25448.64
662.74	24849.47
662.88	24826.06
663.03	24802.66
663.17	24830.74
663.31	24709.04
663.45	24833.08
663.60	24748.82
663.74	24547.54
663.88	24856.49
664.02	24805.00
664.17	24837.76
664.31	24725.42
664.45	24301.78
664.59	24512.43
664.73	24650.52
664.88	24484.34
665.02	24414.13
665.16	24264.33
665.30	24353.27
665.44	24514.77
665.59	24041.98
665.73	24687.97
665.87	24451.58
666.01	24184.76
666.15	24570.94
666.29	24112.20
666.44	24493.71
666.58	24006.87
666.72	23960.06
666.86	24107.52
667.00	24147.31
667.14	23756.44
667.28	23894.53
667.43	23864.10
667.57	24041.98
667.71	23608.98
667.85	23922.62
667.99	23672.18
668.13	23735.37
668.27	23955.38
668.41	24030.28
668.56	23555.15
668.70	23639.41
668.84	23857.08
668.98	23763.46
669.12	23566.85
669.26	23564.51
669.40	23311.74
669.54	23679.20
669.68	23498.98
669.82	23014.49
669.96	23133.86
670.10	23115.13
670.25	23016.83
670.39	23136.20
670.53	22988.74
670.67	23047.26
670.81	22944.27
670.95	22895.12
671.09	23105.77
671.23	23101.09
671.37	23049.60
671.51	22984.06
671.65	22963.00
671.79	23346.84
671.93	22560.42
672.07	22876.40
672.21	22764.05
672.35	22579.15
672.49	22270.20
672.63	22274.88
672.77	22490.21
672.91	22239.77
673.05	22106.36
673.19	22368.50
673.33	22441.06
673.47	22139.13
673.61	22321.69
673.75	22160.19
673.89	22118.06
674.03	22183.60
674.17	22092.32
674.31	22286.58
674.45	21947.20
674.59	22225.73
674.73	21905.07
674.87	21811.45
675.01	21694.43
675.15	21703.79
675.29	21443.99
675.43	21853.58
675.56	21696.77
675.70	21666.34
675.84	21652.30
675.98	21219.30
676.12	21661.66
676.26	21898.05
676.40	21235.68
676.54	21451.01
676.68	21366.75
676.82	20917.37
676.96	21010.99
677.10	21366.75
677.23	20992.26
677.37	20945.45
677.51	20915.03
677.65	20566.29
677.79	20751.19
677.93	20737.15
678.07	20699.70
678.21	20531.18
678.34	20795.66
678.48	20636.50
678.62	20205.84
678.76	20524.16
678.90	20271.38
679.04	20287.76
679.18	20187.12
679.31	20053.71
679.45	19941.36
679.59	20079.46
679.73	19819.66
679.87	19917.96
680.00	19791.57
680.14	19800.93
680.28	19665.18
680.42	19681.56
680.56	19761.14
680.70	19814.98
680.83	19716.67
680.97	19499.00
681.11	19616.03
681.25	19140.90
681.39	19475.60
681.52	19213.46
681.66	19089.41
681.80	19201.76
681.94	19033.24
682.07	18993.45
682.21	18995.79
682.35	18771.10
682.49	18625.98
682.62	18743.01
682.76	18623.64
682.90	18705.56
683.04	18693.86
683.17	18586.19
683.31	18860.04
683.45	18665.77
683.59	18560.45
683.72	18363.84
683.86	18347.46
684.00	18288.95
684.13	18099.36
684.27	18267.88
684.41	17792.75
684.55	17860.63
684.68	17781.05
684.82	17715.51
684.96	17855.95
685.09	17755.30
685.23	17745.94
685.37	17551.68
685.50	17692.11
685.64	17661.68
685.78	17748.28
685.91	17893.40
686.05	17696.79
686.19	17179.53
686.32	17561.04
686.46	17219.32
686.60	17057.82
686.73	17245.07
686.87	17170.17
687.01	17078.89
687.14	17099.95
687.28	16659.93
687.42	17160.81
687.55	16711.42
687.69	16819.09
687.82	16662.27
687.96	16704.40
688.10	16697.38
688.23	16762.92
688.37	16751.21
688.50	16432.90
688.64	16535.88
688.78	16622.48
688.91	16470.35
689.05	16339.28
689.18	16168.42
689.32	15756.49
689.46	16013.95
689.59	16072.46
689.73	16013.95
689.86	15833.72
690.00	15768.19
690.13	15901.60
690.27	15566.90
690.41	15712.02
690.54	15756.49
690.68	15477.96
690.81	15728.40
690.95	15784.57
691.08	15660.52
691.22	15475.62
691.35	15311.78
691.49	15484.98
691.62	15489.67
691.76	15138.58
691.89	14829.63
692.03	14801.55
692.16	14714.95
692.30	15056.67
692.43	14609.62
692.57	14876.44
692.70	14677.50
692.84	14504.30
692.97	14607.28
693.11	14710.27
693.24	14895.17
693.38	14523.02
693.51	14647.07
693.65	14424.72
693.78	14239.82
693.92	14398.98
694.05	14415.36
694.19	14073.64
694.32	14111.09
694.45	14080.66
694.59	13926.19
694.72	13809.16
694.86	13865.33
694.99	13839.59
695.13	13624.26
695.26	13689.79
695.39	13579.79
695.53	13909.80
695.66	13490.85
695.80	13614.90
695.93	13509.57
696.07	13654.69
696.20	13591.49
696.33	13392.55
696.47	13247.43
696.60	13107.00
696.73	13357.44
696.87	13238.07
697.00	13125.72
697.14	12894.01
697.27	13022.74
697.40	12849.54
697.54	12674.00
697.67	12652.94
697.80	12746.56
697.94	12737.20
698.07	12421.22
698.21	12372.07
698.34	12573.36
698.47	12723.15
698.61	12606.13
698.74	12505.48
698.87	12538.25
699.01	12292.49
699.14	12507.82
699.27	12556.97
699.40	12175.47
699.54	12088.87
699.67	12116.95
699.80	11960.14
699.94	11868.86
700.07	11763.53
700.20	11609.06
700.34	11662.89
700.47	11871.20
700.60	11665.23
700.73	11836.09
700.87	11459.26
701.00	11791.62
701.13	11618.42
701.26	11700.34
701.40	11695.66
701.53	11604.38
701.66	11414.79
701.79	11211.17
701.93	11201.80
702.06	11052.01
702.19	11225.21
702.32	11269.68
702.46	11157.33
702.59	10986.47
702.72	10729.02
702.85	10736.04
702.99	10752.42
703.12	10892.85
703.25	10635.39
703.38	10658.80
703.51	10799.23
703.65	10747.74
703.78	10780.51
703.91	10565.18
704.04	10761.78
704.17	10630.71
704.31	10448.15
704.44	10483.26
704.57	10354.53
704.70	10225.80
704.83	10394.32
704.96	10043.24
705.10	10263.25
705.23	10043.24
>>>>>End Processed Spectral Data<<<<<
