SpectraSuite Data File
++++++++++++++++++++++++++++++++++++
Date: Fri Oct 18 13:58:08 GMT-05:00 2013
User: bianchi
Dark Spectrum Present: No
Reference Spectrum Present: No
Number of Sampled Component Spectra: 1
Spectrometers: USB2+H05261
Integration Time (usec): 50000 (USB2+H05261)
Spectra Averaged: 1 (USB2+H05261)
Boxcar Smoothing: 0 (USB2+H05261)
Correct for Electrical Dark: No (USB2+H05261)
Strobe/Lamp Enabled: No (USB2+H05261)
Correct for Detector Non-linearity: No (USB2+H05261)
Correct for Stray Light: No (USB2+H05261)
Number of Pixels in Processed Spectrum: 2048
>>>>>Begin Processed Spectral Data<<<<<
365.73	0.00
365.92	0.00
366.12	0.00
366.32	0.00
366.52	0.00
366.72	0.00
366.91	0.00
367.11	0.00
367.31	0.00
367.51	0.00
367.70	0.00
367.90	0.00
368.10	0.00
368.30	0.00
368.49	0.00
368.69	0.00
368.89	0.00
369.09	0.00
369.28	0.00
369.48	0.00
369.68	0.00
369.87	0.00
370.07	0.00
370.27	0.00
370.47	63.19
370.66	88.94
370.86	107.66
371.06	145.11
371.25	98.30
371.45	88.94
371.65	205.97
371.84	182.56
372.04	161.50
372.24	168.52
372.44	166.18
372.63	184.90
372.83	234.05
373.03	163.84
373.22	229.37
373.42	166.18
373.62	217.67
373.81	245.76
374.01	290.23
374.21	266.82
374.40	264.48
374.60	234.05
374.79	234.05
374.99	264.48
375.19	238.73
375.38	191.92
375.58	278.52
375.78	273.84
375.97	304.27
376.17	231.71
376.37	285.55
376.56	320.65
376.76	276.18
376.95	283.20
377.15	241.08
377.35	276.18
377.54	278.52
377.74	292.57
377.93	269.16
378.13	248.10
378.33	262.14
378.52	248.10
378.72	278.52
378.91	334.70
379.11	367.46
379.31	313.63
379.50	276.18
379.70	351.08
379.89	222.35
380.09	283.20
380.28	318.31
380.48	238.73
380.68	320.65
380.87	259.80
381.07	390.87
381.26	353.42
381.46	330.02
381.65	308.95
381.85	360.44
382.04	351.08
382.24	360.44
382.43	379.17
382.63	346.40
382.83	383.85
383.02	402.57
383.22	379.17
383.41	332.36
383.61	404.91
383.80	433.00
384.00	404.91
384.19	437.68
384.39	372.15
384.58	493.85
384.78	344.06
384.97	402.57
385.17	416.62
385.36	411.93
385.56	379.17
385.75	369.80
385.95	461.09
386.14	421.30
386.34	423.64
386.53	393.21
386.72	376.83
386.92	374.49
387.11	379.17
387.31	425.98
387.50	416.62
387.70	444.70
387.89	407.25
388.09	458.74
388.28	468.11
388.48	454.06
388.67	561.73
388.86	526.62
389.06	465.77
389.25	550.03
389.45	463.43
389.64	444.70
389.84	475.13
390.03	540.66
390.22	510.24
390.42	451.72
390.61	454.06
390.81	592.16
391.00	543.00
391.19	510.24
391.39	566.41
391.58	503.22
391.78	519.60
391.97	528.96
392.16	477.47
392.36	594.50
392.55	557.05
392.75	606.20
392.94	561.73
393.13	587.47
393.33	517.26
393.52	566.41
393.71	688.12
393.91	629.60
394.10	601.52
394.29	554.71
394.49	470.45
394.68	601.52
394.88	589.82
395.07	629.60
395.26	692.80
395.46	653.01
395.65	664.71
395.84	622.58
396.04	709.18
396.23	767.70
396.42	664.71
396.62	695.14
396.81	669.39
397.00	650.67
397.19	594.50
397.39	627.26
397.58	704.50
397.77	723.23
397.97	599.18
398.16	784.08
398.35	704.50
398.55	599.18
398.74	690.46
398.93	765.36
399.12	599.18
399.32	772.38
399.51	629.60
399.70	763.01
399.90	788.76
400.09	791.10
400.28	716.20
400.47	767.70
400.67	779.40
400.86	779.40
401.05	788.76
401.24	835.57
401.44	788.76
401.63	819.19
401.82	854.30
402.01	791.10
402.21	861.32
402.40	800.46
402.59	873.02
402.78	866.00
402.97	910.47
403.17	873.02
403.36	868.34
403.55	954.94
403.74	816.85
403.93	929.19
404.13	1008.77
404.32	997.07
404.51	903.45
404.70	924.51
404.89	917.49
405.09	999.41
405.28	912.81
405.47	1050.90
405.66	922.17
405.85	933.87
406.05	954.94
406.24	1107.07
406.43	1029.84
406.62	1074.31
406.81	1076.65
407.00	931.53
407.20	985.37
407.39	1057.92
407.58	1001.75
407.77	1074.31
407.96	1109.41
408.15	1011.11
408.34	1032.18
408.54	1083.67
408.73	1125.80
408.92	1170.27
409.11	1165.59
409.30	1177.29
409.49	1090.69
409.68	1053.24
409.87	1050.90
410.07	1186.65
410.26	1163.25
410.45	1235.80
410.64	1259.21
410.83	1308.36
411.02	1172.61
411.21	1261.55
411.40	1238.14
411.59	1303.68
411.78	1308.36
411.98	1268.57
412.17	1219.42
412.36	1245.16
412.55	1364.53
412.74	1294.32
412.93	1348.15
413.12	1392.62
413.31	1324.74
413.50	1397.30
413.69	1490.92
413.88	1383.26
414.07	1530.71
414.26	1544.75
414.45	1493.26
414.64	1558.80
414.83	1497.94
415.02	1474.54
415.22	1472.20
415.41	1600.93
415.60	1563.48
415.79	1640.72
415.98	1610.29
416.17	1561.14
416.36	1605.61
416.55	1514.33
416.74	1715.61
416.93	1650.08
417.12	1610.29
417.31	1753.06
417.50	1713.27
417.69	1727.32
417.88	1785.83
418.07	1750.72
418.26	1785.83
418.45	1717.95
418.64	1790.51
418.83	1837.32
419.02	1785.83
419.21	1891.15
419.39	1776.47
419.58	1816.26
419.77	1832.64
419.96	1916.90
420.15	1865.41
420.34	1792.85
420.53	1839.66
420.72	1781.15
420.91	1996.48
421.10	1902.86
421.29	2069.03
421.48	1980.09
421.67	2052.65
421.86	1996.48
422.05	2024.56
422.24	1987.11
422.43	1959.03
422.61	2050.31
422.80	1921.58
422.99	2047.97
423.18	2132.23
423.37	2118.18
423.56	2097.12
423.75	2097.12
423.94	2043.29
424.13	1877.11
424.32	1914.56
424.50	2087.76
424.69	2052.65
424.88	2148.61
425.07	1973.07
425.26	1930.94
425.45	2057.33
425.64	2111.16
425.83	2085.42
426.01	2038.61
426.20	1977.75
426.39	2094.78
426.58	2069.03
426.77	2129.89
426.96	2094.78
427.15	2122.87
427.33	2127.55
427.52	2193.08
427.71	2146.27
427.90	2113.50
428.09	2267.98
428.28	2193.08
428.46	2228.19
428.65	2136.91
428.84	2202.44
429.03	2340.54
429.22	2211.81
429.40	2300.75
429.59	2286.70
429.78	2186.06
429.97	2207.13
430.16	2298.41
430.34	2328.83
430.53	2214.15
430.72	2317.13
430.91	2286.70
431.10	2326.49
431.28	2305.43
431.47	2321.81
431.66	2408.41
431.85	2385.01
432.03	2546.50
432.22	2579.27
432.41	2441.18
432.60	2478.63
432.79	2429.48
432.97	2459.90
433.16	2516.08
433.35	2443.52
433.54	2551.18
433.72	2558.21
433.91	2452.88
434.10	2541.82
434.28	2553.52
434.47	2656.51
434.66	2677.57
434.85	2693.96
435.03	2597.99
435.22	2597.99
435.41	2820.35
435.59	2775.88
435.78	2778.22
435.97	2663.53
436.16	2766.51
436.34	2689.28
436.53	2867.16
436.72	2869.50
436.90	2672.89
437.09	2773.53
437.28	2745.45
437.46	2864.82
437.65	2803.96
437.84	2771.19
438.02	2963.12
438.21	2799.28
438.40	2743.11
438.58	2902.26
438.77	2958.44
438.96	2899.92
439.14	2881.20
439.33	3019.29
439.52	3007.59
439.70	3066.10
439.89	3084.83
440.08	3087.17
440.26	3117.59
440.45	3052.06
440.63	3059.08
440.82	3082.49
441.01	3206.53
441.19	3084.83
441.38	3199.51
441.57	3262.71
441.75	3236.96
441.94	3330.58
442.12	3178.45
442.31	3398.46
442.50	3370.37
442.68	3335.26
442.87	3361.01
443.05	3356.33
443.24	3325.90
443.43	3485.06
443.61	3447.61
443.80	3632.51
443.98	3361.01
444.17	3269.73
444.35	3393.78
444.54	3517.83
444.73	3655.92
444.91	3489.74
445.10	3461.65
445.28	3456.97
445.47	3485.06
445.65	3414.84
445.84	3496.76
446.02	3449.95
446.21	3517.83
446.39	3487.40
446.58	3508.46
446.77	3517.83
446.95	3541.23
447.14	3466.33
447.32	3688.68
447.51	3513.14
447.69	3534.21
447.88	3494.42
448.06	3513.14
448.25	3466.33
448.43	3684.00
448.62	3515.48
448.80	3520.17
448.99	3627.83
449.17	3646.55
449.36	3583.36
449.54	3723.79
449.73	3585.70
449.91	3667.62
450.10	3702.73
450.28	3929.76
450.46	3674.64
450.65	3705.07
450.83	3768.26
451.02	3953.16
451.20	3719.11
451.39	3843.16
451.57	3698.05
451.76	3789.33
451.94	3836.14
452.13	3960.19
452.31	3859.54
452.49	3962.53
452.68	3985.93
452.86	3936.78
453.05	3885.29
453.23	3845.50
453.42	3922.74
453.60	3880.61
453.78	3985.93
453.97	3934.44
454.15	3974.23
454.34	3880.61
454.52	4023.38
454.70	4039.76
454.89	4079.55
455.07	4117.00
455.26	3974.23
455.44	4194.24
455.62	4119.34
455.81	4049.13
455.99	4217.65
456.17	4248.07
456.36	4138.07
456.54	4236.37
456.73	4161.47
456.91	4355.74
457.09	4273.82
457.28	4297.22
457.46	4374.46
457.64	4395.53
457.83	4491.49
458.01	4322.97
458.19	4519.57
458.38	4376.80
458.56	4435.32
458.74	4447.02
458.93	4348.72
459.11	4465.74
459.29	4650.64
459.48	4470.42
459.66	4484.47
459.84	4500.85
460.03	4578.09
460.21	4531.28
460.39	4662.35
460.57	4624.90
460.76	4596.81
460.94	4725.54
461.12	4704.48
461.31	4617.88
461.49	4667.03
461.67	4837.89
461.85	4762.99
462.04	4873.00
462.22	4924.49
462.40	4629.58
462.59	4865.97
462.77	4833.21
462.95	4706.82
463.13	4877.68
463.32	4844.91
463.50	4947.89
463.68	4805.12
463.86	4959.60
464.05	5029.81
464.23	4940.87
464.41	4961.94
464.59	4652.98
464.78	5027.47
464.96	4894.06
465.14	4926.83
465.32	5146.84
465.50	5153.86
465.69	5153.86
465.87	5020.45
466.05	5060.24
466.23	4990.02
466.41	5095.35
466.60	5069.60
466.78	5104.71
466.96	5125.77
467.14	4992.36
467.32	5050.88
467.51	5172.58
467.69	5076.62
467.87	5397.28
468.05	5280.25
468.23	5015.77
468.41	5076.62
468.60	5207.69
468.78	5291.95
468.96	5252.16
469.14	5376.21
469.32	5448.77
469.50	5217.05
469.69	5348.12
469.87	5565.79
470.05	5558.77
470.23	5540.05
470.41	5495.58
470.59	5439.40
470.77	5472.17
470.95	5495.58
471.14	5617.29
471.32	5497.92
471.50	5748.36
471.68	5722.61
471.86	5661.76
472.04	5762.40
472.22	5926.24
472.40	5570.48
472.58	5675.80
472.77	5738.99
472.95	6026.88
473.13	6157.95
473.31	5928.58
473.49	5968.37
473.67	6038.58
473.85	5921.56
474.03	6216.46
474.21	5987.09
474.39	6043.26
474.57	6258.59
474.75	6162.63
474.93	6335.83
475.12	6228.17
475.30	6321.79
475.48	6225.82
475.66	6401.37
475.84	6403.71
476.02	6310.08
476.20	6401.37
476.38	6619.04
476.56	6581.59
476.74	6590.95
476.92	6572.22
477.10	6600.31
477.28	6675.21
477.46	6693.93
477.64	6883.52
477.82	6878.83
478.00	7143.32
478.18	6789.89
478.36	6937.35
478.54	7091.82
478.72	7272.04
478.90	7262.68
479.08	7302.47
479.26	7379.71
479.44	7255.66
479.62	7449.93
479.80	7583.34
479.98	7494.40
480.16	7564.61
480.34	7517.80
480.52	7850.16
480.70	7625.47
480.88	7681.64
481.06	7786.96
481.24	7852.50
481.41	7747.17
481.59	8025.70
481.77	8168.47
481.95	8114.64
482.13	8212.94
482.31	8301.88
482.49	8549.98
482.67	8360.39
482.85	8514.87
483.03	8531.25
483.21	8528.91
483.39	8568.70
483.57	8690.41
483.74	8802.75
483.92	8872.97
484.10	8681.05
484.28	8961.91
484.46	9247.46
484.64	9245.12
484.82	9128.09
485.00	9135.11
485.18	9310.65
485.35	9404.27
485.53	9598.54
485.71	9476.83
485.89	9610.24
486.07	9633.64
486.25	9781.10
486.43	9671.09
486.61	9710.88
486.78	10066.64
486.96	10143.88
487.14	10387.30
487.32	10221.12
487.50	10434.11
487.68	10443.47
487.85	10602.63
488.03	10743.06
488.21	10647.10
488.39	10789.87
488.57	10871.79
488.75	10897.53
488.92	10960.73
489.10	11002.86
489.28	11140.95
489.46	11337.56
489.64	11279.04
489.81	11428.84
489.99	11597.35
490.17	11613.74
490.35	11604.38
490.53	11693.32
490.70	11925.03
490.88	11992.90
491.06	12044.40
491.24	11983.54
491.41	11969.50
491.59	12088.87
491.77	12201.21
491.95	12287.81
492.13	12301.86
492.30	12411.86
492.48	12383.77
492.66	12449.31
492.84	12627.19
493.01	12732.51
493.19	12877.63
493.37	12933.80
493.54	12936.14
493.72	13015.72
493.90	12856.56
494.08	13455.74
494.25	13231.05
494.43	13207.64
494.61	13366.80
494.79	13493.19
494.96	13394.89
495.14	13481.49
495.32	13504.89
495.49	13774.05
495.67	14122.79
495.85	13591.49
496.02	14008.11
496.20	14169.60
496.38	14239.82
496.55	14277.27
496.73	14560.47
496.91	14555.79
497.09	14539.41
497.26	14586.22
497.44	14469.19
497.62	14909.21
497.79	14745.38
497.97	14799.21
498.14	14930.28
498.32	14986.45
498.50	15000.49
498.67	15360.94
498.85	15213.48
499.03	15314.13
499.20	15124.54
499.38	15414.77
499.56	15363.28
499.73	15484.98
499.91	15606.69
500.08	15576.27
500.26	15449.88
500.44	15950.75
500.61	15925.00
500.79	15955.43
500.97	15990.54
501.14	16065.44
501.32	16304.17
501.49	16350.98
501.67	16079.48
501.84	15990.54
502.02	16278.43
502.20	16453.97
502.37	16393.11
502.55	16395.45
502.72	16442.26
502.90	16479.71
503.07	16528.86
503.25	16425.88
503.43	16671.64
503.60	16901.01
503.78	16891.65
503.95	16704.40
504.13	17099.95
504.30	16936.12
504.48	16800.37
504.65	17018.04
504.83	17151.45
505.01	17022.72
505.18	17322.30
505.36	17334.01
505.53	17214.64
505.71	17249.75
505.88	17322.30
506.06	17427.63
506.23	17635.94
506.41	17652.32
506.58	17584.44
506.76	17554.02
506.93	17671.04
507.11	17673.39
507.28	17991.70
507.46	17696.79
507.63	17905.10
507.81	18106.38
507.98	17972.97
508.16	18043.19
508.33	17956.59
508.50	18118.09
508.68	18434.06
508.85	18373.21
509.03	18211.71
509.20	18359.16
509.38	18441.08
509.55	18754.71
509.73	18471.51
509.90	18649.39
510.08	18789.82
510.25	18658.75
510.42	18621.30
510.60	18991.11
510.77	19073.03
510.95	18986.43
511.12	18857.70
511.30	18984.09
511.47	19040.26
511.64	18796.84
511.82	19211.12
511.99	19297.72
512.17	19243.88
512.34	19412.40
512.51	19300.06
512.69	19681.56
512.86	19594.96
513.04	19822.00
513.21	19665.18
513.38	19908.60
513.56	19875.83
513.73	19573.90
513.90	19901.58
514.08	19637.09
514.25	19910.94
514.43	20002.22
514.60	20135.63
514.77	20313.51
514.95	20205.84
515.12	20084.14
515.29	20009.24
515.47	20432.88
515.64	20404.79
515.81	20711.40
515.99	20439.90
516.16	20620.12
516.33	20655.23
516.51	20582.67
516.68	20727.78
516.85	20563.95
517.03	20683.31
517.20	20594.37
517.37	20870.56
517.54	20851.83
517.72	21135.04
517.89	20982.90
518.06	20847.15
518.24	21006.31
518.41	20924.39
518.58	21413.56
518.75	21053.12
518.93	21289.51
519.10	21284.83
519.27	21617.19
519.45	21116.31
519.62	21542.29
519.79	21586.76
519.96	21362.07
520.14	21352.71
520.31	21553.99
520.48	21703.79
520.65	21710.81
520.83	22038.48
521.00	21727.19
521.17	21947.20
521.34	22038.48
521.52	21792.73
521.69	21490.80
521.86	22260.84
522.03	22052.53
522.20	22094.66
522.38	22288.92
522.55	21958.91
522.72	22345.09
522.89	22008.06
523.07	22628.30
523.24	22253.81
523.41	22951.29
523.58	22354.46
523.75	22581.49
523.92	22319.35
524.10	22312.33
524.27	22354.46
524.44	22679.79
524.61	23033.21
524.78	23096.41
524.96	22668.09
525.13	22960.66
525.30	22970.02
525.47	22845.97
525.64	22815.54
525.81	23049.60
525.98	23503.66
526.16	23122.15
526.33	23311.74
526.50	23281.31
526.67	22890.44
526.84	23433.44
527.01	23309.40
527.18	23447.49
527.36	23562.17
527.53	23335.14
527.70	23786.86
527.87	23761.12
528.04	23302.37
528.21	23728.35
528.38	23538.77
528.55	23683.88
528.72	23840.70
528.89	23969.43
529.07	23634.73
529.24	23655.79
529.41	23737.71
529.58	23990.49
529.75	23756.44
529.92	23861.76
530.09	24091.13
530.26	23878.15
530.43	24329.87
530.60	23875.80
530.77	24222.20
530.94	24109.86
531.11	24081.77
531.28	24144.97
531.46	24400.08
531.63	24428.17
531.80	24617.75
531.97	24411.79
532.14	24467.96
532.31	24535.84
532.48	24210.50
532.65	24666.91
532.82	24388.38
532.99	24851.81
533.16	24421.15
533.33	24629.46
533.50	24793.29
533.67	24968.84
533.84	24521.79
534.01	24592.01
534.18	24723.08
534.35	24971.18
534.52	24676.27
534.69	24814.36
534.86	24915.00
535.03	24797.98
535.20	24989.90
535.37	25226.29
535.54	24919.68
535.71	24954.79
535.88	25338.64
536.05	25179.48
536.22	25488.43
536.38	25369.07
536.55	25656.95
536.72	25223.95
536.89	25682.70
537.06	25535.24
537.23	25628.87
537.40	25497.80
537.57	25891.01
537.74	25427.58
537.91	25855.90
538.08	25928.45
538.25	25462.69
538.42	25661.63
538.59	25923.77
538.75	25844.20
538.92	25923.77
539.09	25736.53
539.26	25661.63
539.43	25958.88
539.60	25848.88
539.77	26089.95
539.94	26082.93
540.11	26249.11
540.28	26040.80
540.44	25909.73
540.61	26316.98
540.78	26017.40
540.95	26331.03
541.12	25788.02
541.29	26068.89
541.46	26087.61
541.62	25989.31
541.79	26717.22
541.96	26293.58
542.13	26244.43
542.30	26295.92
542.47	26735.94
542.63	26661.04
542.80	26712.53
542.97	26941.91
543.14	26691.47
543.31	26731.26
543.48	27054.25
543.64	27344.48
543.81	27047.23
543.98	27014.46
544.15	27030.85
544.32	27215.75
544.48	27573.85
544.65	27164.26
544.82	26867.01
544.99	26504.23
545.16	26719.56
545.32	27204.05
545.49	27267.24
545.66	27096.38
545.83	27026.17
546.00	27550.45
546.16	27447.46
546.33	27115.11
546.50	27164.26
546.67	27498.95
546.83	27297.67
547.00	27606.62
547.17	27346.82
547.34	27585.55
547.50	27386.61
547.67	27749.39
547.84	27445.12
548.00	27625.34
548.17	27843.01
548.34	27981.10
548.51	27594.92
548.67	27817.27
548.84	27903.87
549.01	27728.33
549.18	27845.35
549.34	27763.43
549.51	27562.15
549.68	27482.57
549.84	27583.21
550.01	27882.80
550.18	27428.74
550.34	27871.10
550.51	28065.36
550.68	27878.12
550.84	27742.37
551.01	28240.90
551.18	28058.34
551.34	27999.83
551.51	28093.45
551.68	28044.30
551.84	28252.61
552.01	28016.21
552.18	28240.90
552.34	28264.31
552.51	28006.85
552.68	28292.40
552.84	28577.94
553.01	28418.78
553.18	28315.80
553.34	28311.12
553.51	28142.60
553.67	28783.91
553.84	28563.90
554.01	28687.95
554.17	28716.03
554.34	28114.52
554.51	28304.10
554.67	28961.79
554.84	28575.60
555.00	28893.91
555.17	28697.31
555.33	28500.70
555.50	28701.99
555.67	28470.28
555.83	28528.79
556.00	28872.85
556.16	28950.09
556.33	28896.25
556.50	28753.48
556.66	29209.89
556.83	29188.82
556.99	29088.18
557.16	29158.39
557.32	28856.46
557.49	28987.53
557.65	29015.62
557.82	29046.05
557.98	29336.27
558.15	28891.57
558.32	29146.69
558.48	29102.22
558.65	29221.59
558.81	29413.51
558.98	29542.24
559.14	28917.32
559.31	28919.66
559.47	29474.37
559.64	29209.89
559.80	29359.68
559.97	29240.31
560.13	29212.23
560.30	29682.67
560.46	29659.27
560.63	29352.66
560.79	29408.83
560.96	29233.29
561.12	29343.30
561.29	29116.26
561.45	29401.81
561.61	29439.26
561.78	29460.32
561.94	29511.81
562.11	29582.03
562.27	29579.69
562.44	29514.16
562.60	29528.20
562.77	29867.58
562.93	29504.79
563.10	29579.69
563.26	29553.94
563.42	29851.19
563.59	29762.25
563.75	29734.17
563.92	29537.56
564.08	29673.31
564.24	29687.36
564.41	29631.18
564.57	29317.55
564.74	29832.47
564.90	29504.79
565.07	29848.85
565.23	30040.78
565.39	29846.51
565.56	30099.29
565.72	29350.32
565.88	29635.86
566.05	29404.15
566.21	29811.40
566.38	29465.00
566.54	29748.21
566.70	29745.87
566.87	30019.71
567.03	29696.72
567.19	30066.52
567.36	29837.15
567.52	30040.78
567.68	29986.94
567.85	29778.64
568.01	29909.71
568.17	29493.09
568.34	30176.53
568.50	29663.95
568.66	30235.04
568.83	30204.61
568.99	30412.92
569.15	30122.69
569.32	30422.28
569.48	29593.73
569.64	30209.29
569.81	30305.26
569.97	30387.18
570.13	30050.14
570.30	29806.72
570.46	30405.90
570.62	29879.28
570.78	29895.66
570.95	30085.25
571.11	30267.81
571.27	30181.21
571.43	30050.14
571.60	30022.05
571.76	30384.83
571.92	30230.36
572.09	30455.05
572.25	30309.94
572.41	30323.98
572.57	30143.76
572.74	30225.68
572.90	30223.34
573.06	30078.22
573.22	29993.97
573.38	30419.94
573.55	29883.96
573.71	30576.76
573.87	30244.40
574.03	29982.26
574.20	30316.96
574.36	30103.97
574.52	29968.22
574.68	30188.23
574.84	30258.45
575.01	30520.59
575.17	30340.36
575.33	30153.12
575.49	30256.11
575.65	30244.40
575.82	30377.81
575.98	30080.56
576.14	30064.18
576.30	30567.40
576.46	30085.25
576.62	30146.10
576.79	30679.74
576.95	30405.90
577.11	30555.69
577.27	30661.02
577.43	30103.97
577.59	30197.59
577.75	30462.07
577.92	30085.25
578.08	30263.13
578.24	30178.87
578.40	30363.77
578.56	30611.87
578.72	30354.41
578.88	30637.61
579.04	30436.33
579.21	30567.40
579.37	30686.76
579.53	30354.41
579.69	30164.82
579.85	30239.72
580.01	30438.67
580.17	30541.65
580.33	30696.13
580.49	30284.19
580.65	30443.35
580.82	30155.46
580.98	30595.48
581.14	30412.92
581.30	30555.69
581.46	30204.61
581.62	30415.26
581.78	30382.49
581.94	30206.95
582.10	30494.84
582.26	30588.46
582.42	30497.18
582.58	30501.86
582.74	30761.66
582.90	30525.27
583.06	30710.17
583.22	30366.11
583.38	30649.32
583.54	30632.93
583.70	30551.01
583.86	30888.05
584.02	30218.66
584.18	30661.02
584.34	30670.38
584.50	30738.26
584.66	30167.16
584.82	30415.26
584.98	30499.52
585.14	30281.85
585.30	30314.62
585.46	30260.79
585.62	30071.20
585.78	30370.79
585.94	30443.35
586.10	30691.44
586.26	30635.27
586.42	30721.87
586.58	30904.43
586.74	30359.09
586.90	30235.04
587.06	30251.42
587.22	30277.17
587.38	30698.47
587.54	30876.35
587.70	31126.78
587.86	30738.26
588.02	30962.95
588.18	30731.23
588.34	30583.78
588.49	30490.16
588.65	30473.78
588.81	30806.13
588.97	31047.21
589.13	30714.85
589.29	30759.32
589.45	30738.26
589.61	30782.73
589.77	31412.33
589.93	30857.62
590.08	30993.37
590.24	31241.47
590.40	30794.43
590.56	31049.55
590.72	31000.40
590.88	30410.58
591.04	30632.93
591.20	30806.13
591.35	31051.89
591.51	31299.98
591.67	31122.10
591.83	30902.09
591.99	31295.30
592.15	31239.13
592.31	30773.36
592.46	30429.30
592.62	31126.78
592.78	30728.89
592.94	30810.81
593.10	31267.22
593.26	31211.04
593.41	31079.97
593.57	31239.13
593.73	31115.08
593.89	31400.63
594.05	31061.25
594.20	31110.40
594.36	30593.14
594.52	30628.25
594.68	30785.07
594.84	30801.45
594.99	30848.26
595.15	30700.81
595.31	31218.07
595.47	31262.54
595.62	30979.33
595.78	31304.67
595.94	31311.69
596.10	31079.97
596.25	30916.14
596.41	31147.85
596.57	30988.69
596.73	31115.08
596.88	31089.34
597.04	30885.71
597.20	31435.74
597.36	31641.70
597.51	31562.12
597.67	31236.79
597.83	31147.85
597.99	31122.10
598.14	31384.24
598.30	30913.80
598.46	30841.24
598.61	30969.97
598.77	31220.41
598.93	31438.08
599.09	31402.97
599.24	31292.96
599.40	31414.67
599.56	31194.66
599.71	31349.14
599.87	31189.98
600.03	31112.74
600.18	31304.67
600.34	31211.04
600.50	30719.53
600.65	31070.61
600.81	31094.02
600.97	31112.74
601.12	31285.94
601.28	31349.14
601.44	31697.88
601.59	31349.14
601.75	31047.21
601.91	31365.52
602.06	31440.42
602.22	31276.58
602.37	31145.51
602.53	31250.83
602.69	31433.39
602.84	31302.32
603.00	31234.45
603.16	31239.13
603.31	31292.96
603.47	31037.84
603.62	31019.12
603.78	31421.69
603.94	31328.07
604.09	31475.52
604.25	31253.17
604.40	31232.11
604.56	31112.74
604.71	31695.53
604.87	31091.68
605.03	31519.99
605.18	31452.12
605.34	31236.79
605.49	30913.80
605.65	31311.69
605.80	30925.50
605.96	30836.56
606.12	31058.91
606.27	31204.02
606.43	30831.88
606.58	31246.15
606.74	30984.01
606.89	31316.37
607.05	31372.54
607.20	31611.28
607.36	30988.69
607.51	30885.71
607.67	30918.48
607.82	30810.81
607.98	30829.54
608.13	31089.34
608.29	31042.53
608.44	30824.86
608.60	30888.05
608.75	31339.77
608.91	30976.99
609.06	31131.47
609.22	31112.74
609.37	31028.48
609.53	31087.00
609.68	30871.67
609.84	30705.49
609.99	30925.50
610.15	30644.63
610.30	31016.78
610.46	31197.00
610.61	30815.49
610.76	30841.24
610.92	30843.58
611.07	30756.98
611.23	31051.89
611.38	30749.96
611.54	30878.69
611.69	30864.64
611.84	30796.77
612.00	30632.93
612.15	30508.88
612.31	31000.40
612.46	30848.26
612.62	30899.75
612.77	30661.02
612.92	30654.00
613.08	30930.18
613.23	30897.41
613.39	30906.77
613.54	30565.06
613.69	30927.84
613.85	30398.88
614.00	30621.23
614.15	30511.22
614.31	30422.28
614.46	30630.59
614.62	30562.72
614.77	30665.70
614.92	30759.32
615.08	31133.81
615.23	30469.09
615.38	30408.24
615.54	30405.90
615.69	30611.87
615.84	30412.92
616.00	30534.63
616.15	30480.80
616.30	30579.10
616.46	30239.72
616.61	30419.94
616.76	30529.95
616.92	30590.80
617.07	30600.16
617.22	30602.50
617.37	30146.10
617.53	30469.09
617.68	29914.39
617.83	30019.71
617.99	30321.64
618.14	30071.20
618.29	29769.27
618.45	30433.99
618.60	30197.59
618.75	30176.53
618.90	30022.05
619.06	30377.81
619.21	30143.76
619.36	30178.87
619.51	29926.09
619.67	29848.85
619.82	30019.71
619.97	30045.46
620.12	29804.38
620.28	30050.14
620.43	30064.18
620.58	30174.19
620.73	30265.47
620.89	30099.29
621.04	30036.09
621.19	30223.34
621.34	29874.60
621.49	29685.01
621.65	30003.33
621.80	29921.41
621.95	29647.57
622.10	29727.14
622.25	29762.25
622.41	30005.67
622.56	30068.86
622.71	29741.19
622.86	29647.57
623.01	29764.59
623.16	29570.33
623.32	29469.69
623.47	29511.81
623.62	29869.92
623.77	29778.64
623.92	29834.81
624.07	29692.04
624.23	29759.91
624.38	29537.56
624.53	29544.58
624.68	29486.07
624.83	29745.87
624.98	29851.19
625.13	29638.20
625.29	29530.54
625.44	29556.28
625.59	29668.63
625.74	29703.74
625.89	29575.01
626.04	29156.05
626.19	29729.48
626.34	29191.16
626.49	29383.09
626.65	29186.48
626.80	29436.92
626.95	29090.52
627.10	29301.17
627.25	29392.45
627.40	29134.99
627.55	28914.98
627.70	29181.80
627.85	29050.73
628.00	28879.87
628.15	28893.91
628.30	29179.46
628.45	29067.11
628.60	28751.14
628.76	29104.56
628.91	29226.27
629.06	28985.19
629.21	28966.47
629.36	28767.52
629.51	28821.36
629.66	29055.41
629.81	28968.81
629.96	28842.42
630.11	28566.24
630.26	29085.84
630.41	28624.75
630.56	29024.98
630.71	29221.59
630.86	28629.43
631.01	28837.74
631.16	29207.55
631.31	28470.28
631.46	28716.03
631.61	29240.31
631.76	28669.22
631.91	28795.61
632.06	29067.11
632.21	28580.28
632.36	28692.63
632.51	28683.27
632.66	28634.11
632.81	28678.58
632.96	28411.76
633.10	28772.21
633.25	28582.62
633.40	28346.23
633.55	28624.75
633.70	28531.13
633.85	28217.50
634.00	28418.78
634.15	28474.96
634.30	28280.69
634.45	28577.94
634.60	28727.74
634.75	28343.89
634.90	28198.77
635.05	28383.68
635.19	28156.64
635.34	28524.11
635.49	28631.77
635.64	28545.17
635.79	28458.57
635.94	28376.66
636.09	28025.57
636.24	27985.79
636.39	28210.48
636.53	28203.46
636.68	27765.78
636.83	28208.14
636.98	28247.93
637.13	28013.87
637.28	28180.05
637.43	28474.96
637.57	28210.48
637.72	28140.26
637.87	28311.12
638.02	28063.02
638.17	28250.27
638.32	27733.01
638.46	27885.14
638.61	27974.08
638.76	27356.18
638.91	27889.82
639.06	27477.89
639.20	28119.20
639.35	27669.81
639.50	27828.97
639.65	27901.53
639.80	27819.61
639.94	27866.42
640.09	28102.81
640.24	27723.65
640.39	27644.07
640.54	27353.84
640.68	27295.33
640.83	27527.04
640.98	27253.20
641.13	27555.13
641.27	27627.68
641.42	27854.72
641.57	27456.82
641.72	27864.08
641.86	27480.23
642.01	27623.00
642.16	27716.62
642.31	27583.21
642.45	27300.01
642.60	27470.87
642.75	27545.76
642.90	27269.58
643.04	27257.88
643.19	27211.07
643.34	27395.97
643.48	27496.61
643.63	27187.66
643.78	27552.79
643.93	27487.25
644.07	27648.75
644.22	27047.23
644.37	27150.21
644.51	27386.61
644.66	27543.42
644.81	27164.26
644.95	27264.90
645.10	27042.55
645.25	27229.79
645.39	27044.89
645.54	26995.74
645.69	27056.59
645.83	27049.57
645.98	27419.38
646.13	27131.49
646.27	27108.08
646.42	26995.74
646.57	26986.38
646.71	26850.63
646.86	26801.47
647.00	27089.36
647.15	26986.38
647.30	27124.47
647.44	26913.82
647.59	26703.17
647.74	27080.00
647.88	27103.40
648.03	27037.87
648.17	27292.99
648.32	26829.56
648.47	26984.04
648.61	26845.94
648.76	26749.98
648.90	26555.72
649.05	26974.67
649.20	26635.30
649.34	26625.93
649.49	26377.84
649.63	26586.15
649.78	26551.04
649.92	26607.21
650.07	26569.76
650.21	26609.55
650.36	26845.94
650.51	26639.98
650.65	26574.44
650.80	26588.49
650.94	26611.89
651.09	26298.26
651.23	26256.13
651.38	26415.29
651.52	26417.63
651.67	26347.41
651.81	26366.13
651.96	26455.08
652.10	26422.31
652.25	26237.41
652.39	26476.14
652.54	26277.19
652.68	26422.31
652.83	26647.00
652.97	26555.72
653.12	26080.59
653.26	26178.89
653.41	26366.13
653.55	26366.13
653.70	26209.32
653.84	26216.34
653.99	26087.61
654.13	26504.23
654.27	26057.18
654.42	25799.73
654.56	26309.96
654.71	26370.82
654.85	26398.90
655.00	26305.28
655.14	26375.50
655.29	25809.09
655.43	25862.92
655.57	25668.66
655.72	25923.77
655.86	25998.67
656.01	26071.23
656.15	25858.24
656.30	25855.90
656.44	25813.77
656.58	25717.81
656.73	25816.11
656.87	25675.68
657.01	25947.18
657.16	25631.21
657.30	25989.31
657.45	25986.97
657.59	25986.97
657.73	25326.94
657.88	25823.13
658.02	25781.00
658.16	25422.90
658.31	25411.20
658.45	25516.52
658.60	25373.75
658.74	25390.13
658.88	25359.70
659.03	25399.49
659.17	25390.13
659.31	25415.88
659.46	25181.82
659.60	25362.04
659.74	25256.72
659.89	25249.70
660.03	24985.22
660.17	25373.75
660.32	25125.65
660.46	25163.10
660.60	25160.76
660.74	25259.06
660.89	25507.16
661.03	24624.78
661.17	24606.05
661.32	25294.17
661.46	25568.01
661.60	25289.49
661.74	25305.87
661.89	25153.74
662.03	24669.25
662.17	24985.22
662.31	24851.81
662.46	24779.25
662.60	24816.70
662.74	24561.58
662.88	24807.34
663.03	24542.86
663.17	24552.22
663.31	24180.07
663.45	24512.43
663.60	24465.62
663.74	24379.02
663.88	24334.55
664.02	24191.78
664.17	24905.64
664.31	24463.28
664.45	24599.03
664.59	24482.00
664.73	24116.88
664.88	24219.86
665.02	24074.75
665.16	24053.69
665.30	23929.64
665.44	24063.05
665.59	23597.28
665.73	23751.76
665.87	23747.08
666.01	24013.90
666.15	24163.69
666.29	23941.34
666.44	23688.56
666.58	23910.91
666.72	23679.20
666.86	24018.58
667.00	24046.66
667.14	23749.42
667.28	23658.14
667.43	23613.66
667.57	23814.95
667.71	23889.85
667.85	23510.68
667.99	23435.78
668.13	23215.77
668.27	23737.71
668.41	23543.45
668.56	23253.22
668.70	23601.96
668.84	23566.85
668.98	23384.29
669.12	23426.42
669.26	23742.39
669.40	23236.84
669.54	23400.68
669.68	23175.98
669.82	22981.72
669.96	23178.33
670.10	22913.84
670.25	23328.12
670.39	22981.72
670.53	22897.46
670.67	22726.60
670.81	22979.38
670.95	22712.56
671.09	22663.41
671.23	22836.61
671.37	23091.73
671.51	22485.53
671.65	22574.47
671.79	22565.10
671.93	22391.91
672.07	22735.96
672.21	22499.57
672.35	22539.36
672.49	22204.66
672.63	22583.83
672.77	21930.82
672.91	22239.77
673.05	22214.02
673.19	21947.20
673.33	21942.52
673.47	22270.20
673.61	21937.84
673.75	22143.81
673.89	22167.21
674.03	21944.86
674.17	21975.29
674.31	22089.98
674.45	21781.03
674.59	21671.02
674.73	21734.21
674.87	21689.74
675.01	21591.44
675.15	21626.55
675.29	21179.51
675.43	21455.69
675.56	21336.32
675.70	21397.18
675.84	21502.50
675.98	20926.73
676.12	21589.10
676.26	21451.01
676.40	21242.70
676.54	21207.59
676.68	21387.82
676.82	20554.58
676.96	21022.69
677.10	20699.70
677.23	20477.35
677.37	20549.90
677.51	20807.36
677.65	20793.32
677.79	20650.55
677.93	20215.21
678.07	20524.16
678.21	20198.82
678.34	20194.14
678.48	20098.18
678.62	20428.20
678.76	20212.87
678.90	20046.69
679.04	20144.99
679.18	19988.18
679.31	19887.53
679.45	19545.81
679.59	19924.98
679.73	19672.20
679.87	19590.28
680.00	19711.99
680.14	19646.46
680.28	19286.01
680.42	19407.72
680.56	19541.13
680.70	19412.40
680.83	19756.46
680.97	19246.23
681.11	19206.44
681.25	19136.22
681.39	19122.18
681.52	19208.78
681.66	18728.97
681.80	18759.39
681.94	18998.13
682.07	18738.33
682.21	18869.40
682.35	18803.86
682.49	18548.75
682.62	18607.26
682.76	18312.35
682.90	18675.13
683.04	18471.51
683.17	18595.56
683.31	18513.64
683.45	18429.38
683.59	18384.91
683.72	18553.43
683.86	18139.15
684.00	18237.45
684.13	18307.67
684.27	18167.24
684.41	17797.43
684.55	17905.10
684.68	17462.74
684.82	17713.17
684.96	17507.21
685.09	17827.86
685.23	17273.15
685.37	17216.98
685.50	17645.30
685.64	17598.49
685.78	17460.40
685.91	17427.63
686.05	17572.74
686.19	17345.71
686.32	17357.41
686.46	17114.00
686.60	16748.87
686.73	17198.26
686.87	16989.95
687.01	16826.11
687.14	16594.40
687.28	16582.70
687.42	16587.38
687.55	16559.29
687.69	16802.71
687.82	16744.19
687.96	16561.63
688.10	16657.59
688.23	16594.40
688.37	16496.10
688.50	16519.50
688.64	16613.12
688.78	16222.25
688.91	16163.74
689.05	16294.81
689.18	15969.48
689.32	15751.81
689.46	15999.90
689.59	15587.97
689.73	15857.13
689.86	15660.52
690.00	15740.10
690.13	15634.78
690.27	15616.05
690.41	15754.15
690.54	15419.45
690.68	15534.14
690.81	15398.38
690.95	15594.99
691.08	15484.98
691.22	15316.47
691.35	15040.28
691.49	15433.49
691.62	15255.61
691.76	15037.94
691.89	14883.47
692.03	14932.62
692.16	14738.35
692.30	14747.72
692.43	14806.23
692.57	14726.65
692.70	14551.11
692.84	14389.61
692.97	14782.82
693.11	14546.43
693.24	14195.35
693.38	14537.07
693.51	14384.93
693.65	14370.89
693.78	14225.78
693.92	14146.20
694.05	14443.45
694.19	14246.84
694.32	14162.58
694.45	13977.68
694.59	13710.86
694.72	13767.03
694.86	13706.18
694.99	13568.09
695.13	13598.51
695.26	13441.70
695.39	13380.84
695.53	13579.79
695.66	13472.12
695.80	13432.33
695.93	13406.59
696.07	13275.52
696.20	13467.44
696.33	13376.16
696.47	12910.40
696.60	12912.74
696.73	13135.09
696.87	12987.63
697.00	12802.73
697.14	12856.56
697.27	12739.54
697.40	12596.76
697.54	12351.01
697.67	12826.14
697.80	12697.41
697.94	12348.67
698.07	12205.89
698.21	12383.77
698.34	12439.95
698.47	12552.29
698.61	12531.23
698.74	12315.90
698.87	12156.74
699.01	11950.78
699.14	12126.32
699.27	12138.02
699.40	12224.62
699.54	11992.90
699.67	11824.39
699.80	11831.41
699.94	11798.64
700.07	11803.32
700.20	11597.35
700.34	11693.32
700.47	11585.65
700.60	11719.06
700.73	11630.12
700.87	11595.01
701.00	11342.24
701.13	11279.04
701.26	11407.77
701.40	11452.24
701.53	11169.04
701.66	11133.93
701.79	11260.32
701.93	10892.85
702.06	11101.16
702.19	11204.14
702.32	11171.38
702.46	10965.41
702.59	10497.30
702.72	10649.44
702.85	10689.23
702.99	10583.90
703.12	10633.05
703.25	10668.16
703.38	10443.47
703.51	10525.39
703.65	10778.17
703.78	10457.51
703.91	10509.01
704.04	10523.05
704.17	10303.04
704.31	10368.57
704.44	10373.25
704.57	10054.94
704.70	10115.80
704.83	10036.22
704.96	9811.53
705.10	10015.15
705.23	9853.66
>>>>>End Processed Spectral Data<<<<<
