SpectraSuite Data File
++++++++++++++++++++++++++++++++++++
Date: Fri Oct 18 13:58:04 GMT-05:00 2013
User: bianchi
Dark Spectrum Present: No
Reference Spectrum Present: No
Number of Sampled Component Spectra: 1
Spectrometers: USB2+H05261
Integration Time (usec): 50000 (USB2+H05261)
Spectra Averaged: 1 (USB2+H05261)
Boxcar Smoothing: 0 (USB2+H05261)
Correct for Electrical Dark: No (USB2+H05261)
Strobe/Lamp Enabled: No (USB2+H05261)
Correct for Detector Non-linearity: No (USB2+H05261)
Correct for Stray Light: No (USB2+H05261)
Number of Pixels in Processed Spectrum: 2048
>>>>>Begin Processed Spectral Data<<<<<
365.73	0.00
365.92	0.00
366.12	0.00
366.32	0.00
366.52	0.00
366.72	0.00
366.91	0.00
367.11	0.00
367.31	0.00
367.51	0.00
367.70	0.00
367.90	0.00
368.10	0.00
368.30	0.00
368.49	0.00
368.69	0.00
368.89	0.00
369.09	0.00
369.28	0.00
369.48	0.00
369.68	0.00
369.87	0.00
370.07	0.00
370.27	0.00
370.47	0.00
370.66	23.41
370.86	142.77
371.06	154.48
371.25	119.37
371.45	105.32
371.65	114.69
371.84	154.48
372.04	110.01
372.24	177.88
372.44	194.26
372.63	163.84
372.83	231.71
373.03	259.80
373.22	161.50
373.42	175.54
373.62	145.11
373.81	271.50
374.01	234.05
374.21	208.31
374.40	264.48
374.60	294.91
374.79	236.39
374.99	241.08
375.19	203.63
375.38	229.37
375.58	205.97
375.78	173.20
375.97	252.78
376.17	325.33
376.37	351.08
376.56	372.15
376.76	184.90
376.95	262.14
377.15	252.78
377.35	297.25
377.54	278.52
377.74	311.29
377.93	304.27
378.13	332.36
378.33	294.91
378.52	259.80
378.72	227.03
378.91	280.86
379.11	287.89
379.31	280.86
379.50	287.89
379.70	379.17
379.89	390.87
380.09	271.50
380.28	196.60
380.48	222.35
380.68	269.16
380.87	238.73
381.07	353.42
381.26	294.91
381.46	297.25
381.65	341.72
381.85	320.65
382.04	367.46
382.24	330.02
382.43	315.97
382.63	308.95
382.83	365.12
383.02	390.87
383.22	365.12
383.41	383.85
383.61	365.12
383.80	397.89
384.00	374.49
384.19	437.68
384.39	400.23
384.58	351.08
384.78	400.23
384.97	348.74
385.17	351.08
385.36	390.87
385.56	360.44
385.75	433.00
385.95	447.04
386.14	496.19
386.34	402.57
386.53	461.09
386.72	365.12
386.92	526.62
387.11	421.30
387.31	409.59
387.50	369.80
387.70	397.89
387.89	477.47
388.09	454.06
388.28	393.21
388.48	428.32
388.67	491.51
388.86	433.00
389.06	451.72
389.25	521.94
389.45	475.13
389.64	421.30
389.84	465.77
390.03	472.79
390.22	592.16
390.42	449.38
390.61	484.49
390.81	451.72
391.00	491.51
391.19	526.62
391.39	519.60
391.58	486.83
391.78	435.34
391.97	442.36
392.16	458.74
392.36	514.92
392.55	526.62
392.75	510.24
392.94	493.85
393.13	585.13
393.33	550.03
393.52	543.00
393.71	528.96
393.91	545.34
394.10	601.52
394.29	545.34
394.49	631.94
394.68	638.97
394.88	634.29
395.07	580.45
395.26	688.12
395.46	603.86
395.65	636.63
395.84	702.16
396.04	636.63
396.23	631.94
396.42	620.24
396.62	645.99
396.81	643.65
397.00	685.78
397.19	720.88
397.39	723.23
397.58	765.36
397.77	730.25
397.97	753.65
398.16	725.57
398.35	739.61
398.55	695.14
398.74	671.73
398.93	704.50
399.12	781.74
399.32	734.93
399.51	690.46
399.70	655.35
399.90	854.30
400.09	772.38
400.28	816.85
400.47	765.36
400.67	842.59
400.86	725.57
401.05	814.51
401.24	800.46
401.44	842.59
401.63	805.14
401.82	821.53
402.01	821.53
402.21	875.36
402.40	753.65
402.59	772.38
402.78	861.32
402.97	856.64
403.17	823.87
403.36	901.11
403.55	917.49
403.74	858.98
403.93	952.60
404.13	910.47
404.32	929.19
404.51	898.77
404.70	889.40
404.89	905.79
405.09	985.37
405.28	1001.75
405.47	1022.81
405.66	997.07
405.85	1032.18
406.05	968.98
406.24	1027.50
406.43	1121.12
406.62	992.39
406.81	1128.14
407.00	1001.75
407.20	1015.79
407.39	1011.11
407.58	1071.97
407.77	1055.58
407.96	1029.84
408.15	1081.33
408.34	1018.13
408.54	1102.39
408.73	1067.28
408.92	1081.33
409.11	1186.65
409.30	1137.50
409.49	1139.84
409.68	1188.99
409.87	1210.06
410.07	1252.19
410.26	1188.99
410.45	1217.08
410.64	1158.57
410.83	1306.02
411.02	1198.35
411.21	1296.66
411.40	1219.42
411.59	1282.61
411.78	1317.72
411.98	1256.87
412.17	1357.51
412.36	1224.10
412.55	1430.07
412.74	1348.15
412.93	1348.15
413.12	1409.00
413.31	1387.94
413.50	1451.13
413.69	1432.41
413.88	1371.55
414.07	1441.77
414.26	1430.07
414.45	1455.81
414.64	1490.92
414.83	1521.35
415.02	1551.78
415.22	1547.09
415.41	1483.90
415.60	1481.56
415.79	1535.39
415.98	1568.16
416.17	1603.27
416.36	1671.14
416.55	1741.36
416.74	1577.52
416.93	1631.35
417.12	1692.21
417.31	1694.55
417.50	1631.35
417.69	1799.87
417.88	1839.66
418.07	1671.14
418.26	1785.83
418.45	1851.36
418.64	1898.17
418.83	1673.48
419.02	1797.53
419.21	1750.72
419.39	1853.70
419.58	1732.00
419.77	1923.92
419.96	1909.88
420.15	1872.43
420.34	1872.43
420.53	1837.32
420.72	1975.41
420.91	1944.99
421.10	1916.90
421.29	1963.71
421.48	1968.39
421.67	1996.48
421.86	1930.94
422.05	1942.64
422.24	1905.20
422.43	2026.90
422.61	1970.73
422.80	1980.09
422.99	2012.86
423.18	2010.52
423.37	2141.59
423.56	2071.37
423.75	2076.06
423.94	1968.39
424.13	1940.30
424.32	1933.28
424.50	2066.69
424.69	2097.12
424.88	2193.08
425.07	2033.93
425.26	2078.40
425.45	2146.27
425.64	1987.11
425.83	2040.95
426.01	2059.67
426.20	2043.29
426.39	2071.37
426.58	2162.66
426.77	2232.87
426.96	2113.50
427.15	2183.72
427.33	2167.34
427.52	2120.53
427.71	2225.85
427.90	2174.36
428.09	2258.62
428.28	2225.85
428.46	2246.91
428.65	2169.68
428.84	2282.02
429.03	2321.81
429.22	2260.96
429.40	2319.47
429.59	2342.88
429.78	2230.53
429.97	2122.87
430.16	2246.91
430.34	2420.11
430.53	2352.24
430.72	2289.04
430.91	2300.75
431.10	2303.09
431.28	2272.66
431.47	2431.82
431.66	2424.80
431.85	2443.52
432.03	2382.67
432.22	2492.67
432.41	2452.88
432.60	2525.44
432.79	2485.65
432.97	2441.18
433.16	2541.82
433.35	2452.88
433.54	2593.31
433.72	2495.01
433.91	2546.50
434.10	2541.82
434.28	2495.01
434.47	2537.14
434.66	2600.34
434.85	2590.97
435.03	2635.44
435.22	2609.70
435.41	2586.29
435.59	2546.50
435.78	2588.63
435.97	2708.00
436.16	2644.81
436.34	2670.55
436.53	2605.02
436.72	2764.17
436.90	2827.37
437.09	2764.17
437.28	2656.51
437.46	2759.49
437.65	2810.98
437.84	2768.85
438.02	2745.45
438.21	2792.26
438.40	2768.85
438.58	2918.65
438.77	2920.99
438.96	2869.50
439.14	2949.08
439.33	3002.91
439.52	3063.76
439.70	2967.80
439.89	3112.91
440.08	2974.82
440.26	3215.90
440.45	2967.80
440.63	3192.49
440.82	3117.59
441.01	3246.32
441.19	3166.74
441.38	3309.52
441.57	3286.11
441.75	3267.39
441.94	3222.92
442.12	3286.11
442.31	3337.60
442.50	3356.33
442.68	3328.24
442.87	3499.10
443.05	3391.44
443.24	3398.46
443.43	3398.46
443.61	3445.27
443.80	3412.50
443.98	3581.02
444.17	3372.71
444.35	3499.10
444.54	3494.42
444.73	3564.64
444.91	3447.61
445.10	3536.55
445.28	3407.82
445.47	3405.48
445.65	3447.61
445.84	3424.20
446.02	3574.00
446.21	3428.88
446.39	3566.98
446.58	3583.36
446.77	3543.57
446.95	3410.16
447.14	3566.98
447.32	3592.72
447.51	3520.17
447.69	3641.87
447.88	3452.29
448.06	3585.70
448.25	3588.04
448.43	3698.05
448.62	3637.19
448.80	3581.02
448.99	3606.77
449.17	3604.42
449.36	3595.06
449.54	3688.68
449.73	3702.73
449.91	3784.65
450.10	3693.37
450.28	3761.24
450.46	3765.92
450.65	3906.35
450.83	3852.52
451.02	3845.50
451.20	3815.07
451.39	3936.78
451.57	3796.35
451.76	3749.54
451.94	3796.35
452.13	3826.78
452.31	3829.12
452.49	3672.30
452.68	3901.67
452.86	3782.31
453.05	3854.86
453.23	3918.06
453.42	3927.42
453.60	3936.78
453.78	3929.76
453.97	3983.59
454.15	3967.21
454.34	3864.22
454.52	4109.98
454.70	4168.49
454.89	4100.62
455.07	4070.19
455.26	4095.94
455.44	4264.46
455.62	4175.52
455.81	4170.83
455.99	4135.73
456.17	4266.80
456.36	4273.82
456.54	4234.03
456.73	4334.67
456.91	4416.59
457.09	4353.40
457.28	4339.35
457.46	4264.46
457.64	4418.93
457.83	4346.37
458.01	4299.56
458.19	4292.54
458.38	4360.42
458.56	4428.29
458.74	4596.81
458.93	4601.49
459.11	4491.49
459.29	4599.15
459.48	4641.28
459.66	4430.63
459.84	4571.07
460.03	4758.31
460.21	4493.83
460.39	4524.26
460.57	4507.87
460.76	4706.82
460.94	4723.20
461.12	4540.64
461.31	4587.45
461.49	4748.95
461.67	4610.86
461.85	4702.14
462.04	4753.63
462.22	4889.38
462.40	4774.69
462.59	4685.75
462.77	4781.71
462.95	4812.14
463.13	4812.14
463.32	4793.42
463.50	4758.31
463.68	4873.00
463.86	4868.31
464.05	4851.93
464.23	4821.50
464.41	4863.63
464.59	4898.74
464.78	5069.60
464.96	4987.68
465.14	4975.98
465.32	4957.25
465.50	4975.98
465.69	5032.15
465.87	5170.24
466.05	5032.15
466.23	5177.26
466.41	5013.43
466.60	5249.82
466.78	4990.02
466.96	5036.83
467.14	5210.03
467.32	5280.25
467.51	5380.89
467.69	5125.77
467.87	5212.37
468.05	5212.37
468.23	5357.49
468.41	5240.46
468.60	5334.08
468.78	5392.59
468.96	5219.39
469.14	5408.98
469.32	5195.99
469.50	5275.57
469.69	5380.89
469.87	5490.90
470.05	5582.18
470.23	5533.03
470.41	5577.50
470.59	5474.51
470.77	5441.75
470.95	5439.40
471.14	5540.05
471.32	5502.60
471.50	5633.67
471.68	5633.67
471.86	5797.51
472.04	5865.38
472.22	5853.68
472.40	5727.29
472.58	5783.46
472.77	5891.13
472.95	5884.11
473.13	6188.38
473.31	5898.15
473.49	6054.97
473.67	5858.36
473.85	6059.65
474.03	6225.82
474.21	6069.01
474.39	6120.50
474.57	6136.88
474.75	6214.12
474.93	6239.87
475.12	6218.80
475.30	6338.17
475.48	6253.91
475.66	6452.86
475.84	6455.20
476.02	6317.11
476.20	6553.50
476.38	6471.58
476.56	6576.91
476.74	6604.99
476.92	6532.44
477.10	6663.51
477.28	6597.97
477.46	6761.81
477.64	6927.99
477.82	7007.56
478.00	7105.87
478.18	7143.32
478.36	7101.19
478.54	7190.13
478.72	7208.85
478.90	7157.36
479.08	7239.28
479.26	7211.19
479.44	7180.76
479.62	7548.23
479.80	7480.35
479.98	7447.58
480.16	7630.15
480.34	7639.51
480.52	7569.29
480.70	7740.15
480.88	7758.88
481.06	7641.85
481.24	7786.96
481.41	7829.09
481.59	8182.51
481.77	8112.30
481.95	8095.91
482.13	8173.15
482.31	8231.66
482.49	8376.78
482.67	8348.69
482.85	8655.30
483.03	8676.37
483.21	8603.81
483.39	8709.13
483.57	8704.45
483.74	8723.18
483.92	8620.19
484.10	8777.01
484.28	8940.85
484.46	9029.79
484.64	9256.82
484.82	9064.89
485.00	9380.87
485.18	9439.38
485.35	9488.53
485.53	9369.16
485.71	9706.20
485.89	9708.54
486.07	9596.20
486.25	9619.60
486.43	9856.00
486.61	9914.51
486.78	9825.57
486.96	10099.41
487.14	10178.99
487.32	10338.15
487.50	10211.76
487.68	10452.83
487.85	10511.35
488.03	10780.51
488.21	10860.09
488.39	10703.27
488.57	10885.83
488.75	10920.94
488.92	10949.03
489.10	10974.77
489.28	11159.67
489.46	11091.80
489.64	11302.45
489.81	11466.28
489.99	11529.48
490.17	11651.19
490.35	11709.70
490.53	11665.23
490.70	11786.94
490.88	11929.71
491.06	11726.08
491.24	11791.62
491.41	12086.53
491.59	12121.63
491.77	12166.10
491.95	12184.83
492.13	12512.50
492.30	12517.18
492.48	12444.63
492.66	12472.71
492.84	12601.44
493.01	12807.41
493.19	12767.62
493.37	12882.31
493.54	12886.99
493.72	13312.97
493.90	13032.10
494.08	13261.48
494.25	13441.70
494.43	13387.86
494.61	13462.76
494.79	13341.05
494.96	13640.64
495.14	13659.37
495.32	13558.72
495.49	13645.32
495.67	13916.83
495.85	14097.05
496.02	13977.68
496.20	14097.05
496.38	14129.81
496.55	14281.95
496.73	14616.65
496.91	14286.63
497.09	14406.00
497.26	14434.08
497.44	14501.96
497.62	14740.69
497.79	14794.53
497.97	14647.07
498.14	15075.39
498.32	15122.20
498.50	14836.66
498.67	15089.43
498.85	15028.58
499.03	15379.66
499.20	15166.67
499.38	15220.50
499.56	15302.42
499.73	15449.88
499.91	15625.42
500.08	15889.90
500.26	15721.38
500.44	15702.65
500.61	15667.55
500.79	15756.49
500.97	15948.41
501.14	15910.96
501.32	16224.59
501.49	15817.34
501.67	16013.95
501.84	16145.02
502.02	16079.48
502.20	16421.20
502.37	16421.20
502.55	16423.54
502.72	16655.25
502.90	16456.31
503.07	16624.83
503.25	16786.32
503.43	16671.64
503.60	16753.55
503.78	16954.84
503.95	16982.93
504.13	16905.69
504.30	16919.73
504.48	16994.63
504.65	17011.01
504.83	17104.64
505.01	17291.88
505.18	17282.52
505.36	17341.03
505.53	17121.02
505.71	17193.58
505.88	17549.34
506.06	17448.69
506.23	17703.81
506.41	17781.05
506.58	17881.69
506.76	17479.12
506.93	17869.99
507.11	17556.36
507.28	17331.67
507.46	18047.87
507.63	17991.70
507.81	18155.54
507.98	17776.37
508.16	18092.34
508.33	18162.56
508.50	17980.00
508.68	18373.21
508.85	18302.99
509.03	18513.64
509.20	18237.45
509.38	18225.75
509.55	18693.86
509.73	18485.55
509.90	18731.31
510.08	18616.62
510.25	18958.34
510.42	18834.29
510.60	18923.23
510.77	19061.32
510.95	19014.51
511.12	18902.17
511.30	19068.34
511.47	19035.58
511.64	19173.67
511.82	19381.98
511.99	19075.37
512.17	19356.23
512.34	19344.53
512.51	19548.15
512.69	19470.92
512.86	19384.32
513.04	19660.50
513.21	19932.00
513.38	19878.17
513.56	19974.13
513.73	19838.38
513.90	19711.99
514.08	19711.99
514.25	20163.72
514.43	20116.90
514.60	20257.34
514.77	20004.56
514.95	20301.81
515.12	20322.87
515.29	20032.65
515.47	20451.60
515.64	20519.48
515.81	20325.21
515.99	20615.44
516.16	20554.58
516.33	20475.01
516.51	20718.42
516.68	20613.10
516.85	20442.24
517.03	20622.46
517.20	20795.66
517.37	20798.00
517.54	21128.02
517.72	20812.04
517.89	20992.26
518.06	21074.18
518.24	20908.01
518.41	21123.33
518.58	21071.84
518.75	21181.85
518.93	21003.97
519.10	21359.73
519.27	21565.70
519.45	21336.32
519.62	21266.11
519.79	21315.26
519.96	21502.50
520.14	21717.83
520.31	21329.30
520.48	21823.16
520.65	21565.70
520.83	21783.37
521.00	21975.29
521.17	21607.83
521.34	21535.27
521.52	21928.48
521.69	21963.59
521.86	22286.58
522.03	21930.82
522.20	22087.64
522.38	22644.68
522.55	21869.97
522.72	22036.14
522.89	22331.05
523.07	22389.56
523.24	22317.01
523.41	22850.65
523.58	22391.91
523.75	22522.98
523.92	22321.69
524.10	22981.72
524.27	22560.42
524.44	22675.11
524.61	22913.84
524.78	22810.86
524.96	22923.21
525.13	22946.61
525.30	22930.23
525.47	22857.67
525.64	23021.51
525.81	23000.44
525.98	23243.86
526.16	22923.21
526.33	23068.32
526.50	23285.99
526.67	23063.64
526.84	23183.01
527.01	23571.54
527.18	23016.83
527.36	23878.15
527.53	23419.40
527.70	23756.44
527.87	23747.08
528.04	23573.88
528.21	23850.06
528.38	23311.74
528.55	23611.32
528.72	23644.09
528.89	23543.45
529.07	23962.40
529.24	24156.67
529.41	23885.17
529.58	23805.59
529.75	23798.57
529.92	23931.98
530.09	24088.79
530.26	23948.36
530.43	24074.75
530.60	23920.28
530.77	24112.20
530.94	24238.59
531.11	24226.89
531.28	24266.67
531.46	24489.03
531.63	24376.68
531.80	24608.39
531.97	24418.81
532.14	24549.88
532.31	24549.88
532.48	24407.11
532.65	24765.21
532.82	24425.83
532.99	24479.66
533.16	24180.07
533.33	24601.37
533.50	25308.21
533.67	25015.65
533.84	24292.42
534.01	24891.60
534.18	24819.04
534.35	25188.85
534.52	24638.82
534.69	24823.72
534.86	25207.57
535.03	24879.89
535.20	25013.31
535.37	24987.56
535.54	25167.78
535.71	24936.07
535.88	24856.49
536.05	25350.34
536.22	25193.53
536.38	25336.30
536.55	25364.39
536.72	25570.35
536.89	25270.76
537.06	25858.24
537.23	25706.10
537.40	25628.87
537.57	25518.86
537.74	25729.51
537.91	25673.34
538.08	25965.90
538.25	25380.77
538.42	25713.13
538.59	25797.38
538.75	25317.57
538.92	26176.55
539.09	25935.48
539.26	26101.65
539.43	26118.04
539.60	26176.55
539.77	25977.61
539.94	26001.01
540.11	26132.08
540.28	26029.10
540.44	26174.21
540.61	25607.80
540.78	26059.52
540.95	26316.98
541.12	25886.32
541.29	26047.82
541.46	26199.96
541.62	26146.12
541.79	26099.31
541.96	25869.94
542.13	26284.22
542.30	26426.99
542.47	26632.96
542.63	26724.24
542.80	26703.17
542.97	26934.88
543.14	26771.05
543.31	26632.96
543.48	26761.69
543.64	26787.43
543.81	27014.46
543.98	26792.11
544.15	26958.29
544.32	26995.74
544.48	27173.62
544.65	26888.07
544.82	26969.99
544.99	27147.87
545.16	27131.49
545.32	26927.86
545.49	27197.02
545.66	27323.41
545.83	27608.96
546.00	27648.75
546.16	26937.23
546.33	27278.94
546.50	27122.13
546.67	27358.52
546.83	27271.92
547.00	27372.57
547.17	27407.67
547.34	27424.06
547.50	27417.04
547.67	27847.69
547.84	27562.15
548.00	27721.30
548.17	27517.68
548.34	27747.05
548.51	27826.63
548.67	27953.02
548.84	27665.13
549.01	27892.16
549.18	27482.57
549.34	27784.50
549.51	27515.34
549.68	27843.01
549.84	27410.01
550.01	27861.74
550.18	27662.79
550.34	28112.17
550.51	28018.55
550.68	28166.01
550.84	27620.66
551.01	27957.70
551.18	28016.21
551.34	27796.20
551.51	27941.32
551.68	27880.46
551.84	27988.13
552.01	28442.19
552.18	28458.57
552.34	28112.17
552.51	28467.94
552.68	28416.44
552.84	28039.62
553.01	28449.21
553.18	28479.64
553.34	29006.26
553.51	28381.34
553.67	28381.34
553.84	28723.05
554.01	28442.19
554.17	28570.92
554.34	28215.16
554.51	28828.38
554.67	28486.66
554.84	28350.91
555.00	28762.84
555.17	28467.94
555.33	28636.45
555.50	28659.86
555.67	28760.50
555.83	28545.17
556.00	28615.39
556.16	28898.59
556.33	28666.88
556.50	28428.15
556.66	28914.98
556.83	28903.28
556.99	29123.29
557.16	29062.43
557.32	28772.21
557.49	28603.69
557.65	28816.68
557.82	28306.44
557.98	29184.14
558.15	28971.15
558.32	29359.68
558.48	28811.99
558.65	29230.95
558.81	29614.80
558.98	29317.55
559.14	29298.83
559.31	28999.24
559.47	28816.68
559.64	29146.69
559.80	29441.60
559.97	29099.88
560.13	29322.23
560.30	29142.01
560.46	29352.66
560.63	29280.10
560.79	29626.50
560.96	29390.11
561.12	29331.59
561.29	29518.84
561.45	29439.26
561.61	29160.73
561.78	29469.69
561.94	29804.38
562.11	29666.29
562.27	29546.92
562.44	29462.66
562.60	29385.43
562.77	29504.79
562.93	29687.36
563.10	29603.10
563.26	29546.92
563.42	29687.36
563.59	29720.12
563.75	29661.61
563.92	29706.08
564.08	29357.34
564.24	29371.38
564.41	29614.80
564.57	30029.07
564.74	29441.60
564.90	29771.61
565.07	30221.00
565.23	29734.17
565.39	29879.28
565.56	29778.64
565.72	29968.22
565.88	29373.72
566.05	29654.59
566.21	29680.33
566.38	29783.32
566.54	29886.30
566.70	29956.52
566.87	30178.87
567.03	29825.45
567.19	30134.40
567.36	29912.05
567.52	30022.05
567.68	29912.05
567.85	29689.70
568.01	30139.08
568.17	29825.45
568.34	30136.74
568.50	30036.09
568.66	30073.54
568.83	30562.72
568.99	30073.54
569.15	30022.05
569.32	29706.08
569.48	29874.60
569.64	30246.74
569.81	30314.62
569.97	30024.39
570.13	29972.90
570.30	29598.41
570.46	30267.81
570.62	30134.40
570.78	29820.77
570.95	30085.25
571.11	29956.52
571.27	29553.94
571.43	29867.58
571.60	30230.36
571.76	30059.50
571.92	30094.61
572.09	30169.51
572.25	30483.14
572.41	30174.19
572.57	30005.67
572.74	30216.32
572.90	29898.00
573.06	29876.94
573.22	30106.31
573.38	30169.51
573.55	30057.16
573.71	30487.82
573.87	30700.81
574.03	30576.76
574.20	30197.59
574.36	30017.37
574.52	30738.26
574.68	29979.92
574.84	30319.30
575.01	29979.92
575.17	30478.46
575.33	30295.89
575.49	29958.86
575.65	30651.66
575.82	30904.43
575.98	29675.65
576.14	30581.44
576.30	30176.53
576.46	29745.87
576.62	29759.91
576.79	30426.96
576.95	30263.13
577.11	30274.83
577.27	30618.89
577.43	30494.84
577.59	30464.41
577.75	30515.90
577.92	30419.94
578.08	30211.64
578.24	30249.08
578.40	30099.29
578.56	30672.72
578.72	30710.17
578.88	30590.80
579.04	30862.30
579.21	30256.11
579.37	30698.47
579.53	30684.42
579.69	30223.34
579.85	30431.65
580.01	30314.62
580.17	30501.86
580.33	30661.02
580.49	30342.70
580.65	30590.80
580.82	30316.96
580.98	30490.16
581.14	30726.55
581.30	30422.28
581.46	30017.37
581.62	30279.51
581.78	29928.43
581.94	30665.70
582.10	30462.07
582.26	30749.96
582.42	30424.62
582.58	30766.34
582.74	30316.96
582.90	30593.14
583.06	30394.20
583.22	30771.02
583.38	30476.12
583.54	30141.42
583.70	30462.07
583.86	30459.73
584.02	30316.96
584.18	30986.35
584.34	30710.17
584.50	30829.54
584.66	30321.64
584.82	30221.00
584.98	30543.99
585.14	30480.80
585.30	30185.89
585.46	30551.01
585.62	30228.02
585.78	30609.53
585.94	30305.26
586.10	30445.69
586.26	30953.58
586.42	30527.61
586.58	30682.08
586.74	30754.64
586.90	30323.98
587.06	30338.02
587.22	30298.23
587.38	30260.79
587.54	30579.10
587.70	30866.98
587.86	31089.34
588.02	30827.20
588.18	30728.89
588.34	30611.87
588.49	30932.52
588.65	30555.69
588.81	30473.78
588.97	30855.28
589.13	30866.98
589.29	30408.24
589.45	30635.27
589.61	30937.20
589.77	30831.88
589.93	30871.67
590.08	30909.11
590.24	31241.47
590.40	30946.56
590.56	31309.35
590.72	30890.39
590.88	30548.67
591.04	30473.78
591.20	31101.04
591.35	30944.22
591.51	31145.51
591.67	31370.20
591.83	31215.72
591.99	30766.34
592.15	31241.47
592.31	31189.98
592.46	30672.72
592.62	30946.56
592.78	30611.87
592.94	31218.07
593.10	30417.60
593.26	31402.97
593.41	31040.18
593.57	31267.22
593.73	30831.88
593.89	31084.65
594.05	30976.99
594.20	30953.58
594.36	31197.00
594.52	31175.94
594.68	30890.39
594.84	30979.33
594.99	30979.33
595.15	30869.33
595.31	31157.21
595.47	31601.91
595.62	31079.97
595.78	31215.72
595.94	30749.96
596.10	31150.19
596.25	31208.70
596.41	30665.70
596.57	30906.77
596.73	31501.27
596.88	30911.46
597.04	31150.19
597.20	31131.47
597.36	31192.32
597.51	31351.48
597.67	31166.57
597.83	31168.91
597.99	31381.90
598.14	31344.45
598.30	31192.32
598.46	31072.95
598.61	31152.53
598.77	31201.68
598.93	31344.45
599.09	31325.73
599.24	31534.04
599.40	31559.78
599.56	31281.26
599.71	31150.19
599.87	31304.67
600.03	31187.64
600.18	31330.41
600.34	31246.15
600.50	31241.47
600.65	31440.42
600.81	31351.48
600.97	31175.94
601.12	31674.47
601.28	31793.84
601.44	31218.07
601.59	31592.55
601.75	31332.75
601.91	31714.26
602.06	30988.69
602.22	31131.47
602.37	31054.23
602.53	31037.84
602.69	31473.18
602.84	31061.25
603.00	31424.03
603.16	31662.77
603.31	31304.67
603.47	31318.71
603.62	31072.95
603.78	31068.27
603.94	31299.98
604.09	30874.01
604.25	31014.44
604.40	30984.01
604.56	31236.79
604.71	31000.40
604.87	30780.39
605.03	31255.51
605.18	31005.08
605.34	31007.42
605.49	30974.65
605.65	31173.60
605.80	30693.79
605.96	30803.79
606.12	30979.33
606.27	31225.09
606.43	31028.48
606.58	31501.27
606.74	31108.06
606.89	31182.96
607.05	31028.48
607.20	30941.88
607.36	30829.54
607.51	31084.65
607.67	31077.63
607.82	30796.77
607.98	30965.29
608.13	31220.41
608.29	31091.68
608.44	31082.31
608.60	31234.45
608.75	31150.19
608.91	31201.68
609.06	30972.31
609.22	30871.67
609.37	30745.28
609.53	30712.51
609.68	31115.08
609.84	30939.54
609.99	30906.77
610.15	30864.64
610.30	30831.88
610.46	31197.00
610.61	31005.08
610.76	30623.57
610.92	30911.46
611.07	30803.79
611.23	30602.50
611.38	30756.98
611.54	30747.62
611.69	30866.98
611.84	31002.74
612.00	30794.43
612.15	30560.37
612.31	30815.49
612.46	30890.39
612.62	30689.10
612.77	30967.63
612.92	30775.70
613.08	30820.17
613.23	30471.43
613.39	30628.25
613.54	30684.42
613.69	30747.62
613.85	30742.94
614.00	30543.99
614.15	30281.85
614.31	30960.61
614.46	30738.26
614.62	30639.95
614.77	30630.59
614.92	30328.66
615.08	30302.92
615.23	30859.96
615.38	30560.37
615.54	30806.13
615.69	30668.04
615.84	30396.54
616.00	30511.22
616.15	30497.18
616.30	30719.53
616.46	29961.20
616.61	30457.39
616.76	30855.28
616.92	30169.51
617.07	30307.60
617.22	30251.42
617.37	30370.79
617.53	29949.50
617.68	30213.98
617.83	30167.16
617.99	29942.47
618.14	30429.30
618.29	30019.71
618.45	30223.34
618.60	30480.80
618.75	30551.01
618.90	29961.20
619.06	30380.15
619.21	30064.18
619.36	30223.34
619.51	29825.45
619.67	29708.42
619.82	29947.15
619.97	29982.26
620.12	29865.24
620.28	30263.13
620.43	30213.98
620.58	30054.82
620.73	30391.86
620.89	29951.84
621.04	30185.89
621.19	30153.12
621.34	29968.22
621.49	29567.99
621.65	29998.65
621.80	30398.88
621.95	30012.69
622.10	29862.90
622.25	29802.04
622.41	29776.30
622.56	29652.25
622.71	30279.51
622.86	29907.37
623.01	29745.87
623.16	29708.42
623.32	29518.84
623.47	29827.79
623.62	29638.20
623.77	29806.72
623.92	29989.28
624.07	29633.52
624.23	29792.68
624.38	29696.72
624.53	29532.88
624.68	29750.55
624.83	29621.82
624.98	29865.24
625.13	29408.83
625.29	29703.74
625.44	29680.33
625.59	29275.42
625.74	29275.42
625.89	29207.55
626.04	29369.04
626.19	29301.17
626.34	29184.14
626.49	29109.24
626.65	29287.12
626.80	29851.19
626.95	29441.60
627.10	29277.76
627.25	28912.64
627.40	29216.91
627.55	28919.66
627.70	29195.84
627.85	29130.31
628.00	29104.56
628.15	29165.42
628.30	29060.09
628.45	29170.10
628.60	29172.44
628.76	29160.73
628.91	29443.94
629.06	29310.53
629.21	28996.90
629.36	29074.13
629.51	29301.17
629.66	29310.53
629.81	28350.91
629.96	28521.77
630.11	28896.25
630.26	28900.94
630.41	28671.56
630.56	28500.70
630.71	28826.04
630.86	28858.81
631.01	29106.90
631.16	28989.88
631.31	28802.63
631.46	28896.25
631.61	28601.35
631.76	28430.49
631.91	28650.50
632.06	28666.88
632.21	28472.62
632.36	28910.30
632.51	28584.96
632.66	28837.74
632.81	28250.27
632.96	28744.12
633.10	28678.58
633.25	28559.22
633.40	29008.60
633.55	28601.35
633.70	28498.36
633.85	28489.00
634.00	28133.24
634.15	28400.06
634.30	28407.08
634.45	28329.84
634.60	28276.01
634.75	28187.07
634.90	28418.78
635.05	28610.71
635.19	28673.90
635.34	28474.96
635.49	27882.80
635.64	28198.77
635.79	28297.08
635.94	28425.81
636.09	28257.29
636.24	28114.52
636.39	28039.62
636.53	27889.82
636.68	27943.66
636.83	27943.66
636.98	28161.33
637.13	28212.82
637.28	28109.83
637.43	28449.21
637.57	28350.91
637.72	28168.35
637.87	27831.31
638.02	27957.70
638.17	27910.89
638.32	27637.05
638.46	28102.81
638.61	27953.02
638.76	27648.75
638.91	27557.47
639.06	27344.48
639.20	27969.40
639.35	27786.84
639.50	28016.21
639.65	27882.80
639.80	27978.76
639.94	27864.08
640.09	27733.01
640.24	27800.88
640.39	27620.66
640.54	27639.39
640.68	27833.65
640.83	27634.71
640.98	27417.04
641.13	27309.37
641.27	27520.02
641.42	27564.49
641.57	27578.53
641.72	27615.98
641.86	27449.80
642.01	27529.38
642.16	27283.62
642.31	27466.19
642.45	27599.60
642.60	27307.03
642.75	26937.23
642.90	27197.02
643.04	27386.61
643.19	27332.78
643.34	27220.43
643.48	27297.67
643.63	27150.21
643.78	27407.67
643.93	27601.94
644.07	26885.73
644.22	27337.46
644.37	27264.90
644.51	27300.01
644.66	27058.93
644.81	27222.77
644.95	27131.49
645.10	26787.43
645.25	27157.24
645.39	27250.86
645.54	27225.11
645.69	27044.89
645.83	27012.12
645.98	27026.17
646.13	27307.03
646.27	27236.81
646.42	26831.90
646.57	27019.14
646.71	27190.00
646.86	27098.72
647.00	26883.39
647.15	26536.99
647.30	26913.82
647.44	27016.80
647.59	26850.63
647.74	26862.33
647.88	27072.98
648.03	27087.02
648.17	27318.73
648.32	27103.40
648.47	27040.21
648.61	26647.00
648.76	27040.21
648.90	27084.68
649.05	27119.79
649.20	26508.91
649.34	26850.63
649.49	26630.62
649.63	27000.42
649.78	26277.19
649.92	26721.90
650.07	26773.39
650.21	26602.53
650.36	26553.38
650.51	26632.96
650.65	26625.93
650.80	26548.70
650.94	26909.14
651.09	26178.89
651.23	26508.91
651.38	26249.11
651.52	26431.67
651.67	26302.94
651.81	26366.13
651.96	26565.08
652.10	26396.56
652.25	26401.24
652.39	26623.59
652.54	26181.23
652.68	26459.76
652.83	26340.39
652.97	26588.49
653.12	26331.03
653.26	26160.17
653.41	26438.69
653.55	26178.89
653.70	26228.04
653.84	26017.40
653.99	26375.50
654.13	26178.89
654.27	25862.92
654.42	26206.98
654.56	26237.41
654.71	25965.90
654.85	26040.80
655.00	26155.49
655.14	26230.38
655.29	25979.95
655.43	26206.98
655.57	26094.63
655.72	25755.26
655.86	25965.90
656.01	25741.21
656.15	26178.89
656.30	26176.55
656.44	25788.02
656.58	25661.63
656.73	25766.96
656.87	25619.50
657.01	25888.67
657.16	25802.07
657.30	25944.84
657.45	25991.65
657.59	25972.92
657.73	25914.41
657.88	25736.53
658.02	25937.82
658.16	25785.68
658.31	25486.09
658.45	25378.43
658.60	25142.03
658.74	25755.26
658.88	25184.16
659.03	25479.07
659.17	25137.35
659.31	25476.73
659.46	25537.59
659.60	25198.21
659.74	25549.29
659.89	25289.49
660.03	25298.85
660.17	25160.76
660.32	25228.63
660.46	25226.29
660.60	24992.24
660.74	25193.53
660.89	25104.59
661.03	24872.87
661.17	25053.09
661.32	24931.39
661.46	25170.12
661.60	24774.57
661.74	25259.06
661.89	25097.56
662.03	24933.73
662.17	24903.30
662.31	24580.31
662.46	25078.84
662.60	24734.78
662.74	25193.53
662.88	24720.74
663.03	24400.08
663.17	24435.19
663.31	24236.25
663.45	24421.15
663.60	24849.47
663.74	24379.02
663.88	24676.27
664.02	24107.52
664.17	24430.51
664.31	24512.43
664.45	24177.73
664.59	24772.23
664.73	24648.18
664.88	23899.21
665.02	24049.00
665.16	24376.68
665.30	23833.68
665.44	24016.24
665.59	24077.09
665.73	23985.81
665.87	23828.99
666.01	23906.23
666.15	24074.75
666.29	24011.56
666.44	23601.96
666.58	23632.39
666.72	23754.10
666.86	23857.08
667.00	23906.23
667.14	23850.06
667.28	23358.55
667.43	23810.27
667.57	23868.78
667.71	23407.70
667.85	23459.19
667.99	23475.57
668.13	23501.32
668.27	23857.08
668.41	23534.09
668.56	23070.66
668.70	23597.28
668.84	23435.78
668.98	23323.44
669.12	23248.54
669.26	23267.27
669.40	23274.29
669.54	23147.90
669.68	23204.07
669.82	22857.67
669.96	22878.74
670.10	22838.95
670.25	22810.86
670.39	22780.43
670.53	22787.46
670.67	23058.96
670.81	22979.38
670.95	22714.90
671.09	22855.33
671.23	22829.59
671.37	22843.63
671.51	22663.41
671.65	22860.01
671.79	22541.70
671.93	22712.56
672.07	22656.39
672.21	22185.94
672.35	22291.26
672.49	22132.11
672.63	22099.34
672.77	22099.34
672.91	22279.56
673.05	22405.95
673.19	22164.87
673.33	21949.54
673.47	22141.47
673.61	22307.65
673.75	22185.94
673.89	21947.20
674.03	22122.74
674.17	22115.72
674.31	22001.04
674.45	21792.73
674.59	21652.30
674.73	21713.15
674.87	21776.34
675.01	21729.53
675.15	21486.12
675.29	21518.89
675.43	21406.54
675.56	21289.51
675.70	21390.16
675.84	21296.53
675.98	21174.83
676.12	21275.47
676.26	21626.55
676.40	21359.73
676.54	21163.12
676.68	21116.31
676.82	20863.54
676.96	20856.51
677.10	20650.55
677.23	20475.01
677.37	20655.23
677.51	20695.02
677.65	20346.28
677.79	20526.50
677.93	20535.86
678.07	20606.08
678.21	20201.16
678.34	20533.52
678.48	20269.04
678.62	19934.34
678.76	20299.47
678.90	20011.58
679.04	20032.65
679.18	20159.03
679.31	19819.66
679.45	19850.08
679.59	19737.74
679.73	19772.85
679.87	19314.10
680.00	19576.24
680.14	19461.55
680.28	19466.24
680.42	19625.39
680.56	19426.45
680.70	19681.56
680.83	19424.11
680.97	18925.57
681.11	19290.70
681.25	19440.49
681.39	19293.04
681.52	18995.79
681.66	18972.38
681.80	18752.37
681.94	18899.83
682.07	19080.05
682.21	18611.94
682.35	18808.54
682.49	18590.88
682.62	18532.36
682.76	18640.03
682.90	18513.64
683.04	18354.48
683.17	18396.61
683.31	18427.04
683.45	18405.97
683.59	18270.22
683.72	18242.14
683.86	18377.89
684.00	17769.35
684.13	18019.78
684.27	18015.10
684.41	17792.75
684.55	17757.64
684.68	17715.51
684.82	17425.29
684.96	17909.78
685.09	17701.47
685.23	17542.32
685.37	17544.66
685.50	17542.32
685.64	17532.95
685.78	17738.92
685.91	17542.32
686.05	17439.33
686.19	17268.47
686.32	17432.31
686.46	17139.74
686.60	17025.06
686.73	17324.65
686.87	16903.35
687.01	16727.81
687.14	16999.31
687.28	16657.59
687.42	16746.53
687.55	16603.76
687.69	16425.88
687.82	16500.78
687.96	16697.38
688.10	16336.94
688.23	16252.68
688.37	16418.86
688.50	16365.03
688.64	16290.13
688.78	16463.33
688.91	16102.89
689.05	15873.51
689.18	16107.57
689.32	15662.86
689.46	15896.92
689.59	15932.03
689.73	15805.64
689.86	15721.38
690.00	15735.42
690.13	15566.90
690.27	15386.68
690.41	15667.55
690.54	15616.05
690.68	15482.64
690.81	15543.50
690.95	15276.68
691.08	15712.02
691.22	15342.21
691.35	15248.59
691.49	15234.55
691.62	15274.34
691.76	15183.06
691.89	14930.28
692.03	14780.48
692.16	14801.55
692.30	14647.07
692.43	14759.42
692.57	14579.20
692.70	14705.59
692.84	14586.22
692.97	14459.83
693.11	14672.82
693.24	14462.17
693.38	14333.44
693.51	14253.86
693.65	14452.81
693.78	14104.07
693.92	14150.88
694.05	14143.86
694.19	13949.59
694.32	13949.59
694.45	14148.54
694.59	13848.95
694.72	13671.07
694.86	13738.94
694.99	13392.55
695.13	13727.24
695.26	13631.28
695.39	13373.82
695.53	13568.09
695.66	13532.98
695.80	13411.27
695.93	13472.12
696.07	13507.23
696.20	13565.74
696.33	13123.38
696.47	13362.12
696.60	13312.97
696.73	13085.94
696.87	13193.60
697.00	12966.57
697.14	12917.42
697.27	12751.24
697.40	12807.41
697.54	12662.30
697.67	12599.10
697.80	12720.81
697.94	12430.59
698.07	12355.69
698.21	12299.52
698.34	12512.50
698.47	12156.74
698.61	12215.26
698.74	12472.71
698.87	12196.53
699.01	12006.95
699.14	12203.55
699.27	12140.36
699.40	12116.95
699.54	12042.06
699.67	11941.41
699.80	12091.21
699.94	12018.65
700.07	11925.03
700.20	11634.80
700.34	11496.71
700.47	11424.15
700.60	11559.91
700.73	11349.26
700.87	11482.67
701.00	11475.65
701.13	11281.38
701.26	11571.61
701.40	11431.18
701.53	11250.96
701.66	11445.22
701.79	11136.27
701.93	11276.70
702.06	11360.96
702.19	10881.15
702.32	10895.19
702.46	10824.98
702.59	10710.29
702.72	10731.36
702.85	10672.84
702.99	10602.63
703.12	10729.02
703.25	10590.92
703.38	10478.58
703.51	10490.28
703.65	10448.15
703.78	10324.10
703.91	10476.24
704.04	10413.04
704.17	10396.66
704.31	10328.78
704.44	10335.81
704.57	10188.35
704.70	10066.64
704.83	9921.53
704.96	10050.26
705.10	9930.89
705.23	9879.40
>>>>>End Processed Spectral Data<<<<<
