SpectraSuite Data File
++++++++++++++++++++++++++++++++++++
Date: Fri Oct 18 13:58:13 GMT-05:00 2013
User: bianchi
Dark Spectrum Present: No
Reference Spectrum Present: No
Number of Sampled Component Spectra: 1
Spectrometers: USB2+H05261
Integration Time (usec): 50000 (USB2+H05261)
Spectra Averaged: 1 (USB2+H05261)
Boxcar Smoothing: 0 (USB2+H05261)
Correct for Electrical Dark: No (USB2+H05261)
Strobe/Lamp Enabled: No (USB2+H05261)
Correct for Detector Non-linearity: No (USB2+H05261)
Correct for Stray Light: No (USB2+H05261)
Number of Pixels in Processed Spectrum: 2048
>>>>>Begin Processed Spectral Data<<<<<
365.73	0.00
365.92	0.00
366.12	0.00
366.32	0.00
366.52	0.00
366.72	0.00
366.91	0.00
367.11	0.00
367.31	0.00
367.51	0.00
367.70	0.00
367.90	0.00
368.10	0.00
368.30	0.00
368.49	0.00
368.69	0.00
368.89	0.00
369.09	0.00
369.28	0.00
369.48	0.00
369.68	0.00
369.87	0.00
370.07	0.00
370.27	0.00
370.47	0.00
370.66	51.49
370.86	140.43
371.06	95.96
371.25	110.01
371.45	222.35
371.65	56.17
371.84	63.19
372.04	133.41
372.24	154.48
372.44	138.09
372.63	177.88
372.83	173.20
373.03	215.33
373.22	98.30
373.42	201.29
373.62	128.73
373.81	294.91
374.01	156.82
374.21	290.23
374.40	271.50
374.60	278.52
374.79	198.95
374.99	255.12
375.19	231.71
375.38	252.78
375.58	255.12
375.78	198.95
375.97	241.08
376.17	297.25
376.37	262.14
376.56	271.50
376.76	304.27
376.95	264.48
377.15	264.48
377.35	313.63
377.54	278.52
377.74	304.27
377.93	327.68
378.13	266.82
378.33	252.78
378.52	369.80
378.72	271.50
378.91	374.49
379.11	294.91
379.31	346.40
379.50	264.48
379.70	315.97
379.89	348.74
380.09	224.69
380.28	299.59
380.48	330.02
380.68	198.95
380.87	388.53
381.07	236.39
381.26	334.70
381.46	327.68
381.65	369.80
381.85	360.44
382.04	386.19
382.24	376.83
382.43	386.19
382.63	411.93
382.83	255.12
383.02	376.83
383.22	348.74
383.41	339.38
383.61	344.06
383.80	374.49
384.00	318.31
384.19	362.78
384.39	362.78
384.58	379.17
384.78	367.46
384.97	425.98
385.17	416.62
385.36	407.25
385.56	372.15
385.75	407.25
385.95	440.02
386.14	341.72
386.34	386.19
386.53	428.32
386.72	454.06
386.92	337.04
387.11	465.77
387.31	409.59
387.50	477.47
387.70	491.51
387.89	409.59
388.09	400.23
388.28	479.81
388.48	414.27
388.67	498.53
388.86	500.87
389.06	444.70
389.25	472.79
389.45	425.98
389.64	442.36
389.84	493.85
390.03	461.09
390.22	521.94
390.42	514.92
390.61	421.30
390.81	444.70
391.00	528.96
391.19	512.58
391.39	547.69
391.58	554.71
391.78	514.92
391.97	505.56
392.16	524.28
392.36	496.19
392.55	564.07
392.75	554.71
392.94	533.64
393.13	648.33
393.33	578.11
393.52	568.75
393.71	648.33
393.91	638.97
394.10	638.97
394.29	599.18
394.49	617.90
394.68	622.58
394.88	671.73
395.07	554.71
395.26	645.99
395.46	601.52
395.65	624.92
395.84	713.86
396.04	674.07
396.23	599.18
396.42	648.33
396.62	739.61
396.81	678.76
397.00	706.84
397.19	662.37
397.39	615.56
397.58	716.20
397.77	704.50
397.97	732.59
398.16	720.88
398.35	748.97
398.55	676.41
398.74	667.05
398.93	805.14
399.12	795.78
399.32	772.38
399.51	856.64
399.70	760.67
399.90	697.48
400.09	713.86
400.28	802.80
400.47	760.67
400.67	821.53
400.86	842.59
401.05	702.16
401.24	786.42
401.44	812.17
401.63	868.34
401.82	842.59
402.01	819.19
402.21	910.47
402.40	833.23
402.59	851.96
402.78	877.70
402.97	891.74
403.17	912.81
403.36	931.53
403.55	847.27
403.74	940.90
403.93	898.77
404.13	943.24
404.32	877.70
404.51	936.21
404.70	954.94
404.89	919.83
405.09	959.62
405.28	931.53
405.47	990.05
405.66	922.17
405.85	945.58
406.05	929.19
406.24	1004.09
406.43	1095.37
406.62	1036.86
406.81	1041.54
407.00	1006.43
407.20	1050.90
407.39	1013.45
407.58	1139.84
407.77	1114.10
407.96	1011.11
408.15	1090.69
408.34	1128.14
408.54	1076.65
408.73	1160.91
408.92	1095.37
409.11	1149.20
409.30	1198.35
409.49	1102.39
409.68	1132.82
409.87	1226.44
410.07	1205.38
410.26	1219.42
410.45	1186.65
410.64	1254.53
410.83	1266.23
411.02	1128.14
411.21	1273.25
411.40	1245.16
411.59	1266.23
411.78	1352.83
411.98	1308.36
412.17	1294.32
412.36	1394.96
412.55	1376.24
412.74	1420.71
412.93	1329.42
413.12	1404.32
413.31	1430.07
413.50	1392.62
413.69	1441.77
413.88	1526.03
414.07	1483.90
414.26	1404.32
414.45	1446.45
414.64	1500.28
414.83	1575.18
415.02	1526.03
415.22	1593.90
415.41	1640.72
415.60	1582.20
415.79	1584.54
415.98	1619.65
416.17	1636.03
416.36	1579.86
416.55	1607.95
416.74	1671.14
416.93	1603.27
417.12	1671.14
417.31	1743.70
417.50	1645.40
417.69	1739.02
417.88	1797.53
418.07	1687.53
418.26	1769.44
418.45	1799.87
418.64	1874.77
418.83	1827.96
419.02	1813.92
419.21	1842.00
419.39	1914.56
419.58	1799.87
419.77	1856.04
419.96	1804.55
420.15	1935.62
420.34	1792.85
420.53	1893.49
420.72	2038.61
420.91	1893.49
421.10	1928.60
421.29	1963.71
421.48	1984.77
421.67	2047.97
421.86	2017.54
422.05	2017.54
422.24	1928.60
422.43	2001.16
422.61	2003.50
422.80	1891.15
422.99	2115.84
423.18	2057.33
423.37	2054.99
423.56	1998.82
423.75	2040.95
423.94	1944.99
424.13	1881.79
424.32	1982.43
424.50	2026.90
424.69	2087.76
424.88	2101.80
425.07	2043.29
425.26	2010.52
425.45	2129.89
425.64	2083.08
425.83	2015.20
426.01	2092.44
426.20	2176.70
426.39	2157.97
426.58	2076.06
426.77	2005.84
426.96	2181.38
427.15	2127.55
427.33	2167.34
427.52	2099.46
427.71	2125.21
427.90	2221.17
428.09	2141.59
428.28	2186.06
428.46	2197.76
428.65	2258.62
428.84	2370.96
429.03	2270.32
429.22	2258.62
429.40	2237.55
429.59	2312.45
429.78	2223.51
429.97	2223.51
430.16	2345.22
430.34	2338.20
430.53	2363.94
430.72	2436.50
430.91	2370.96
431.10	2328.83
431.28	2363.94
431.47	2459.90
431.66	2487.99
431.85	2506.71
432.03	2485.65
432.22	2497.35
432.41	2396.71
432.60	2427.14
432.79	2513.74
432.97	2354.58
433.16	2492.67
433.35	2637.78
433.54	2544.16
433.72	2579.27
433.91	2513.74
434.10	2569.91
434.28	2530.12
434.47	2609.70
434.66	2553.52
434.85	2635.44
435.03	2686.94
435.22	2637.78
435.41	2710.34
435.59	2726.72
435.78	2712.68
435.97	2703.32
436.16	2782.90
436.34	2651.83
436.53	2764.17
436.72	2839.07
436.90	2724.38
437.09	2848.43
437.28	2761.83
437.46	2771.19
437.65	2799.28
437.84	2782.90
438.02	2965.46
438.21	2850.77
438.40	2750.13
438.58	2944.39
438.77	2904.60
438.96	2970.14
439.14	3009.93
439.33	3054.40
439.52	3016.95
439.70	3080.14
439.89	3014.61
440.08	3035.67
440.26	3068.44
440.45	3112.91
440.63	3061.42
440.82	3087.17
441.01	3023.97
441.19	3129.30
441.38	3335.26
441.57	3164.40
441.75	3297.81
441.94	3325.90
442.12	3330.58
442.31	3456.97
442.50	3215.90
442.68	3318.88
442.87	3433.57
443.05	3555.27
443.24	3454.63
443.43	3555.27
443.61	3440.59
443.80	3693.37
443.98	3522.51
444.17	3318.88
444.35	3571.66
444.54	3527.19
444.73	3585.70
444.91	3543.57
445.10	3447.61
445.28	3515.48
445.47	3426.54
445.65	3524.85
445.84	3669.96
446.02	3508.46
446.21	3555.27
446.39	3609.11
446.58	3485.06
446.77	3548.25
446.95	3475.70
447.14	3740.18
447.32	3616.13
447.51	3534.21
447.69	3625.49
447.88	3623.15
448.06	3618.47
448.25	3653.58
448.43	3599.74
448.62	3527.19
448.80	3520.17
448.99	3501.44
449.17	3716.77
449.36	3772.94
449.54	3782.31
449.73	3655.92
449.91	3815.07
450.10	3803.37
450.28	3679.32
450.46	3810.39
450.65	3782.31
450.83	3779.97
451.02	3880.61
451.20	3925.08
451.39	3932.10
451.57	3880.61
451.76	3859.54
451.94	3889.97
452.13	3751.88
452.31	3967.21
452.49	3791.67
452.68	3948.48
452.86	3896.99
453.05	3904.01
453.23	4018.70
453.42	3859.54
453.60	3971.89
453.78	4004.66
453.97	3939.12
454.15	3948.48
454.34	3911.04
454.52	4074.87
454.70	4112.32
454.89	4002.32
455.07	4161.47
455.26	4173.18
455.44	4117.00
455.62	4231.69
455.81	4259.78
455.99	4287.86
456.17	4285.52
456.36	4320.63
456.54	4463.40
456.73	4416.59
456.91	4334.67
457.09	4416.59
457.28	4451.70
457.46	4507.87
457.64	4468.08
457.83	4395.53
458.01	4477.44
458.19	4533.62
458.38	4388.50
458.56	4468.08
458.74	4507.87
458.93	4414.25
459.11	4297.22
459.29	4348.72
459.48	4489.15
459.66	4559.36
459.84	4617.88
460.03	4606.17
460.21	4711.50
460.39	4491.49
460.57	4617.88
460.76	4603.83
460.94	4667.03
461.12	4648.30
461.31	4725.54
461.49	4678.73
461.67	4631.92
461.85	4702.14
462.04	4828.53
462.22	5039.17
462.40	4868.31
462.59	4709.16
462.77	4870.65
462.95	4814.48
463.13	4922.15
463.32	4816.82
463.50	5029.81
463.68	4840.23
463.86	4793.42
464.05	4884.70
464.23	5036.83
464.41	4952.57
464.59	4945.55
464.78	5032.15
464.96	4975.98
465.14	4786.40
465.32	4940.87
465.50	5160.88
465.69	5160.88
465.87	5081.30
466.05	5039.17
466.23	5074.28
466.41	5146.84
466.60	5186.63
466.78	5097.69
466.96	5043.85
467.14	5142.16
467.32	5116.41
467.51	5207.69
467.69	5074.28
467.87	5235.78
468.05	5291.95
468.23	5100.03
468.41	5004.07
468.60	5217.05
468.78	5444.09
468.96	5259.18
469.14	5322.38
469.32	5427.70
469.50	5261.52
469.69	5277.91
469.87	5521.32
470.05	5514.30
470.23	5675.80
470.41	5317.70
470.59	5547.07
470.77	5413.66
470.95	5547.07
471.14	5561.11
471.32	5572.82
471.50	5731.97
471.68	5762.40
471.86	5565.79
472.04	5851.34
472.22	5860.70
472.40	5603.24
472.58	5846.66
472.77	5930.92
472.95	5881.77
473.13	6064.33
473.31	6036.24
473.49	5760.06
473.67	5771.76
473.85	6061.99
474.03	5942.62
474.21	6162.63
474.39	6242.21
474.57	6272.64
474.75	6256.25
474.93	6188.38
475.12	6265.61
475.30	6445.84
475.48	6242.21
475.66	6396.68
475.84	6214.12
476.02	6665.85
476.20	6506.69
476.38	6562.86
476.56	6583.93
476.74	6595.63
476.92	6710.32
477.10	6703.29
477.28	6759.47
477.46	6712.66
477.64	6820.32
477.82	6869.47
478.00	7124.59
478.18	7112.89
478.36	7021.61
478.54	7169.06
478.72	7262.68
478.90	7253.32
479.08	7405.46
479.26	7581.00
479.44	7489.71
479.62	7396.09
479.80	7527.16
479.98	7494.40
480.16	7588.02
480.34	7475.67
480.52	7730.79
480.70	7730.79
480.88	7595.04
481.06	7978.89
481.24	7845.48
481.41	8004.63
481.59	8072.51
481.77	8070.17
481.95	8512.53
482.13	8088.89
482.31	8236.35
482.49	8313.58
482.67	8358.05
482.85	8561.68
483.03	8479.76
483.21	8711.47
483.39	8627.21
483.57	8613.17
483.74	8933.82
483.92	8805.10
484.10	8837.86
484.28	9022.77
484.46	9174.90
484.64	9242.78
484.82	9348.10
485.00	9504.92
485.18	9462.79
485.35	9666.41
485.53	9724.93
485.71	9455.76
485.89	9783.44
486.07	9659.39
486.25	9968.34
486.43	9933.23
486.61	9982.38
486.78	10204.74
486.96	10064.30
487.14	10303.04
487.32	10216.44
487.50	10532.41
487.68	10298.36
487.85	10761.78
488.03	10537.09
488.21	10490.28
488.39	10815.62
488.57	10698.59
488.75	10810.93
488.92	11094.14
489.10	10974.77
489.28	11110.52
489.46	11300.11
489.64	11260.32
489.81	11386.71
489.99	11564.59
490.17	11700.34
490.35	11662.89
490.53	11793.96
490.70	11662.89
490.88	11908.65
491.06	11878.22
491.24	11878.22
491.41	12011.63
491.59	12180.15
491.77	12100.57
491.95	12376.75
492.13	12224.62
492.30	12266.75
492.48	12315.90
492.66	12365.05
492.84	12720.81
493.01	12741.88
493.19	12985.29
493.37	13034.44
493.54	12908.05
493.72	12959.55
493.90	13043.81
494.08	13289.56
494.25	13174.88
494.43	13270.84
494.61	13568.09
494.79	13521.27
494.96	13743.63
495.14	13619.58
495.32	13790.44
495.49	13991.72
495.67	13788.10
495.85	13987.04
496.02	14141.52
496.20	13973.00
496.38	14195.35
496.55	14324.08
496.73	14635.37
496.91	14583.88
497.09	14562.81
497.26	14654.09
497.44	14670.48
497.62	14698.56
497.79	14773.46
497.97	14920.92
498.14	14792.19
498.32	15136.24
498.50	14839.00
498.67	15241.57
498.85	15484.98
499.03	15101.14
499.20	15571.58
499.38	15328.17
499.56	15482.64
499.73	15620.74
499.91	15796.28
500.08	15609.03
500.26	15461.58
500.44	15861.81
500.61	15709.68
500.79	15887.56
500.97	15896.92
501.14	16039.69
501.32	15983.52
501.49	16355.66
501.67	16070.12
501.84	16381.41
502.02	16215.23
502.20	16554.61
502.37	16519.50
502.55	16365.03
502.72	16538.23
502.90	16425.88
503.07	16531.20
503.25	16762.92
503.43	16725.47
503.60	16849.52
503.78	16716.11
503.95	16807.39
504.13	17174.85
504.30	16929.09
504.48	16755.90
504.65	17097.61
504.83	17326.99
505.01	17603.17
505.18	17404.22
505.36	17142.08
505.53	17390.18
505.71	17465.08
505.88	17657.00
506.06	17326.99
506.23	17621.89
506.41	17678.07
506.58	17694.45
506.76	17797.43
506.93	17839.56
507.11	17755.30
507.28	17736.58
507.46	17860.63
507.63	18176.60
507.81	18256.18
507.98	18178.94
508.16	18073.62
508.33	18146.17
508.50	18185.96
508.68	18459.81
508.85	18513.64
509.03	18373.21
509.20	18504.28
509.38	19192.39
509.55	18649.39
509.73	18611.94
509.90	18876.42
510.08	18801.52
510.25	18677.48
510.42	18822.59
510.60	18871.74
510.77	19087.07
510.95	18923.23
511.12	19150.26
511.30	19199.41
511.47	19442.83
511.64	18906.85
511.82	19510.71
511.99	19297.72
512.17	19604.33
512.34	19058.98
512.51	19491.98
512.69	19520.07
512.86	19716.67
513.04	20439.90
513.21	19964.77
513.38	20180.10
513.56	20042.01
513.73	19775.19
513.90	19892.21
514.08	19974.13
514.25	20027.96
514.43	20247.97
514.60	20159.03
514.77	20287.76
514.95	20212.87
515.12	20231.59
515.29	20135.63
515.47	20428.20
515.64	20360.32
515.81	20561.61
515.99	20498.41
516.16	20861.19
516.33	20641.18
516.51	20793.32
516.68	20711.40
516.85	20847.15
517.03	20744.17
517.20	20989.92
517.37	21092.91
517.54	20971.20
517.72	21074.18
517.89	21144.40
518.06	21158.44
518.24	21074.18
518.41	21153.76
518.58	21092.91
518.75	21298.88
518.93	21167.80
519.10	21617.19
519.27	21528.25
519.45	21521.23
519.62	21448.67
519.79	21612.51
519.96	21598.46
520.14	21586.76
520.31	21504.84
520.48	21675.70
520.65	21893.37
520.83	22066.57
521.00	21806.77
521.17	21734.21
521.34	22242.11
521.52	22277.22
521.69	21783.37
521.86	21991.67
522.03	22333.39
522.20	22087.64
522.38	22157.85
522.55	22237.43
522.72	22326.37
522.89	22197.64
523.07	22609.58
523.24	22677.45
523.41	22424.67
523.58	22541.70
523.75	22480.85
523.92	22466.80
524.10	23058.96
524.27	22661.07
524.44	22611.92
524.61	23033.21
524.78	22745.33
524.96	22822.56
525.13	22977.04
525.30	23056.62
525.47	22721.92
525.64	23388.97
525.81	23358.55
525.98	23133.86
526.16	23257.90
526.33	23496.64
526.50	23623.03
526.67	23143.22
526.84	23278.97
527.01	23281.31
527.18	23543.45
527.36	23833.68
527.53	23559.83
527.70	23494.30
527.87	23793.89
528.04	23688.56
528.21	23637.07
528.38	23637.07
528.55	23836.02
528.72	24065.39
528.89	23920.28
529.07	23660.48
529.24	23934.32
529.41	23983.47
529.58	23873.46
529.75	23777.50
529.92	24320.51
530.09	24374.34
530.26	24226.89
530.43	24266.67
530.60	24271.36
530.77	24388.38
530.94	24362.64
531.11	24046.66
531.28	24175.39
531.46	24587.33
531.63	24388.38
531.80	24503.07
531.97	24657.54
532.14	24875.21
532.31	24428.17
532.48	24577.97
532.65	24835.42
532.82	24615.41
532.99	24891.60
533.16	25088.20
533.33	25137.35
533.50	25151.40
533.67	25017.99
533.84	24851.81
534.01	24996.92
534.18	25001.60
534.35	25039.05
534.52	24992.24
534.69	25476.73
534.86	25275.45
535.03	24919.68
535.20	25172.46
535.37	25378.43
535.54	25333.96
535.71	25181.82
535.88	25294.17
536.05	25216.93
536.22	25242.68
536.38	25465.03
536.55	25539.93
536.72	26096.97
536.89	25291.83
537.06	25610.14
537.23	25474.39
537.40	25378.43
537.57	25799.73
537.74	25785.68
537.91	25708.44
538.08	25813.77
538.25	25769.30
538.42	25689.72
538.59	26139.10
538.75	25900.37
538.92	26033.78
539.09	25839.51
539.26	25968.24
539.43	26169.53
539.60	26214.00
539.77	26017.40
539.94	26616.57
540.11	26040.80
540.28	26047.82
540.44	26178.89
540.61	26022.08
540.78	26354.43
540.95	26431.67
541.12	26415.29
541.29	26277.19
541.46	26345.07
541.62	26525.29
541.79	25998.67
541.96	26412.95
542.13	26272.51
542.30	26274.85
542.47	26544.02
542.63	26721.90
542.80	26611.89
542.97	26899.78
543.14	26696.15
543.31	27080.00
543.48	26759.34
543.64	27253.20
543.81	27246.18
543.98	27295.33
544.15	27164.26
544.32	27412.35
544.48	27321.07
544.65	26810.84
544.82	26721.90
544.99	26771.05
545.16	26815.52
545.32	27166.60
545.49	27861.74
545.66	27346.82
545.83	27662.79
546.00	27585.55
546.16	26902.12
546.33	27332.78
546.50	27016.80
546.67	27592.58
546.83	27218.09
547.00	27496.61
547.17	27740.03
547.34	27630.02
547.50	27894.50
547.67	28065.36
547.84	27765.78
548.00	27484.91
548.17	27620.66
548.34	27761.09
548.51	27955.36
548.67	27936.63
548.84	28158.99
549.01	27208.73
549.18	27641.73
549.34	27700.24
549.51	27955.36
549.68	28053.66
549.84	27763.43
550.01	27995.15
550.18	27758.75
550.34	28224.52
550.51	27931.95
550.68	28294.74
550.84	28128.56
551.01	27789.18
551.18	28212.82
551.34	28496.02
551.51	28121.54
551.68	28292.40
551.84	28505.38
552.01	28226.86
552.18	28334.53
552.34	28013.87
552.51	28744.12
552.68	28664.54
552.84	28577.94
553.01	28414.10
553.18	28563.90
553.34	28414.10
553.51	28301.76
553.67	28645.82
553.84	28971.15
554.01	28779.23
554.17	28540.49
554.34	28591.98
554.51	28425.81
554.67	28411.76
554.84	28634.11
555.00	28900.94
555.17	28563.90
555.33	28500.70
555.50	28950.09
555.67	28821.36
555.83	28783.91
556.00	28828.38
556.16	29397.13
556.33	28746.46
556.50	28931.36
556.66	29144.35
556.83	28678.58
556.99	28940.72
557.16	29315.21
557.32	29228.61
557.49	29223.93
557.65	28781.57
557.82	28896.25
557.98	29305.85
558.15	28776.89
558.32	29319.89
558.48	29219.25
558.65	29563.31
558.81	29383.09
558.98	29401.81
559.14	29394.79
559.31	29022.64
559.47	29495.43
559.64	29385.43
559.80	29362.02
559.97	29209.89
560.13	29322.23
560.30	29387.77
560.46	29352.66
560.63	29441.60
560.79	29198.18
560.96	29338.62
561.12	29331.59
561.29	29137.33
561.45	29872.26
561.61	29647.57
561.78	29780.98
561.94	29432.24
562.11	29708.42
562.27	30305.26
562.44	29347.98
562.60	29261.38
562.77	29469.69
562.93	29525.86
563.10	30003.33
563.26	29483.73
563.42	30188.23
563.59	29926.09
563.75	29567.99
563.92	29788.00
564.08	29743.53
564.24	29797.36
564.41	29750.55
564.57	29291.80
564.74	29958.86
564.90	29743.53
565.07	29666.29
565.23	30094.61
565.39	29696.72
565.56	29958.86
565.72	29670.97
565.88	29792.68
566.05	29799.70
566.21	29886.30
566.38	29975.24
566.54	30094.61
566.70	30132.06
566.87	30082.91
567.03	29837.15
567.19	30045.46
567.36	29916.73
567.52	30052.48
567.68	30368.45
567.85	30230.36
568.01	29982.26
568.17	29874.60
568.34	30162.48
568.50	30015.03
568.66	30340.36
568.83	30164.82
568.99	30071.20
569.15	30087.59
569.32	29930.77
569.48	29715.44
569.64	30213.98
569.81	30139.08
569.97	30260.79
570.13	30169.51
570.30	30061.84
570.46	30307.60
570.62	30345.05
570.78	30024.39
570.95	29921.41
571.11	30417.60
571.27	29996.31
571.43	30206.95
571.60	30328.66
571.76	30492.50
571.92	30171.85
572.09	30436.33
572.25	29937.79
572.41	30230.36
572.57	30272.49
572.74	30450.37
572.90	29951.84
573.06	30536.97
573.22	30171.85
573.38	30478.46
573.55	30314.62
573.71	30396.54
573.87	30611.87
574.03	30171.85
574.20	30707.83
574.36	30209.29
574.52	30258.45
574.68	30448.03
574.84	30513.56
575.01	30529.95
575.17	30646.97
575.33	30125.04
575.49	30352.07
575.65	30712.51
575.82	30307.60
575.98	30286.53
576.14	30405.90
576.30	30536.97
576.46	30015.03
576.62	30326.32
576.79	30431.65
576.95	30403.56
577.11	30534.63
577.27	30724.21
577.43	30600.16
577.59	30726.55
577.75	30384.83
577.92	30532.29
578.08	30403.56
578.24	30267.81
578.40	30263.13
578.56	30654.00
578.72	30359.09
578.88	30321.64
579.04	30689.10
579.21	30628.25
579.37	30756.98
579.53	30328.66
579.69	30396.54
579.85	30417.60
580.01	30181.21
580.17	30274.83
580.33	30480.80
580.49	31054.23
580.65	30448.03
580.82	30490.16
580.98	30841.24
581.14	30331.00
581.30	30677.40
581.46	30618.89
581.62	30728.89
581.78	30286.53
581.94	30731.23
582.10	30635.27
582.26	30211.64
582.42	30405.90
582.58	30731.23
582.74	30480.80
582.90	30742.94
583.06	30628.25
583.22	30609.53
583.38	30384.83
583.54	30649.32
583.70	30658.68
583.86	30394.20
584.02	30101.63
584.18	31346.79
584.34	30899.75
584.50	30593.14
584.66	31077.63
584.82	30565.06
584.98	30691.44
585.14	30628.25
585.30	30525.27
585.46	30625.91
585.62	30494.84
585.78	31021.46
585.94	30469.09
586.10	30597.82
586.26	30721.87
586.42	30761.66
586.58	31075.29
586.74	30710.17
586.90	30567.40
587.06	30174.19
587.22	30689.10
587.38	30515.90
587.54	30740.60
587.70	30911.46
587.86	31150.19
588.02	30607.19
588.18	31482.55
588.34	30960.61
588.49	30829.54
588.65	31260.20
588.81	30415.26
588.97	30974.65
589.13	30888.05
589.29	30534.63
589.45	30810.81
589.61	31047.21
589.77	31316.37
589.93	31234.45
590.08	31255.51
590.24	31189.98
590.40	30969.97
590.56	31056.57
590.72	31091.68
590.88	30969.97
591.04	30785.07
591.20	31079.97
591.35	31505.95
591.51	31564.46
591.67	31065.93
591.83	31353.82
591.99	31246.15
592.15	31168.91
592.31	30820.17
592.46	31019.12
592.62	31005.08
592.78	31014.44
592.94	30934.86
593.10	30712.51
593.26	31229.77
593.41	31072.95
593.57	31339.77
593.73	31187.64
593.89	30909.11
594.05	31105.72
594.20	31365.52
594.36	31548.08
594.52	31068.27
594.68	30726.55
594.84	30590.80
594.99	31180.62
595.15	31068.27
595.31	30920.82
595.47	31316.37
595.62	31260.20
595.78	31515.31
595.94	31035.50
596.10	31091.68
596.25	31297.64
596.41	30799.11
596.57	30967.63
596.73	31255.51
596.88	30771.02
597.04	31641.70
597.20	31648.72
597.36	31000.40
597.51	31789.16
597.67	30845.92
597.83	30801.45
597.99	30993.37
598.14	31232.11
598.30	31122.10
598.46	31491.91
598.61	31503.61
598.77	31012.10
598.93	31335.09
599.09	31782.13
599.24	31475.52
599.40	31292.96
599.56	31552.76
599.71	31295.30
599.87	30831.88
600.03	31314.03
600.18	31101.04
600.34	31262.54
600.50	31096.36
600.65	31307.01
600.81	31552.76
600.97	31683.83
601.12	31257.85
601.28	31786.82
601.44	31927.25
601.59	31503.61
601.75	31381.90
601.91	31564.46
602.06	31555.10
602.22	31454.46
602.37	31353.82
602.53	31285.94
602.69	31323.39
602.84	31276.58
603.00	31229.77
603.16	31917.89
603.31	31515.31
603.47	31433.39
603.62	31241.47
603.78	31236.79
603.94	31290.62
604.09	31342.11
604.25	31192.32
604.40	30993.37
604.56	31473.18
604.71	31630.00
604.87	31089.34
605.03	31250.83
605.18	31519.99
605.34	31187.64
605.49	31232.11
605.65	31234.45
605.80	30824.86
605.96	31285.94
606.12	30948.90
606.27	31482.55
606.43	30864.64
606.58	31206.36
606.74	31407.65
606.89	31295.30
607.05	31175.94
607.20	30979.33
607.36	31248.49
607.51	31704.90
607.67	31309.35
607.82	30944.22
607.98	30937.20
608.13	30934.86
608.29	31337.43
608.44	31246.15
608.60	31143.17
608.75	31189.98
608.91	31206.36
609.06	31005.08
609.22	31234.45
609.37	30764.00
609.53	31005.08
609.68	30960.61
609.84	31012.10
609.99	30785.07
610.15	30927.84
610.30	31171.25
610.46	30724.21
610.61	31140.83
610.76	30967.63
610.92	31283.60
611.07	30693.79
611.23	31030.82
611.38	31023.80
611.54	30546.33
611.69	30916.14
611.84	30785.07
612.00	30834.22
612.15	31391.26
612.31	31007.42
612.46	30630.59
612.62	31309.35
612.77	31023.80
612.92	31477.86
613.08	30675.06
613.23	31033.16
613.39	30951.24
613.54	30780.39
613.69	30738.26
613.85	30827.20
614.00	30721.87
614.15	30759.32
614.31	30778.04
614.46	30892.73
614.62	30801.45
614.77	30738.26
614.92	30941.88
615.08	30710.17
615.23	30824.86
615.38	30836.56
615.54	30448.03
615.69	30326.32
615.84	30445.69
616.00	30478.46
616.15	30506.54
616.30	30609.53
616.46	30532.29
616.61	30829.54
616.76	31058.91
616.92	30771.02
617.07	30848.26
617.22	30204.61
617.37	30548.67
617.53	30539.31
617.68	30244.40
617.83	30415.26
617.99	30089.93
618.14	30356.75
618.29	30609.53
618.45	30115.67
618.60	30618.89
618.75	30553.35
618.90	30235.04
619.06	30171.85
619.21	30010.35
619.36	30522.93
619.51	30040.78
619.67	30029.07
619.82	29783.32
619.97	30155.46
620.12	30089.93
620.28	30253.76
620.43	30405.90
620.58	30059.50
620.73	30672.72
620.89	30345.05
621.04	30150.78
621.19	29996.31
621.34	30073.54
621.49	29916.73
621.65	29818.42
621.80	29813.74
621.95	29940.13
622.10	29846.51
622.25	29865.24
622.41	29846.51
622.56	30181.21
622.71	30354.41
622.86	29940.13
623.01	29942.47
623.16	29797.36
623.32	29385.43
623.47	29472.03
623.62	30223.34
623.77	29909.71
623.92	29958.86
624.07	29773.95
624.23	29743.53
624.38	29741.19
624.53	29731.83
624.68	30043.12
624.83	29949.50
624.98	30328.66
625.13	29376.06
625.29	30026.73
625.44	29275.42
625.59	29546.92
625.74	29429.90
625.89	29287.12
626.04	29804.38
626.19	29333.93
626.34	29670.97
626.49	29446.28
626.65	29390.11
626.80	29717.78
626.95	29635.86
627.10	29345.64
627.25	29425.22
627.40	29259.04
627.55	29249.67
627.70	29261.38
627.85	29050.73
628.00	29149.03
628.15	29294.14
628.30	29036.69
628.45	29312.87
628.60	29640.54
628.76	29404.15
628.91	29542.24
629.06	28922.00
629.21	28926.68
629.36	29443.94
629.51	29254.36
629.66	29413.51
629.81	28505.38
629.96	28933.70
630.11	28968.81
630.26	29010.94
630.41	28606.03
630.56	28940.72
630.71	29095.20
630.86	28910.30
631.01	29036.69
631.16	29151.37
631.31	28900.94
631.46	28966.47
631.61	28943.06
631.76	28809.65
631.91	28800.29
632.06	28842.42
632.21	28683.27
632.36	28748.80
632.51	28701.99
632.66	28891.57
632.81	28496.02
632.96	28919.66
633.10	28615.39
633.25	28861.15
633.40	28563.90
633.55	28924.34
633.70	28285.37
633.85	28435.17
634.00	28547.51
634.15	28301.76
634.30	28245.58
634.45	28123.88
634.60	28102.81
634.75	28032.60
634.90	28570.92
635.05	28465.60
635.19	28453.89
635.34	28840.08
635.49	28474.96
635.64	28437.51
635.79	28418.78
635.94	28130.90
636.09	28510.07
636.24	28268.99
636.39	27861.74
636.53	28446.87
636.68	28505.38
636.83	28631.77
636.98	28498.36
637.13	28322.82
637.28	28355.59
637.43	28435.17
637.57	28489.00
637.72	28463.25
637.87	27915.57
638.02	28240.90
638.17	28011.53
638.32	28023.23
638.46	27988.13
638.61	27826.63
638.76	27756.41
638.91	27955.36
639.06	27922.59
639.20	27871.10
639.35	28081.75
639.50	28173.03
639.65	28292.40
639.80	28130.90
639.94	27665.13
640.09	28149.62
640.24	28084.09
640.39	27725.99
640.54	27725.99
640.68	27681.52
640.83	27503.64
640.98	27662.79
641.13	27199.37
641.27	27594.92
641.42	27206.39
641.57	27777.48
641.72	27775.14
641.86	27405.33
642.01	27573.85
642.16	27737.69
642.31	27527.04
642.45	27428.74
642.60	27388.95
642.75	27644.07
642.90	27232.13
643.04	27393.63
643.19	27803.22
643.34	27527.04
643.48	27637.05
643.63	27292.99
643.78	27864.08
643.93	27580.87
644.07	27543.42
644.22	27557.47
644.37	27770.46
644.51	27608.96
644.66	26813.18
644.81	26955.95
644.95	27133.83
645.10	27281.28
645.25	27166.60
645.39	27152.55
645.54	27360.86
645.69	27075.32
645.83	27227.45
645.98	26941.91
646.13	27412.35
646.27	27412.35
646.42	27157.24
646.57	27204.05
646.71	27199.37
646.86	27220.43
647.00	26899.78
647.15	27084.68
647.30	26918.50
647.44	26684.45
647.59	27075.32
647.74	26803.82
647.88	26895.10
648.03	26937.23
648.17	27178.30
648.32	26911.48
648.47	27417.04
648.61	27161.92
648.76	27023.83
648.90	26850.63
649.05	26902.12
649.20	26665.72
649.34	26740.62
649.49	26780.41
649.63	26401.24
649.78	26946.59
649.92	26728.92
650.07	26878.71
650.21	26635.30
650.36	26902.12
650.51	26464.44
650.65	26513.59
650.80	26366.13
650.94	26602.53
651.09	26609.55
651.23	26560.40
651.38	26471.46
651.52	26347.41
651.67	26717.22
651.81	26410.60
651.96	26799.13
652.10	26412.95
652.25	26394.22
652.39	26712.53
652.54	26153.15
652.68	26567.42
652.83	26368.48
652.97	26616.57
653.12	26426.99
653.26	26108.68
653.41	26455.08
653.55	26356.77
653.70	26164.85
653.84	26249.11
653.99	26246.77
654.13	26457.42
654.27	25893.35
654.42	26190.59
654.56	26319.32
654.71	26103.99
654.85	26508.91
655.00	26162.51
655.14	26185.91
655.29	26136.76
655.43	26089.95
655.57	26103.99
655.72	25975.27
655.86	26085.27
656.01	26265.49
656.15	26038.46
656.30	26005.69
656.44	26155.49
656.58	25715.47
656.73	25926.11
656.87	25928.45
657.01	26099.31
657.16	26061.87
657.30	26036.12
657.45	26052.50
657.59	25853.56
657.73	25937.82
657.88	25891.01
658.02	25523.54
658.16	25614.82
658.31	25621.84
658.45	25785.68
658.60	25441.62
658.74	25256.72
658.88	25448.64
659.03	25898.03
659.17	25303.53
659.31	25544.61
659.46	25635.89
659.60	25624.18
659.74	25422.90
659.89	25872.28
660.03	25415.88
660.17	25366.73
660.32	25460.35
660.46	25277.79
660.60	25408.86
660.74	25488.43
660.89	25319.92
661.03	24706.70
661.17	25259.06
661.32	25308.21
661.46	25139.69
661.60	25467.37
661.74	24924.36
661.89	25123.31
662.03	25109.27
662.17	24765.21
662.31	25092.88
662.46	24882.24
662.60	24915.00
662.74	24837.76
662.88	24889.26
663.03	24596.69
663.17	24828.40
663.31	24568.60
663.45	24357.96
663.60	24507.75
663.74	24547.54
663.88	24680.95
664.02	24807.34
664.17	24702.01
664.31	24362.64
664.45	23955.38
664.59	24315.83
664.73	24271.36
664.88	24425.83
665.02	24074.75
665.16	24095.82
665.30	24444.56
665.44	24599.03
665.59	23826.65
665.73	24067.73
665.87	23875.80
666.01	23847.72
666.15	24418.81
666.29	24018.58
666.44	24189.44
666.58	23718.99
666.72	23616.01
666.86	23665.16
667.00	24093.47
667.14	23878.15
667.28	23917.93
667.43	23917.93
667.57	23639.41
667.71	23679.20
667.85	23819.63
667.99	23599.62
668.13	23555.15
668.27	23821.97
668.41	23655.79
668.56	23295.35
668.70	23756.44
668.84	23597.28
668.98	23667.50
669.12	23349.18
669.26	23213.43
669.40	23229.82
669.54	23236.84
669.68	22984.06
669.82	22934.91
669.96	23243.86
670.10	23180.67
670.25	23187.69
670.39	23065.98
670.53	23131.51
670.67	22602.55
670.81	22764.05
670.95	22991.08
671.09	22726.60
671.23	22895.12
671.37	22567.45
671.51	22834.27
671.65	23278.97
671.79	22658.73
671.93	22799.16
672.07	22700.86
672.21	22244.45
672.35	22537.02
672.49	22267.86
672.63	22490.21
672.77	22075.93
672.91	22295.94
673.05	22345.09
673.19	22026.78
673.33	21895.71
673.47	22134.45
673.61	22221.05
673.75	22085.30
673.89	21914.44
674.03	21961.25
674.17	22024.44
674.31	22188.28
674.45	22057.21
674.59	22094.66
674.73	21972.95
674.87	21561.02
675.01	21586.76
675.15	21568.04
675.29	21443.99
675.43	21343.35
675.56	21561.02
675.70	21392.50
675.84	21434.63
675.98	21097.59
676.12	21654.64
676.26	21605.49
676.40	21420.58
676.54	21088.23
676.68	21303.56
676.82	20472.67
676.96	20758.21
677.10	21163.12
677.23	20926.73
677.37	20648.21
677.51	20858.85
677.65	20767.57
677.79	20615.44
677.93	20725.44
678.07	20482.03
678.21	20374.36
678.34	20542.88
678.48	20322.87
678.62	19992.86
678.76	20383.73
678.90	20208.19
679.04	20226.91
679.18	20203.50
679.31	20114.56
679.45	20060.73
679.59	19407.72
679.73	19854.76
679.87	19810.29
680.00	19765.82
680.14	19442.83
680.28	19726.04
680.42	19667.52
680.56	19697.95
680.70	19571.56
680.83	19482.62
680.97	19311.76
681.11	19281.33
681.25	19538.79
681.39	19445.17
681.52	19248.57
681.66	19199.41
681.80	18998.13
681.94	19021.53
682.07	18974.72
682.21	18867.06
682.35	18864.72
682.49	18609.60
682.62	18600.24
682.76	18483.21
682.90	18689.18
683.04	18595.56
683.17	18310.01
683.31	18218.73
683.45	18356.82
683.59	18530.02
683.72	18162.56
683.86	18492.57
684.00	18239.79
684.13	18190.64
684.27	17996.38
684.41	18115.75
684.55	17867.65
684.68	17610.19
684.82	17565.72
684.96	17532.95
685.09	17668.70
685.23	17509.55
685.37	17642.96
685.50	17731.90
685.64	17523.59
685.78	17451.03
685.91	17769.35
686.05	17586.79
686.19	17441.67
686.32	17589.13
686.46	17158.47
686.60	17348.05
686.73	17294.22
686.87	17039.10
687.01	17013.35
687.14	16915.05
687.28	16835.47
687.42	16664.61
687.55	16800.37
687.69	16769.94
687.82	16702.06
687.96	16617.80
688.10	16739.51
688.23	16765.26
688.37	16205.87
688.50	16240.98
688.64	16306.51
688.78	16255.02
688.91	16044.37
689.05	16339.28
689.18	15922.66
689.32	15604.35
689.46	15707.34
689.59	16042.03
689.73	15908.62
689.86	15756.49
690.00	15543.50
690.13	15789.25
690.27	15571.58
690.41	15901.60
690.54	15484.98
690.68	15466.26
690.81	15520.09
690.95	15571.58
691.08	15562.22
691.22	15440.51
691.35	15110.50
691.49	15492.01
691.62	15220.50
691.76	15232.21
691.89	14787.50
692.03	14792.19
692.16	14747.72
692.30	14796.87
692.43	14668.14
692.57	14810.91
692.70	14728.99
692.84	14558.13
692.97	14450.47
693.11	14721.97
693.24	14272.59
693.38	14457.49
693.51	14628.35
693.65	14284.29
693.78	14553.45
693.92	14427.06
694.05	14171.94
694.19	14232.80
694.32	14087.68
694.45	13872.36
694.59	13977.68
694.72	13916.83
694.86	13823.20
694.99	13598.51
695.13	13680.43
695.26	13603.19
695.39	13411.27
695.53	13593.83
695.66	13415.95
695.80	13455.74
695.93	13544.68
696.07	13465.10
696.20	13280.20
696.33	13149.13
696.47	13362.12
696.60	13249.77
696.73	13114.02
696.87	12896.35
697.00	12950.18
697.14	12989.97
697.27	12886.99
697.40	12531.23
697.54	12744.22
697.67	12835.50
697.80	12470.37
697.94	12475.06
698.07	12278.45
698.21	12449.31
698.34	12533.57
698.47	12788.69
698.61	12580.38
698.74	12472.71
698.87	12463.35
699.01	12365.05
699.14	12203.55
699.27	11627.78
699.40	11967.16
699.54	12191.85
699.67	11978.86
699.80	11838.43
699.94	11676.93
700.07	11768.21
700.20	11742.47
700.34	11604.38
700.47	11515.44
700.60	11606.72
700.73	11562.25
700.87	11522.46
701.00	11545.86
701.13	11330.53
701.26	11641.82
701.40	11386.71
701.53	11396.07
701.66	11201.80
701.79	11267.34
701.93	11227.55
702.06	11147.97
702.19	11012.22
702.32	11042.65
702.46	10843.70
702.59	10714.97
702.72	10787.53
702.85	10595.61
702.99	10672.84
703.12	10651.78
703.25	10740.72
703.38	10485.60
703.51	10534.75
703.65	10516.03
703.78	10520.71
703.91	10459.85
704.04	10626.03
704.17	10450.49
704.31	10441.13
704.44	10155.58
704.57	10104.09
704.70	10054.94
704.83	9893.44
704.96	10113.45
705.10	9781.10
705.23	9912.17
>>>>>End Processed Spectral Data<<<<<
