SpectraSuite Data File
++++++++++++++++++++++++++++++++++++
Date: Fri Oct 18 13:58:08 GMT-05:00 2013
User: bianchi
Dark Spectrum Present: No
Reference Spectrum Present: No
Number of Sampled Component Spectra: 1
Spectrometers: USB2+H05261
Integration Time (usec): 50000 (USB2+H05261)
Spectra Averaged: 1 (USB2+H05261)
Boxcar Smoothing: 0 (USB2+H05261)
Correct for Electrical Dark: No (USB2+H05261)
Strobe/Lamp Enabled: No (USB2+H05261)
Correct for Detector Non-linearity: No (USB2+H05261)
Correct for Stray Light: No (USB2+H05261)
Number of Pixels in Processed Spectrum: 2048
>>>>>Begin Processed Spectral Data<<<<<
365.73	0.00
365.92	0.00
366.12	0.00
366.32	0.00
366.52	0.00
366.72	0.00
366.91	0.00
367.11	0.00
367.31	0.00
367.51	0.00
367.70	0.00
367.90	0.00
368.10	0.00
368.30	0.00
368.49	0.00
368.69	0.00
368.89	0.00
369.09	0.00
369.28	0.00
369.48	0.00
369.68	0.00
369.87	0.00
370.07	0.00
370.27	0.00
370.47	0.00
370.66	77.24
370.86	187.24
371.06	124.05
371.25	112.35
371.45	98.30
371.65	98.30
371.84	184.90
372.04	156.82
372.24	133.41
372.44	152.13
372.63	156.82
372.83	248.10
373.03	147.45
373.22	205.97
373.42	189.58
373.62	182.56
373.81	248.10
374.01	313.63
374.21	231.71
374.40	252.78
374.60	224.69
374.79	245.76
374.99	255.12
375.19	257.46
375.38	325.33
375.58	271.50
375.78	250.44
375.97	250.44
376.17	229.37
376.37	297.25
376.56	250.44
376.76	269.16
376.95	278.52
377.15	318.31
377.35	341.72
377.54	278.52
377.74	318.31
377.93	266.82
378.13	262.14
378.33	334.70
378.52	257.46
378.72	322.99
378.91	294.91
379.11	337.04
379.31	231.71
379.50	259.80
379.70	308.95
379.89	292.57
380.09	283.20
380.28	278.52
380.48	315.97
380.68	294.91
380.87	351.08
381.07	362.78
381.26	322.99
381.46	299.59
381.65	276.18
381.85	276.18
382.04	269.16
382.24	315.97
382.43	334.70
382.63	304.27
382.83	360.44
383.02	313.63
383.22	313.63
383.41	381.51
383.61	330.02
383.80	325.33
384.00	318.31
384.19	400.23
384.39	449.38
384.58	334.70
384.78	355.76
384.97	388.53
385.17	397.89
385.36	395.55
385.56	341.72
385.75	299.59
385.95	416.62
386.14	414.27
386.34	407.25
386.53	430.66
386.72	440.02
386.92	367.46
387.11	353.42
387.31	416.62
387.50	369.80
387.70	388.53
387.89	451.72
388.09	418.96
388.28	348.74
388.48	465.77
388.67	454.06
388.86	482.15
389.06	472.79
389.25	449.38
389.45	423.64
389.64	451.72
389.84	475.13
390.03	465.77
390.22	484.49
390.42	463.43
390.61	517.26
390.81	477.47
391.00	468.11
391.19	454.06
391.39	554.71
391.58	528.96
391.78	535.98
391.97	557.05
392.16	461.09
392.36	585.13
392.55	547.69
392.75	547.69
392.94	524.28
393.13	550.03
393.33	552.37
393.52	489.17
393.71	620.24
393.91	615.56
394.10	486.83
394.29	629.60
394.49	596.84
394.68	653.01
394.88	592.16
395.07	650.67
395.26	671.73
395.46	641.31
395.65	599.18
395.84	657.69
396.04	641.31
396.23	641.31
396.42	641.31
396.62	683.44
396.81	746.63
397.00	638.97
397.19	557.05
397.39	634.29
397.58	683.44
397.77	589.82
397.97	723.23
398.16	688.12
398.35	774.72
398.55	671.73
398.74	828.55
398.93	812.17
399.12	702.16
399.32	755.99
399.51	704.50
399.70	786.42
399.90	779.40
400.09	786.42
400.28	809.83
400.47	774.72
400.67	844.93
400.86	807.48
401.05	821.53
401.24	772.38
401.44	699.82
401.63	821.53
401.82	847.27
402.01	809.83
402.21	873.02
402.40	798.12
402.59	830.89
402.78	915.15
402.97	819.19
403.17	795.78
403.36	908.13
403.55	849.61
403.74	912.81
403.93	912.81
404.13	938.55
404.32	849.61
404.51	891.74
404.70	887.06
404.89	877.70
405.09	1008.77
405.28	954.94
405.47	980.68
405.66	976.00
405.85	1022.81
406.05	985.37
406.24	894.08
406.43	1020.47
406.62	1006.43
406.81	1107.07
407.00	1086.01
407.20	1062.60
407.39	1053.24
407.58	1062.60
407.77	1074.31
407.96	1130.48
408.15	1104.73
408.34	1142.18
408.54	1046.22
408.73	1142.18
408.92	1095.37
409.11	1174.95
409.30	1121.12
409.49	1116.44
409.68	1125.80
409.87	1245.16
410.07	1217.08
410.26	1158.57
410.45	1277.93
410.64	1181.97
410.83	1301.34
411.02	1184.31
411.21	1144.52
411.40	1238.14
411.59	1329.42
411.78	1203.04
411.98	1299.00
412.17	1282.61
412.36	1299.00
412.55	1392.62
412.74	1427.73
412.93	1282.61
413.12	1352.83
413.31	1472.20
413.50	1329.42
413.69	1369.21
413.88	1413.68
414.07	1399.64
414.26	1488.58
414.45	1448.79
414.64	1586.88
414.83	1479.22
415.02	1640.72
415.22	1441.77
415.41	1680.50
415.60	1516.67
415.79	1589.22
415.98	1544.75
416.17	1633.69
416.36	1600.93
416.55	1666.46
416.74	1652.42
416.93	1631.35
417.12	1689.87
417.31	1645.40
417.50	1732.00
417.69	1757.74
417.88	1713.27
418.07	1736.68
418.26	1699.23
418.45	1832.64
418.64	1865.41
418.83	1792.85
419.02	1849.02
419.21	1816.26
419.39	1834.98
419.58	1832.64
419.77	1916.90
419.96	1870.09
420.15	1870.09
420.34	1790.51
420.53	1956.69
420.72	1881.79
420.91	1912.22
421.10	2052.65
421.29	2001.16
421.48	1856.04
421.67	1898.17
421.86	1877.11
422.05	2066.69
422.24	2024.56
422.43	2008.18
422.61	1935.62
422.80	1968.39
422.99	2005.84
423.18	1994.14
423.37	2071.37
423.56	2097.12
423.75	1949.67
423.94	1954.35
424.13	1933.28
424.32	1996.48
424.50	2050.31
424.69	2064.35
424.88	2069.03
425.07	2038.61
425.26	2083.08
425.45	2054.99
425.64	2010.52
425.83	2017.54
426.01	2172.02
426.20	2143.93
426.39	2099.46
426.58	2043.29
426.77	2160.31
426.96	2120.53
427.15	2050.31
427.33	2078.40
427.52	2188.40
427.71	2127.55
427.90	2157.97
428.09	2139.25
428.28	2209.47
428.46	2253.94
428.65	2129.89
428.84	2256.28
429.03	2377.98
429.22	2078.40
429.40	2291.38
429.59	2370.96
429.78	2148.61
429.97	2153.29
430.16	2317.13
430.34	2438.84
430.53	2394.37
430.72	2293.72
430.91	2218.83
431.10	2359.26
431.28	2352.24
431.47	2363.94
431.66	2502.03
431.85	2399.05
432.03	2459.90
432.22	2436.50
432.41	2495.01
432.60	2455.22
432.79	2438.84
432.97	2466.92
433.16	2380.32
433.35	2473.95
433.54	2541.82
433.72	2530.12
433.91	2485.65
434.10	2473.95
434.28	2553.52
434.47	2574.59
434.66	2539.48
434.85	2656.51
435.03	2583.95
435.22	2562.89
435.41	2689.28
435.59	2719.70
435.78	2654.17
435.97	2722.04
436.16	2665.87
436.34	2619.06
436.53	2729.06
436.72	2799.28
436.90	2710.34
437.09	2530.12
437.28	2677.57
437.46	2691.62
437.65	2764.17
437.84	2825.03
438.02	2752.47
438.21	2778.22
438.40	2789.92
438.58	2855.45
438.77	2970.14
438.96	2843.75
439.14	2951.42
439.33	2995.89
439.52	2916.31
439.70	3061.42
439.89	2991.20
440.08	3126.96
440.26	3082.49
440.45	3215.90
440.63	3096.53
440.82	3091.85
441.01	3112.91
441.19	3117.59
441.38	3276.75
441.57	3141.00
441.75	3356.33
441.94	3218.24
442.12	3173.77
442.31	3386.76
442.50	3293.13
442.68	3407.82
442.87	3279.09
443.05	3513.14
443.24	3405.48
443.43	3339.94
443.61	3393.78
443.80	3487.40
443.98	3368.03
444.17	3290.79
444.35	3424.20
444.54	3393.78
444.73	3510.80
444.91	3405.48
445.10	3562.30
445.28	3452.29
445.47	3372.71
445.65	3405.48
445.84	3417.18
446.02	3435.91
446.21	3452.29
446.39	3566.98
446.58	3534.21
446.77	3496.76
446.95	3440.59
447.14	3538.89
447.32	3606.77
447.51	3623.15
447.69	3590.38
447.88	3583.36
448.06	3700.39
448.25	3496.76
448.43	3620.81
448.62	3552.93
448.80	3606.77
448.99	3672.30
449.17	3625.49
449.36	3466.33
449.54	3744.86
449.73	3686.34
449.91	3574.00
450.10	3740.18
450.28	3770.60
450.46	3772.94
450.65	3714.43
450.83	3770.60
451.02	3770.60
451.20	3840.82
451.39	3857.20
451.57	3861.88
451.76	3824.44
451.94	3911.04
452.13	3911.04
452.31	3918.06
452.49	3744.86
452.68	3756.56
452.86	3887.63
453.05	3929.76
453.23	3981.25
453.42	3812.73
453.60	3988.27
453.78	4102.96
453.97	4070.19
454.15	3941.46
454.34	3943.80
454.52	4093.60
454.70	3904.01
454.89	4037.42
455.07	4004.66
455.26	4067.85
455.44	4166.15
455.62	4114.66
455.81	4063.17
455.99	4140.41
456.17	4224.67
456.36	4241.05
456.54	4154.45
456.73	4292.54
456.91	4358.08
457.09	4362.76
457.28	4463.40
457.46	4201.26
457.64	4346.37
457.83	4376.80
458.01	4278.50
458.19	4404.89
458.38	4344.03
458.56	4557.02
458.74	4411.91
458.93	4381.48
459.11	4461.06
459.29	4540.64
459.48	4678.73
459.66	4624.90
459.84	4627.24
460.03	4622.56
460.21	4482.13
460.39	4540.64
460.57	4550.00
460.76	4699.80
460.94	4779.37
461.12	4648.30
461.31	4596.81
461.49	4671.71
461.67	4615.54
461.85	4833.21
462.04	4690.43
462.22	5036.83
462.40	4737.24
462.59	4699.80
462.77	4800.44
462.95	4795.76
463.13	4945.55
463.32	4894.06
463.50	4851.93
463.68	4868.31
463.86	4814.48
464.05	4936.19
464.23	4753.63
464.41	5067.26
464.59	4929.17
464.78	5034.49
464.96	5029.81
465.14	4978.32
465.32	5036.83
465.50	4901.08
465.69	4999.38
465.87	4936.19
466.05	5069.60
466.23	4999.38
466.41	4987.68
466.60	5193.65
466.78	5039.17
466.96	5142.16
467.14	5057.90
467.32	5385.57
467.51	5191.31
467.69	5114.07
467.87	5235.78
468.05	5191.31
468.23	5076.62
468.41	5104.71
468.60	5203.01
468.78	5296.63
468.96	5249.82
469.14	5217.05
469.32	5479.19
469.50	5247.48
469.69	5205.35
469.87	5392.59
470.05	5427.70
470.23	5591.54
470.41	5476.85
470.59	5465.15
470.77	5313.02
470.95	5607.92
471.14	5598.56
471.32	5355.15
471.50	5865.38
471.68	5689.84
471.86	5694.52
472.04	5846.66
472.22	5783.46
472.40	5757.72
472.58	5778.78
472.77	5849.00
472.95	5987.09
473.13	5987.09
473.31	5891.13
473.49	5963.68
473.67	6113.48
473.85	5961.34
474.03	5970.71
474.21	5947.30
474.39	6071.35
474.57	6087.73
474.75	6146.25
474.93	6202.42
475.12	6106.46
475.30	6186.04
475.48	6366.26
475.66	6413.07
475.84	6214.12
476.02	6406.05
476.20	6375.62
476.38	6581.59
476.56	6619.04
476.74	6731.38
476.92	6509.03
477.10	6551.16
477.28	6747.76
477.46	6682.23
477.64	6759.47
477.82	6878.83
478.00	7028.63
478.18	7171.40
478.36	7012.24
478.54	7016.93
478.72	7220.55
478.90	7302.47
479.08	7239.28
479.26	7332.90
479.44	7239.28
479.62	7304.81
479.80	7428.86
479.98	7513.12
480.16	7723.77
480.34	7531.84
480.52	7723.77
480.70	7801.01
480.88	7683.98
481.06	7742.49
481.24	7730.79
481.41	7866.54
481.59	8016.33
481.77	8035.06
481.95	8161.45
482.13	8081.87
482.31	8259.75
482.49	8102.93
482.67	8187.19
482.85	8439.97
483.03	8606.15
483.21	8648.28
483.39	8674.03
483.57	8667.00
483.74	8589.77
483.92	8781.69
484.10	8828.50
484.28	8940.85
484.46	9207.67
484.64	9231.07
484.82	9071.92
485.00	9242.78
485.18	9238.09
485.35	9809.19
485.53	9481.51
485.71	9652.37
485.89	9624.28
486.07	9411.29
486.25	9509.60
486.43	9738.97
486.61	9734.29
486.78	10080.69
486.96	9895.78
487.14	10015.15
487.32	10200.05
487.50	10237.50
487.68	10237.50
487.85	10406.02
488.03	10803.91
488.21	10668.16
488.39	10658.80
488.57	10775.83
488.75	10780.51
488.92	10829.66
489.10	10806.25
489.28	11171.38
489.46	11342.24
489.64	11286.06
489.81	11468.62
489.99	11569.27
490.17	11410.11
490.35	11634.80
490.53	11527.14
490.70	11714.38
490.88	11826.73
491.06	11988.22
491.24	11843.11
491.41	11960.14
491.59	11974.18
491.77	12107.59
491.95	12360.37
492.13	12217.60
492.30	12091.21
492.48	12327.60
492.66	12339.30
492.84	12418.88
493.01	12681.02
493.19	12772.30
493.37	12858.90
493.54	12971.25
493.72	12989.97
493.90	12842.52
494.08	12999.34
494.25	13249.77
494.43	13444.04
494.61	13366.80
494.79	13469.78
494.96	13668.73
495.14	13666.39
495.32	13703.84
495.49	13877.04
495.67	14001.08
495.85	14211.73
496.02	14033.85
496.20	14061.94
496.38	14064.28
496.55	14244.50
496.73	14525.36
496.91	14281.95
497.09	14136.84
497.26	14764.10
497.44	14408.34
497.62	14595.58
497.79	14850.70
497.97	14534.73
498.14	15002.83
498.32	15145.61
498.50	15042.62
498.67	15075.39
498.85	15047.30
499.03	15424.13
499.20	15049.64
499.38	15307.10
499.56	15616.05
499.73	15616.05
499.91	15585.63
500.08	15508.39
500.26	15585.63
500.44	15632.44
500.61	15850.11
500.79	15901.60
500.97	15915.64
501.14	16191.83
501.32	16145.02
501.49	15920.32
501.67	15927.35
501.84	16098.20
502.02	16217.57
502.20	16273.74
502.37	16423.54
502.55	16442.26
502.72	16395.45
502.90	16313.53
503.07	16236.30
503.25	16695.04
503.43	16456.31
503.60	16683.34
503.78	16821.43
503.95	16741.85
504.13	16793.34
504.30	16840.15
504.48	16779.30
504.65	16812.07
504.83	17025.06
505.01	17326.99
505.18	17263.79
505.36	17256.77
505.53	17158.47
505.71	17181.87
505.88	17488.48
506.06	17198.26
506.23	17547.00
506.41	17511.89
506.58	17717.86
506.76	17645.30
506.93	17605.51
507.11	17539.97
507.28	17727.22
507.46	17748.28
507.63	17961.27
507.81	18015.10
507.98	18244.48
508.16	18022.12
508.33	18127.45
508.50	18029.15
508.68	18223.41
508.85	18335.76
509.03	18291.29
509.20	18405.97
509.38	18597.90
509.55	18448.10
509.73	18675.13
509.90	18567.47
510.08	18508.96
510.25	18485.55
510.42	18941.96
510.60	18995.79
510.77	18930.25
510.95	18876.42
511.12	18735.99
511.30	19058.98
511.47	18679.82
511.64	19138.56
511.82	19082.39
511.99	19028.56
512.17	19536.45
512.34	19524.75
512.51	19276.65
512.69	19384.32
512.86	19386.66
513.04	19943.70
513.21	19854.76
513.38	19805.61
513.56	19683.91
513.73	19878.17
513.90	19468.58
514.08	19824.34
514.25	20098.18
514.43	20009.24
514.60	20114.56
514.77	19843.06
514.95	20039.67
515.12	20116.90
515.29	20112.22
515.47	20280.74
515.64	20217.55
515.81	20217.55
515.99	20435.22
516.16	20671.61
516.33	20311.17
516.51	20423.51
516.68	20498.41
516.85	20416.49
517.03	20561.61
517.20	20659.91
517.37	20849.49
517.54	20690.34
517.72	20798.00
517.89	20730.12
518.06	20798.00
518.24	20805.02
518.41	20746.51
518.58	20882.26
518.75	20884.60
518.93	21095.25
519.10	21326.96
519.27	21509.52
519.45	21266.11
519.62	21397.18
519.79	20933.75
519.96	21479.10
520.14	21661.66
520.31	21479.10
520.48	21647.61
520.65	21415.90
520.83	22148.49
521.00	21493.14
521.17	21666.34
521.34	22127.42
521.52	21858.26
521.69	21661.66
521.86	22012.74
522.03	22127.42
522.20	22061.89
522.38	21951.88
522.55	22291.26
522.72	21818.47
522.89	22387.22
523.07	22174.24
523.24	22001.04
523.41	22654.05
523.58	22148.49
523.75	22340.41
523.92	22382.54
524.10	22396.59
524.27	22728.94
524.44	22572.13
524.61	22796.82
524.78	22820.22
524.96	22614.26
525.13	22757.03
525.30	22801.50
525.47	22658.73
525.64	22941.93
525.81	23143.22
525.98	23290.67
526.16	23033.21
526.33	23157.26
526.50	23358.55
526.67	23269.61
526.84	23115.13
527.01	22930.23
527.18	23168.96
527.36	23468.55
527.53	23403.02
527.70	23564.51
527.87	23728.35
528.04	23456.85
528.21	23503.66
528.38	23356.21
528.55	23784.52
528.72	23487.28
528.89	23566.85
529.07	24039.64
529.24	23601.96
529.41	23742.39
529.58	23948.36
529.75	23817.29
529.92	23868.78
530.09	23665.16
530.26	23803.25
530.43	24037.30
530.60	24231.57
530.77	24252.63
530.94	24203.48
531.11	23878.15
531.28	23924.96
531.46	24034.96
531.63	24360.30
531.80	24451.58
531.97	24526.47
532.14	24280.72
532.31	24341.57
532.48	24699.67
532.65	24624.78
532.82	24322.85
532.99	24493.71
533.16	24173.05
533.33	24584.99
533.50	24978.20
533.67	24673.93
533.84	24566.26
534.01	24828.40
534.18	24491.37
534.35	24973.52
534.52	24732.44
534.69	24936.07
534.86	25050.75
535.03	24753.51
535.20	24985.22
535.37	25081.18
535.54	25036.71
535.71	24823.72
535.88	25184.16
536.05	25221.61
536.22	25123.31
536.38	25104.59
536.55	25413.54
536.72	25303.53
536.89	25057.78
537.06	25202.89
537.23	25284.81
537.40	25575.03
537.57	25366.73
537.74	25659.29
537.91	26026.76
538.08	25577.37
538.25	25378.43
538.42	25523.54
538.59	25682.70
538.75	25511.84
538.92	25493.12
539.09	25790.36
539.26	25862.92
539.43	26043.14
539.60	26221.02
539.77	25965.90
539.94	25837.17
540.11	25961.22
540.28	25872.28
540.44	25834.83
540.61	26122.72
540.78	25764.62
540.95	25972.92
541.12	25706.10
541.29	26300.60
541.46	26064.21
541.62	26417.63
541.79	26199.96
541.96	26050.16
542.13	26293.58
542.30	26136.76
542.47	26429.33
542.63	26511.25
542.80	26565.08
542.97	26698.49
543.14	26625.93
543.31	26319.32
543.48	26501.89
543.64	26932.54
543.81	27049.57
543.98	27133.83
544.15	26827.22
544.32	27342.14
544.48	26904.46
544.65	26878.71
544.82	26881.05
544.99	26803.82
545.16	26946.59
545.32	26717.22
545.49	27241.50
545.66	27129.15
545.83	27250.86
546.00	26890.41
546.16	26902.12
546.33	26642.32
546.50	27161.92
546.67	26948.93
546.83	27117.45
547.00	27295.33
547.17	27005.10
547.34	27344.48
547.50	27300.01
547.67	27601.94
547.84	27620.66
548.00	27323.41
548.17	27644.07
548.34	27524.70
548.51	27826.63
548.67	27761.09
548.84	27777.48
549.01	27690.88
549.18	27903.87
549.34	27782.16
549.51	27679.18
549.68	27768.12
549.84	27896.85
550.01	28002.17
550.18	27782.16
550.34	28006.85
550.51	28086.43
550.68	27606.62
550.84	27927.27
551.01	28203.46
551.18	27737.69
551.34	27571.51
551.51	28105.15
551.68	28329.84
551.84	28212.82
552.01	28088.77
552.18	28217.50
552.34	27999.83
552.51	28210.48
552.68	28240.90
552.84	28222.18
553.01	28379.00
553.18	27969.40
553.34	28273.67
553.51	28350.91
553.67	28367.29
553.84	28311.12
554.01	28201.11
554.17	28240.90
554.34	28400.06
554.51	28498.36
554.67	28128.56
554.84	28449.21
555.00	28283.03
555.17	28376.66
555.33	28690.29
555.50	28039.62
555.67	28470.28
555.83	28360.27
556.00	28503.04
556.16	28912.64
556.33	28760.50
556.50	28556.88
556.66	28734.76
556.83	28856.46
556.99	29214.57
557.16	28907.96
557.32	28910.30
557.49	28739.44
557.65	28486.66
557.82	29109.24
557.98	28943.06
558.15	28945.41
558.32	29242.65
558.48	29142.01
558.65	29530.54
558.81	28980.51
558.98	28769.86
559.14	29345.64
559.31	29298.83
559.47	28961.79
559.64	29472.03
559.80	29294.14
559.97	29130.31
560.13	29151.37
560.30	29008.60
560.46	29188.82
560.63	29001.58
560.79	29209.89
560.96	29572.67
561.12	29453.30
561.29	28833.06
561.45	29392.45
561.61	29252.02
561.78	28952.43
561.94	29640.54
562.11	29507.13
562.27	29556.28
562.44	29216.91
562.60	29518.84
562.77	29392.45
562.93	29359.68
563.10	29914.39
563.26	29177.12
563.42	29680.33
563.59	29970.56
563.75	29350.32
563.92	29504.79
564.08	29572.67
564.24	29453.30
564.41	29340.96
564.57	29509.47
564.74	29689.70
564.90	29635.86
565.07	29979.92
565.23	29422.87
565.39	29614.80
565.56	30022.05
565.72	29802.04
565.88	29750.55
566.05	29357.34
566.21	29752.89
566.38	29432.24
566.54	29942.47
566.70	29617.14
566.87	30047.80
567.03	29628.84
567.19	30302.92
567.36	30134.40
567.52	29752.89
567.68	29942.47
567.85	29830.13
568.01	29745.87
568.17	29504.79
568.34	29795.02
568.50	29837.15
568.66	29780.98
568.83	30099.29
568.99	29947.15
569.15	29848.85
569.32	29956.52
569.48	29998.65
569.64	29699.06
569.81	29975.24
569.97	29806.72
570.13	30061.84
570.30	29502.45
570.46	30073.54
570.62	29947.15
570.78	29659.27
570.95	29909.71
571.11	30178.87
571.27	29450.96
571.43	29912.05
571.60	29926.09
571.76	29923.75
571.92	29993.97
572.09	29780.98
572.25	30169.51
572.41	30286.53
572.57	29844.17
572.74	29586.71
572.90	29696.72
573.06	29731.83
573.22	29696.72
573.38	30204.61
573.55	29788.00
573.71	30532.29
573.87	30230.36
574.03	29970.56
574.20	30036.09
574.36	29926.09
574.52	30239.72
574.68	30061.84
574.84	29741.19
575.01	30373.13
575.17	30298.23
575.33	30230.36
575.49	30443.35
575.65	30394.20
575.82	30501.86
575.98	30361.43
576.14	30185.89
576.30	30309.94
576.46	30260.79
576.62	29890.98
576.79	30188.23
576.95	29937.79
577.11	30590.80
577.27	30295.89
577.43	30335.68
577.59	30661.02
577.75	30478.46
577.92	29916.73
578.08	30272.49
578.24	30450.37
578.40	30298.23
578.56	30122.69
578.72	30024.39
578.88	30279.51
579.04	30497.18
579.21	30387.18
579.37	29947.15
579.53	30349.73
579.69	30204.61
579.85	30263.13
580.01	30008.01
580.17	30118.01
580.33	30387.18
580.49	29879.28
580.65	30862.30
580.82	30745.28
580.98	30417.60
581.14	30551.01
581.30	30511.22
581.46	30263.13
581.62	30401.22
581.78	30043.12
581.94	30314.62
582.10	30033.75
582.26	30356.75
582.42	30480.80
582.58	30431.65
582.74	30532.29
582.90	30651.66
583.06	30354.41
583.22	30382.49
583.38	30410.58
583.54	30340.36
583.70	30270.15
583.86	30422.28
584.02	30136.74
584.18	30452.71
584.34	30656.34
584.50	30382.49
584.66	30417.60
584.82	30181.21
584.98	30466.75
585.14	30590.80
585.30	30426.96
585.46	30328.66
585.62	30146.10
585.78	30410.58
585.94	30359.09
586.10	30820.17
586.26	30560.37
586.42	30684.42
586.58	30864.64
586.74	30389.52
586.90	30106.31
587.06	30518.25
587.22	30485.48
587.38	30515.90
587.54	30476.12
587.70	30735.92
587.86	30670.38
588.02	30946.56
588.18	30668.04
588.34	30782.73
588.49	30869.33
588.65	30431.65
588.81	30555.69
588.97	30705.49
589.13	30529.95
589.29	30614.21
589.45	30881.03
589.61	30499.52
589.77	31260.20
589.93	30738.26
590.08	30995.71
590.24	30932.52
590.40	30913.80
590.56	30892.73
590.72	30515.90
590.88	30375.47
591.04	30590.80
591.20	30939.54
591.35	31222.75
591.51	31246.15
591.67	30944.22
591.83	30902.09
591.99	31030.82
592.15	31239.13
592.31	30869.33
592.46	30700.81
592.62	30771.02
592.78	30607.19
592.94	30717.19
593.10	30789.75
593.26	31115.08
593.41	31063.59
593.57	31175.94
593.73	31084.65
593.89	31145.51
594.05	30925.50
594.20	30684.42
594.36	30892.73
594.52	30991.03
594.68	30792.09
594.84	30991.03
594.99	31185.30
595.15	30712.51
595.31	30822.51
595.47	30717.19
595.62	30897.41
595.78	30976.99
595.94	31087.00
596.10	31112.74
596.25	30761.66
596.41	30808.47
596.57	30913.80
596.73	31068.27
596.88	30483.14
597.04	31119.76
597.20	31409.99
597.36	31138.49
597.51	31133.81
597.67	31117.42
597.83	30663.36
597.99	30969.97
598.14	30857.62
598.30	31117.42
598.46	30756.98
598.61	31199.34
598.77	30714.85
598.93	31152.53
599.09	30941.88
599.24	31255.51
599.40	31311.69
599.56	31042.53
599.71	30881.03
599.87	31056.57
600.03	31019.12
600.18	31000.40
600.34	30792.09
600.50	30911.46
600.65	31206.36
600.81	31302.32
600.97	31498.93
601.12	31412.33
601.28	31328.07
601.44	31023.80
601.59	31084.65
601.75	31072.95
601.91	31536.38
602.06	31105.72
602.22	30878.69
602.37	31344.45
602.53	30822.51
602.69	31395.95
602.84	31358.50
603.00	31021.46
603.16	31285.94
603.31	30899.75
603.47	31084.65
603.62	31381.90
603.78	30618.89
603.94	30958.27
604.09	30984.01
604.25	30890.39
604.40	31206.36
604.56	31250.83
604.71	31428.71
604.87	31314.03
605.03	31470.84
605.18	31110.40
605.34	30993.37
605.49	31101.04
605.65	31281.26
605.80	30932.52
605.96	30794.43
606.12	30890.39
606.27	31316.37
606.43	30806.13
606.58	31026.14
606.74	31159.55
606.89	31435.74
607.05	31047.21
607.20	30707.83
607.36	31185.30
607.51	31117.42
607.67	30504.20
607.82	30874.01
607.98	30684.42
608.13	30965.29
608.29	30913.80
608.44	30771.02
608.60	30855.28
608.75	30817.83
608.91	30932.52
609.06	30850.60
609.22	31058.91
609.37	30574.42
609.53	30693.79
609.68	30773.36
609.84	30600.16
609.99	30822.51
610.15	30890.39
610.30	30733.57
610.46	30618.89
610.61	30749.96
610.76	31044.87
610.92	30714.85
611.07	30532.29
611.23	30916.14
611.38	30476.12
611.54	30242.06
611.69	30515.90
611.84	30139.08
612.00	30415.26
612.15	30892.73
612.31	31131.47
612.46	30370.79
612.62	30668.04
612.77	30789.75
612.92	30766.34
613.08	30644.63
613.23	30768.68
613.39	30424.62
613.54	30548.67
613.69	30373.13
613.85	30504.20
614.00	30642.29
614.15	30738.26
614.31	30506.54
614.46	30890.39
614.62	30450.37
614.77	30651.66
614.92	30735.92
615.08	30469.09
615.23	30546.33
615.38	30387.18
615.54	30160.14
615.69	30408.24
615.84	30134.40
616.00	30574.42
616.15	29846.51
616.30	30572.08
616.46	30096.95
616.61	30202.27
616.76	30410.58
616.92	30412.92
617.07	30288.87
617.22	30052.48
617.37	29916.73
617.53	30405.90
617.68	30162.48
617.83	29771.61
617.99	30396.54
618.14	30347.39
618.29	29736.51
618.45	30181.21
618.60	30244.40
618.75	30291.21
618.90	30419.94
619.06	29907.37
619.21	30244.40
619.36	30206.95
619.51	29972.90
619.67	30118.01
619.82	29947.15
619.97	29734.17
620.12	29432.24
620.28	29715.44
620.43	29745.87
620.58	29989.28
620.73	30195.25
620.89	30192.91
621.04	29804.38
621.19	30242.06
621.34	30150.78
621.49	29717.78
621.65	29654.59
621.80	29820.77
621.95	29521.18
622.10	29769.27
622.25	29436.92
622.41	29881.62
622.56	29720.12
622.71	30082.91
622.86	29692.04
623.01	29570.33
623.16	29926.09
623.32	29600.76
623.47	29411.17
623.62	29366.70
623.77	29560.97
623.92	29441.60
624.07	29362.02
624.23	29788.00
624.38	29858.21
624.53	29956.52
624.68	29647.57
624.83	29715.44
624.98	29586.71
625.13	29603.10
625.29	29357.34
625.44	29757.57
625.59	28914.98
625.74	29088.18
625.89	29104.56
626.04	28826.04
626.19	29032.00
626.34	29151.37
626.49	29347.98
626.65	29296.49
626.80	29649.91
626.95	29156.05
627.10	28933.70
627.25	29448.62
627.40	29020.30
627.55	28954.77
627.70	29186.48
627.85	28877.53
628.00	28671.56
628.15	29088.18
628.30	28652.84
628.45	28594.32
628.60	28975.83
628.76	28737.10
628.91	28891.57
629.06	28926.68
629.21	28936.04
629.36	29010.94
629.51	28879.87
629.66	28856.46
629.81	28613.05
629.96	28680.92
630.11	28617.73
630.26	28486.66
630.41	28912.64
630.56	28088.77
630.71	28952.43
630.86	28769.86
631.01	28886.89
631.16	29092.86
631.31	28879.87
631.46	28432.83
631.61	28364.95
631.76	28807.31
631.91	28776.89
632.06	28652.84
632.21	28540.49
632.36	28510.07
632.51	28315.80
632.66	28493.68
632.81	28233.88
632.96	28556.88
633.10	28411.76
633.25	28451.55
633.40	28503.04
633.55	28617.73
633.70	28016.21
633.85	27887.48
634.00	28147.28
634.15	28507.72
634.30	28147.28
634.45	28243.24
634.60	28084.09
634.75	27903.87
634.90	28264.31
635.05	28402.40
635.19	28379.00
635.34	28004.51
635.49	28247.93
635.64	28308.78
635.79	28240.90
635.94	28306.44
636.09	28547.51
636.24	27934.29
636.39	27709.60
636.53	28355.59
636.68	28056.00
636.83	27999.83
636.98	28210.48
637.13	28013.87
637.28	28357.93
637.43	28308.78
637.57	28474.96
637.72	27857.06
637.87	28161.33
638.02	27721.30
638.17	27559.81
638.32	27725.99
638.46	27814.93
638.61	27543.42
638.76	27475.55
638.91	27711.94
639.06	27517.68
639.20	27789.18
639.35	28034.94
639.50	27807.90
639.65	27601.94
639.80	27922.59
639.94	27573.85
640.09	28011.53
640.24	27917.91
640.39	27646.41
640.54	27505.98
640.68	27564.49
640.83	26986.38
640.98	27197.02
641.13	27157.24
641.27	27344.48
641.42	27601.94
641.57	27754.07
641.72	27431.08
641.86	27412.35
642.01	26981.70
642.16	27304.69
642.31	27150.21
642.45	27161.92
642.60	27164.26
642.75	27054.25
642.90	26761.69
643.04	27154.90
643.19	26904.46
643.34	27480.23
643.48	27522.36
643.63	27379.59
643.78	27138.51
643.93	27255.54
644.07	27307.03
644.22	27302.35
644.37	27351.50
644.51	27187.66
644.66	27129.15
644.81	27014.46
644.95	27213.41
645.10	26965.31
645.25	26967.65
645.39	27007.44
645.54	27047.23
645.69	26972.33
645.83	26677.43
645.98	27051.91
646.13	26878.71
646.27	27314.05
646.42	26902.12
646.57	26925.52
646.71	26906.80
646.86	26867.01
647.00	26759.34
647.15	26806.16
647.30	26764.03
647.44	26618.91
647.59	26614.23
647.74	26813.18
647.88	26869.35
648.03	26911.48
648.17	27061.27
648.32	26677.43
648.47	26731.26
648.61	26632.96
648.76	26984.04
648.90	26749.98
649.05	26972.33
649.20	26466.78
649.34	26593.17
649.49	26588.49
649.63	26630.62
649.78	26209.32
649.92	26462.10
650.07	26527.63
650.21	26295.92
650.36	26492.52
650.51	26424.65
650.65	26473.80
650.80	26955.95
650.94	26394.22
651.09	26522.95
651.23	26630.62
651.38	26412.95
651.52	26377.84
651.67	26057.18
651.81	26143.78
651.96	26239.75
652.10	26237.41
652.25	26504.23
652.39	26607.21
652.54	26340.39
652.68	26129.74
652.83	26253.79
652.97	26251.45
653.12	26073.57
653.26	26340.39
653.41	26101.65
653.55	26258.47
653.70	26204.64
653.84	26169.53
653.99	26363.79
654.13	26445.71
654.27	25802.07
654.42	26309.96
654.56	25888.67
654.71	26157.83
654.85	26171.87
655.00	25996.33
655.14	25743.55
655.29	26052.50
655.43	26141.44
655.57	26031.44
655.72	25493.12
655.86	25710.78
656.01	25582.06
656.15	25546.95
656.30	25804.41
656.44	25752.91
656.58	25443.96
656.73	25881.64
656.87	25647.59
657.01	25720.15
657.16	25563.33
657.30	26209.32
657.45	25937.82
657.59	25851.22
657.73	25546.95
657.88	25614.82
658.02	25713.13
658.16	25343.32
658.31	25399.49
658.45	25773.98
658.60	25158.42
658.74	25338.64
658.88	25570.35
659.03	25483.75
659.17	25434.60
659.31	25362.04
659.46	25556.31
659.60	25715.47
659.74	25310.55
659.89	25137.35
660.03	25376.09
660.17	25607.80
660.32	25048.41
660.46	25123.31
660.60	24723.08
660.74	24861.17
660.89	24884.58
661.03	24762.87
661.17	24938.41
661.32	24758.19
661.46	24929.05
661.60	24821.38
661.74	24964.15
661.89	25188.85
662.03	24512.43
662.17	25120.97
662.31	24950.11
662.46	24823.72
662.60	24837.76
662.74	24528.81
662.88	24631.80
663.03	24320.51
663.17	24240.93
663.31	24386.04
663.45	24517.11
663.60	24292.42
663.74	24294.76
663.88	24404.77
664.02	24137.94
664.17	24388.38
664.31	24299.44
664.45	24240.93
664.59	24348.59
664.73	24121.56
664.88	24208.16
665.02	24032.62
665.16	23910.91
665.30	24027.94
665.44	23955.38
665.59	23627.71
665.73	23555.15
665.87	23960.06
666.01	23981.13
666.15	24306.46
666.29	24353.27
666.44	23695.58
666.58	23601.96
666.72	23337.48
666.86	23538.77
667.00	23864.10
667.14	23328.12
667.28	23477.91
667.43	23545.79
667.57	23714.31
667.71	23431.10
667.85	23403.02
667.99	23410.04
668.13	23084.70
668.27	23346.84
668.41	23346.84
668.56	23037.89
668.70	23599.62
668.84	23400.68
668.98	23318.76
669.12	22995.76
669.26	23236.84
669.40	23281.31
669.54	23049.60
669.68	23197.05
669.82	23068.32
669.96	22794.48
670.10	22684.47
670.25	23122.15
670.39	22822.56
670.53	22927.89
670.67	22562.76
670.81	22768.73
670.95	22740.64
671.09	22649.36
671.23	22401.27
671.37	23108.11
671.51	22803.84
671.65	23007.47
671.79	22569.79
671.93	22335.73
672.07	22644.68
672.21	22279.56
672.35	22223.39
672.49	21956.57
672.63	22408.29
672.77	22132.11
672.91	21996.35
673.05	22043.17
673.19	21989.33
673.33	22057.21
673.47	21928.48
673.61	22171.89
673.75	21933.16
673.89	21972.95
674.03	21919.12
674.17	21748.26
674.31	22045.51
674.45	21869.97
674.59	21553.99
674.73	21909.75
674.87	21535.27
675.01	21436.97
675.15	21537.61
675.29	21193.55
675.43	21240.36
675.56	21348.03
675.70	21418.24
675.84	21341.00
675.98	20929.07
676.12	21465.05
676.26	21518.89
676.40	21301.22
676.54	20819.07
676.68	20854.17
676.82	20711.40
676.96	20776.94
677.10	20620.12
677.23	20746.51
677.37	20858.85
677.51	20854.17
677.65	20552.24
677.79	20383.73
677.93	20273.72
678.07	20025.62
678.21	20395.43
678.34	20262.02
678.48	19948.39
678.62	20098.18
678.76	20173.08
678.90	19971.79
679.04	20149.67
679.18	19866.47
679.31	19585.60
679.45	19866.47
679.59	19548.15
679.73	19627.73
679.87	19616.03
680.00	19213.46
680.14	19428.79
680.28	19414.74
680.42	19426.45
680.56	19585.60
680.70	19768.16
680.83	19386.66
680.97	19360.91
681.11	19054.30
681.25	19234.52
681.39	19248.57
681.52	19094.09
681.66	18923.23
681.80	19080.05
681.94	18836.63
682.07	18850.67
682.21	18941.96
682.35	18642.37
682.49	18696.20
682.62	18284.26
682.76	18326.39
682.90	18583.85
683.04	18642.37
683.17	18434.06
683.31	18267.88
683.45	18200.01
683.59	18354.48
683.72	18398.95
683.86	18099.36
684.00	17989.36
684.13	18125.11
684.27	18185.96
684.41	17680.41
684.55	17935.53
684.68	17558.70
684.82	17301.24
684.96	17598.49
685.09	17507.21
685.23	17294.22
685.37	17429.97
685.50	17364.43
685.64	17383.16
685.78	17305.92
685.91	17432.31
686.05	17207.62
686.19	17303.58
686.32	17326.99
686.46	16807.39
686.60	17046.12
686.73	16980.59
686.87	16585.04
687.01	16730.15
687.14	16837.81
687.28	16950.16
687.42	16507.80
687.55	16449.28
687.69	16566.31
687.82	16402.47
687.96	16416.52
688.10	16294.81
688.23	16339.28
688.37	16318.22
688.50	16311.19
688.64	16299.49
688.78	16163.74
688.91	15995.22
689.05	16149.70
689.18	16233.96
689.32	15363.28
689.46	15695.63
689.59	16023.31
689.73	15866.49
689.86	15543.50
690.00	15630.10
690.13	15796.28
690.27	15552.86
690.41	15379.66
690.54	15468.60
690.68	15489.67
690.81	15606.69
690.95	15412.43
691.08	15576.27
691.22	15063.69
691.35	15433.49
691.49	15302.42
691.62	15206.46
691.76	14803.89
691.89	14848.36
692.03	14796.87
692.16	14707.93
692.30	14700.90
692.43	14401.32
692.57	14618.99
692.70	14581.54
692.84	14434.08
692.97	14377.91
693.11	14677.50
693.24	14518.34
693.38	14129.81
693.51	14321.74
693.65	14235.14
693.78	14333.44
693.92	14312.38
694.05	13994.06
694.19	14057.26
694.32	14127.47
694.45	13778.73
694.59	13659.37
694.72	13685.11
694.86	13547.02
694.99	13441.70
695.13	13476.80
695.26	13544.68
695.39	13439.36
695.53	13825.54
695.66	13198.28
695.80	13565.74
695.93	13364.46
696.07	13462.76
696.20	13427.65
696.33	13144.45
696.47	13074.23
696.60	12894.01
696.73	12978.27
696.87	12732.51
697.00	12868.27
697.14	12975.93
697.27	12547.61
697.40	12697.41
697.54	12648.26
697.67	12470.37
697.80	12425.90
697.94	12489.10
698.07	12056.10
698.21	12496.12
698.34	12507.82
698.47	12269.09
698.61	12182.49
698.74	12287.81
698.87	12336.96
699.01	12210.57
699.14	12152.06
699.27	12266.75
699.40	12023.33
699.54	11920.35
699.67	12088.87
699.80	11716.72
699.94	11925.03
700.07	11754.17
700.20	11660.55
700.34	11768.21
700.47	11513.10
700.60	11625.44
700.73	11403.09
700.87	11410.11
701.00	11360.96
701.13	11428.84
701.26	11564.59
701.40	11599.70
701.53	11384.37
701.66	11239.25
701.79	11279.04
701.93	11138.61
702.06	11241.59
702.19	10937.32
702.32	10494.96
702.46	10729.02
702.59	10939.66
702.72	10754.76
702.85	10733.70
702.99	10714.97
703.12	10551.14
703.25	10501.98
703.38	10429.43
703.51	10490.28
703.65	10487.94
703.78	10384.96
703.91	10518.37
704.04	10534.75
704.17	10698.59
704.31	10303.04
704.44	10216.44
704.57	10071.33
704.70	9813.87
704.83	10080.69
704.96	9982.38
705.10	10043.24
705.23	9769.40
>>>>>End Processed Spectral Data<<<<<
