SpectraSuite Data File
++++++++++++++++++++++++++++++++++++
Date: Fri Oct 18 13:57:57 GMT-05:00 2013
User: bianchi
Dark Spectrum Present: No
Reference Spectrum Present: No
Number of Sampled Component Spectra: 1
Spectrometers: USB2+H05261
Integration Time (usec): 50000 (USB2+H05261)
Spectra Averaged: 1 (USB2+H05261)
Boxcar Smoothing: 0 (USB2+H05261)
Correct for Electrical Dark: No (USB2+H05261)
Strobe/Lamp Enabled: No (USB2+H05261)
Correct for Detector Non-linearity: No (USB2+H05261)
Correct for Stray Light: No (USB2+H05261)
Number of Pixels in Processed Spectrum: 2048
>>>>>Begin Processed Spectral Data<<<<<
365.73	0.00
365.92	0.00
366.12	0.00
366.32	0.00
366.52	0.00
366.72	0.00
366.91	0.00
367.11	0.00
367.31	0.00
367.51	0.00
367.70	0.00
367.90	0.00
368.10	0.00
368.30	0.00
368.49	0.00
368.69	0.00
368.89	0.00
369.09	0.00
369.28	0.00
369.48	0.00
369.68	0.00
369.87	0.00
370.07	0.00
370.27	0.00
370.47	0.00
370.66	135.75
370.86	35.11
371.06	147.45
371.25	105.32
371.45	95.96
371.65	175.54
371.84	159.16
372.04	65.54
372.24	166.18
372.44	152.13
372.63	236.39
372.83	220.01
373.03	208.31
373.22	212.99
373.42	140.43
373.62	191.92
373.81	201.29
374.01	194.26
374.21	234.05
374.40	215.33
374.60	234.05
374.79	245.76
374.99	269.16
375.19	236.39
375.38	145.11
375.58	229.37
375.78	283.20
375.97	313.63
376.17	315.97
376.37	248.10
376.56	280.86
376.76	266.82
376.95	280.86
377.15	187.24
377.35	243.42
377.54	292.57
377.74	269.16
377.93	301.93
378.13	320.65
378.33	325.33
378.52	269.16
378.72	283.20
378.91	353.42
379.11	203.63
379.31	245.76
379.50	269.16
379.70	287.89
379.89	315.97
380.09	325.33
380.28	351.08
380.48	297.25
380.68	262.14
380.87	306.61
381.07	320.65
381.26	311.29
381.46	325.33
381.65	376.83
381.85	325.33
382.04	390.87
382.24	308.95
382.43	381.51
382.63	299.59
382.83	374.49
383.02	367.46
383.22	351.08
383.41	346.40
383.61	418.96
383.80	395.55
384.00	369.80
384.19	393.21
384.39	381.51
384.58	362.78
384.78	444.70
384.97	374.49
385.17	383.85
385.36	365.12
385.56	411.93
385.75	395.55
385.95	341.72
386.14	404.91
386.34	440.02
386.53	390.87
386.72	346.40
386.92	407.25
387.11	454.06
387.31	430.66
387.50	400.23
387.70	461.09
387.89	418.96
388.09	428.32
388.28	390.87
388.48	404.91
388.67	477.47
388.86	425.98
389.06	486.83
389.25	491.51
389.45	533.64
389.64	386.19
389.84	470.45
390.03	484.49
390.22	503.22
390.42	447.04
390.61	442.36
390.81	512.58
391.00	433.00
391.19	543.00
391.39	561.73
391.58	489.17
391.78	512.58
391.97	559.39
392.16	526.62
392.36	564.07
392.55	610.88
392.75	603.86
392.94	538.32
393.13	608.54
393.33	545.34
393.52	535.98
393.71	533.64
393.91	521.94
394.10	552.37
394.29	631.94
394.49	603.86
394.68	667.05
394.88	631.94
395.07	589.82
395.26	571.09
395.46	638.97
395.65	613.22
395.84	608.54
396.04	716.20
396.23	678.76
396.42	669.39
396.62	589.82
396.81	671.73
397.00	557.05
397.19	678.76
397.39	779.40
397.58	667.05
397.77	774.72
397.97	688.12
398.16	744.29
398.35	746.63
398.55	702.16
398.74	624.92
398.93	746.63
399.12	702.16
399.32	716.20
399.51	709.18
399.70	788.76
399.90	767.70
400.09	706.84
400.28	737.27
400.47	777.06
400.67	821.53
400.86	711.52
401.05	887.06
401.24	791.10
401.44	805.14
401.63	739.61
401.82	781.74
402.01	770.04
402.21	854.30
402.40	922.17
402.59	957.28
402.78	898.77
402.97	819.19
403.17	880.04
403.36	840.25
403.55	868.34
403.74	936.21
403.93	896.43
404.13	851.96
404.32	931.53
404.51	978.34
404.70	833.23
404.89	1034.52
405.09	945.58
405.28	968.98
405.47	929.19
405.66	997.07
405.85	990.05
406.05	1001.75
406.24	1043.88
406.43	952.60
406.62	1029.84
406.81	983.02
407.00	1095.37
407.20	905.79
407.39	1006.43
407.58	1074.31
407.77	1062.60
407.96	1027.50
408.15	1130.48
408.34	1160.91
408.54	1008.77
408.73	1224.10
408.92	1090.69
409.11	1153.88
409.30	1142.18
409.49	1160.91
409.68	1095.37
409.87	1130.48
410.07	1242.82
410.26	1212.40
410.45	1217.08
410.64	1198.35
410.83	1200.69
411.02	1167.93
411.21	1306.02
411.40	1259.21
411.59	1238.14
411.78	1364.53
411.98	1242.82
412.17	1359.85
412.36	1338.79
412.55	1376.24
412.74	1327.08
412.93	1439.43
413.12	1423.05
413.31	1409.00
413.50	1462.83
413.69	1444.11
413.88	1423.05
414.07	1383.26
414.26	1500.28
414.45	1455.81
414.64	1507.30
414.83	1521.35
415.02	1451.13
415.22	1593.90
415.41	1565.82
415.60	1476.88
415.79	1666.46
415.98	1689.87
416.17	1675.82
416.36	1633.69
416.55	1682.85
416.74	1675.82
416.93	1607.95
417.12	1636.03
417.31	1638.38
417.50	1645.40
417.69	1708.59
417.88	1776.47
418.07	1764.76
418.26	1825.62
418.45	1844.34
418.64	1893.49
418.83	1778.81
419.02	1783.49
419.21	1886.47
419.39	1849.02
419.58	1827.96
419.77	1830.30
419.96	1954.35
420.15	1909.88
420.34	1933.28
420.53	1849.02
420.72	1907.54
420.91	1923.92
421.10	2043.29
421.29	2040.95
421.48	1837.32
421.67	2012.86
421.86	2083.08
422.05	2052.65
422.24	1987.11
422.43	1942.64
422.61	1900.52
422.80	1989.46
422.99	2059.67
423.18	2165.00
423.37	2073.71
423.56	2071.37
423.75	1994.14
423.94	2022.22
424.13	1973.07
424.32	1891.15
424.50	2174.36
424.69	2134.57
424.88	2094.78
425.07	2104.14
425.26	2064.35
425.45	2043.29
425.64	2071.37
425.83	2054.99
426.01	2104.14
426.20	2087.76
426.39	2169.68
426.58	2106.48
426.77	2132.23
426.96	2132.23
427.15	2139.25
427.33	2174.36
427.52	2221.17
427.71	2087.76
427.90	2270.32
428.09	2237.55
428.28	2232.87
428.46	2267.98
428.65	2314.79
428.84	2225.85
429.03	2237.55
429.22	2270.32
429.40	2356.92
429.59	2370.96
429.78	2326.49
429.97	2265.64
430.16	2328.83
430.34	2389.69
430.53	2462.24
430.72	2363.94
430.91	2319.47
431.10	2389.69
431.28	2354.58
431.47	2403.73
431.66	2457.56
431.85	2338.20
432.03	2567.57
432.22	2424.80
432.41	2485.65
432.60	2593.31
432.79	2427.14
432.97	2558.21
433.16	2434.16
433.35	2448.20
433.54	2614.38
433.72	2665.87
433.91	2562.89
434.10	2525.44
434.28	2485.65
434.47	2576.93
434.66	2722.04
434.85	2810.98
435.03	2551.18
435.22	2637.78
435.41	2670.55
435.59	2628.42
435.78	2614.38
435.97	2724.38
436.16	2710.34
436.34	2668.21
436.53	2715.02
436.72	2715.02
436.90	2642.46
437.09	2806.30
437.28	2675.23
437.46	2679.91
437.65	2670.55
437.84	2834.39
438.02	2761.83
438.21	2787.58
438.40	2796.94
438.58	2920.99
438.77	2843.75
438.96	3002.91
439.14	3124.62
439.33	2937.37
439.52	3054.40
439.70	2991.20
439.89	2988.86
440.08	3131.64
440.26	3117.59
440.45	3215.90
440.63	3098.87
440.82	3215.90
441.01	3126.96
441.19	3169.09
441.38	3243.98
441.57	3220.58
441.75	3213.56
441.94	3295.47
442.12	3309.52
442.31	3297.81
442.50	3339.94
442.68	3279.09
442.87	3405.48
443.05	3454.63
443.24	3456.97
443.43	3510.80
443.61	3485.06
443.80	3559.95
443.98	3501.44
444.17	3288.45
444.35	3454.63
444.54	3597.40
444.73	3566.98
444.91	3520.17
445.10	3613.79
445.28	3531.87
445.47	3361.01
445.65	3459.31
445.84	3510.80
446.02	3555.27
446.21	3538.89
446.39	3559.95
446.58	3735.50
446.77	3611.45
446.95	3473.36
447.14	3442.93
447.32	3592.72
447.51	3627.83
447.69	3506.12
447.88	3634.85
448.06	3536.55
448.25	3606.77
448.43	3632.51
448.62	3672.30
448.80	3674.64
448.99	3688.68
449.17	3574.00
449.36	3700.39
449.54	3641.87
449.73	3646.55
449.91	3805.71
450.10	3772.94
450.28	3784.65
450.46	3812.73
450.65	3838.48
450.83	3943.80
451.02	3852.52
451.20	3843.16
451.39	3819.75
451.57	3946.14
451.76	3786.99
451.94	3894.65
452.13	3995.29
452.31	4007.00
452.49	3826.78
452.68	3894.65
452.86	3920.40
453.05	3955.51
453.23	3901.67
453.42	3971.89
453.60	4135.73
453.78	4081.89
453.97	3988.27
454.15	3845.50
454.34	3992.95
454.52	4198.92
454.70	4002.32
454.89	4074.87
455.07	4215.30
455.26	4184.88
455.44	4236.37
455.62	4175.52
455.81	4194.24
455.99	4219.99
456.17	4163.81
456.36	4241.05
456.54	4255.09
456.73	4238.71
456.91	4393.19
457.09	4234.03
457.28	4470.42
457.46	4395.53
457.64	4554.68
457.83	4456.38
458.01	4243.39
458.19	4489.15
458.38	4369.78
458.56	4538.30
458.74	4379.14
458.93	4566.39
459.11	4517.23
459.29	4641.28
459.48	4711.50
459.66	4571.07
459.84	4589.79
460.03	4737.24
460.21	4582.77
460.39	4582.77
460.57	4732.56
460.76	4692.77
460.94	4676.39
461.12	4674.05
461.31	4746.61
461.49	4629.58
461.67	4725.54
461.85	4734.90
462.04	4835.55
462.22	4975.98
462.40	4887.04
462.59	4678.73
462.77	4854.27
462.95	4816.82
463.13	4959.60
463.32	4805.12
463.50	4908.10
463.68	4940.87
463.86	4873.00
464.05	4919.81
464.23	4854.27
464.41	4997.04
464.59	4945.55
464.78	5188.97
464.96	5071.94
465.14	4990.02
465.32	5062.58
465.50	5085.98
465.69	5034.49
465.87	5170.24
466.05	4999.38
466.23	4990.02
466.41	5081.30
466.60	5280.25
466.78	5076.62
466.96	5149.18
467.14	5027.47
467.32	5188.97
467.51	5313.02
467.69	5041.51
467.87	5259.18
468.05	5221.74
468.23	5095.35
468.41	5322.38
468.60	5259.18
468.78	5474.51
468.96	5334.08
469.14	5277.91
469.32	5568.13
469.50	5261.52
469.69	5542.39
469.87	5476.85
470.05	5413.66
470.23	5563.45
470.41	5579.84
470.59	5547.07
470.77	5504.94
470.95	5500.26
471.14	5666.44
471.32	5657.07
471.50	5809.21
471.68	5827.93
471.86	5694.52
472.04	5799.85
472.22	5750.70
472.40	5708.57
472.58	5750.70
472.77	5720.27
472.95	6024.54
473.13	6026.88
473.31	5872.40
473.49	5799.85
473.67	6101.78
473.85	6047.94
474.03	6193.06
474.21	6164.97
474.39	6132.20
474.57	6183.70
474.75	6342.85
474.93	6319.45
475.12	6150.93
475.30	6256.25
475.48	6272.64
475.66	6349.87
475.84	6436.47
476.02	6420.09
476.20	6523.07
476.38	6658.82
476.56	6649.46
476.74	6724.36
476.92	6679.89
477.10	6843.73
477.28	6630.74
477.46	6808.62
477.64	6787.55
477.82	7091.82
478.00	6946.71
478.18	7068.42
478.36	6965.43
478.54	7248.64
478.72	7173.74
478.90	7293.11
479.08	7253.32
479.26	7370.35
479.44	7489.71
479.62	7508.44
479.80	7557.59
479.98	7676.96
480.16	7775.26
480.34	7417.16
480.52	7716.75
480.70	7868.88
480.88	7875.90
481.06	7770.58
481.24	7655.89
481.41	7936.76
481.59	8124.00
481.77	8152.09
481.95	8009.31
482.13	8262.09
482.31	8280.82
482.49	8435.29
482.67	8306.56
482.85	8596.79
483.03	8702.11
483.21	8667.00
483.39	8730.20
483.57	8695.09
483.74	8681.05
483.92	8926.80
484.10	8926.80
484.28	8938.51
484.46	9235.75
484.64	9397.25
484.82	9123.41
485.00	9364.48
485.18	9495.55
485.35	9635.99
485.53	9439.38
485.71	9511.94
485.89	9909.83
486.07	9685.14
486.25	9783.44
486.43	9708.54
486.61	10038.56
486.78	10106.43
486.96	10209.42
487.14	10274.95
487.32	10054.94
487.50	10382.62
487.68	10506.66
487.85	10590.92
488.03	10817.96
488.21	10546.45
488.39	10679.86
488.57	10853.06
488.75	10974.77
488.92	11030.94
489.10	11091.80
489.28	10860.09
489.46	11318.83
489.64	11138.61
489.81	11655.87
489.99	11585.65
490.17	11580.97
490.35	11576.29
490.53	11665.23
490.70	11903.96
490.88	11847.79
491.06	12273.77
491.24	11791.62
491.41	12100.57
491.59	12191.85
491.77	12304.20
491.95	12329.94
492.13	12343.99
492.30	12556.97
492.48	12496.12
492.66	12631.87
492.84	12582.72
493.01	12748.90
493.19	12868.27
493.37	12936.14
493.54	12987.63
493.72	13408.93
493.90	12910.40
494.08	13252.11
494.25	13268.50
494.43	13444.04
494.61	13488.51
494.79	13504.89
494.96	13329.35
495.14	13635.96
495.32	13888.74
495.49	13645.32
495.67	14024.49
495.85	13914.48
496.02	14047.90
496.20	14401.32
496.38	14214.07
496.55	13949.59
496.73	14370.89
496.91	14434.08
497.09	14506.64
497.26	14787.50
497.44	14616.65
497.62	14614.30
497.79	14757.08
497.97	14726.65
498.14	15222.84
498.32	15117.52
498.50	15365.62
498.67	15403.07
498.85	15197.10
499.03	15117.52
499.20	15183.06
499.38	15477.96
499.56	15515.41
499.73	15896.92
499.91	15765.85
500.08	15697.97
500.26	15573.92
500.44	15772.87
500.61	15840.75
500.79	15742.44
500.97	15934.37
501.14	16187.14
501.32	16306.51
501.49	16035.01
501.67	16086.50
501.84	16350.98
502.02	16222.25
502.20	16491.41
502.37	16559.29
502.55	16468.01
502.72	16409.50
502.90	16556.95
503.07	16203.53
503.25	16741.85
503.43	16727.81
503.60	16929.09
503.78	17439.33
503.95	17090.59
504.13	16989.95
504.30	17261.45
504.48	17158.47
504.65	17263.79
504.83	17352.73
505.01	17504.87
505.18	17551.68
505.36	17408.90
505.53	17242.73
505.71	17364.43
505.88	17584.44
506.06	17509.55
506.23	17642.96
506.41	17561.04
506.58	17865.31
506.76	17848.93
506.93	17757.64
507.11	17687.43
507.28	17900.42
507.46	17839.56
507.63	18267.88
507.81	18122.77
507.98	18183.62
508.16	18111.07
508.33	18450.44
508.50	18256.18
508.68	18253.84
508.85	18501.93
509.03	18445.76
509.20	18656.41
509.38	18696.20
509.55	18743.01
509.73	18731.31
509.90	18693.86
510.08	18679.82
510.25	18721.95
510.42	19002.81
510.60	18956.00
510.77	19269.63
510.95	19288.35
511.12	18806.20
511.30	18941.96
511.47	19344.53
511.64	19400.70
511.82	19466.24
511.99	19679.22
512.17	19744.76
512.34	19583.26
512.51	19669.86
512.69	19751.78
512.86	19822.00
513.04	19824.34
513.21	19903.92
513.38	20060.73
513.56	19882.85
513.73	20365.00
513.90	19941.36
514.08	19852.42
514.25	20074.77
514.43	20086.48
514.60	20149.67
514.77	20388.41
514.95	20491.39
515.12	19955.41
515.29	20053.71
515.47	20400.11
515.64	20388.41
515.81	20760.55
515.99	20760.55
516.16	20737.15
516.33	20702.04
516.51	20992.26
516.68	20416.49
516.85	20718.42
517.03	20840.13
517.20	21149.08
517.37	20936.09
517.54	21259.09
517.72	21120.99
517.89	21027.37
518.06	21109.29
518.24	20905.66
518.41	21015.67
518.58	21397.18
518.75	21174.83
518.93	21570.38
519.10	21507.18
519.27	21586.76
519.45	21493.14
519.62	21523.57
519.79	21465.05
519.96	21853.58
520.14	21741.24
520.31	21647.61
520.48	21930.82
520.65	22164.87
520.83	21942.52
521.00	22125.08
521.17	21912.10
521.34	21652.30
521.52	22160.19
521.69	22195.30
521.86	22164.87
522.03	22590.85
522.20	22150.83
522.38	22497.23
522.55	22359.14
522.72	22108.70
522.89	22354.46
523.07	22761.71
523.24	22677.45
523.41	22429.35
523.58	22520.63
523.75	22771.07
523.92	22831.93
524.10	22485.53
524.27	22850.65
524.44	22780.43
524.61	22572.13
524.78	22888.10
524.96	22925.55
525.13	23002.78
525.30	22764.05
525.47	22913.84
525.64	23391.31
525.81	23459.19
525.98	23065.98
526.16	23183.01
526.33	23145.56
526.50	23351.52
526.67	23161.94
526.84	23391.31
527.01	23393.65
527.18	23344.50
527.36	23360.89
527.53	23639.41
527.70	23871.12
527.87	23866.44
528.04	23662.82
528.21	24020.92
528.38	23737.71
528.55	23864.10
528.72	24114.54
528.89	24233.91
529.07	23850.06
529.24	23854.74
529.41	24109.86
529.58	23943.68
529.75	23934.32
529.92	24067.73
530.09	24161.35
530.26	24067.73
530.43	24386.04
530.60	24173.05
530.77	24496.05
530.94	24505.41
531.11	24357.96
531.28	24264.33
531.46	24601.37
531.63	24489.03
531.80	24613.07
531.97	24610.73
532.14	24830.74
532.31	24374.34
532.48	24540.52
532.65	24390.72
532.82	24252.63
532.99	24898.62
533.16	24694.99
533.33	24945.43
533.50	25259.06
533.67	25312.89
533.84	24910.32
534.01	24912.66
534.18	24978.20
534.35	24957.13
534.52	25259.06
534.69	25532.90
534.86	25394.81
535.03	25179.48
535.20	25036.71
535.37	25142.03
535.54	25254.38
535.71	24830.74
535.88	25273.10
536.05	25125.65
536.22	25603.12
536.38	25621.84
536.55	25661.63
536.72	25727.17
536.89	25392.47
537.06	25773.98
537.23	25811.43
537.40	25586.74
537.57	25710.78
537.74	25823.13
537.91	25935.48
538.08	25717.81
538.25	25883.98
538.42	25790.36
538.59	25986.97
538.75	25781.00
538.92	25701.42
539.09	26122.72
539.26	25965.90
539.43	26024.42
539.60	26155.49
539.77	26066.55
539.94	26281.88
540.11	26015.05
540.28	26494.86
540.44	26249.11
540.61	26483.16
540.78	25986.97
540.95	25876.96
541.12	26225.70
541.29	26459.76
541.46	26401.24
541.62	26263.15
541.79	26139.10
541.96	26298.26
542.13	26588.49
542.30	26422.31
542.47	27054.25
542.63	26665.72
542.80	26979.36
542.97	26864.67
543.14	26742.96
543.31	26714.87
543.48	26897.44
543.64	27157.24
543.81	27459.16
543.98	27080.00
544.15	27133.83
544.32	26974.67
544.48	27260.22
544.65	27094.04
544.82	27047.23
544.99	26754.66
545.16	27278.94
545.32	26625.93
545.49	27594.92
545.66	27445.12
545.83	27810.25
546.00	27637.05
546.16	27447.46
546.33	27285.97
546.50	26869.35
546.67	27433.42
546.83	27402.99
547.00	27288.31
547.17	27531.72
547.34	27400.65
547.50	27590.24
547.67	27812.59
547.84	27683.86
548.00	27601.94
548.17	28058.34
548.34	27793.86
548.51	27791.52
548.67	27997.49
548.84	28107.49
549.01	27976.42
549.18	27789.18
549.34	28072.39
549.51	28063.02
549.68	27786.84
549.84	28002.17
550.01	28318.14
550.18	28018.55
550.34	27924.93
550.51	28128.56
550.68	27985.79
550.84	27948.34
551.01	28374.31
551.18	27803.22
551.34	27782.16
551.51	28194.09
551.68	28189.41
551.84	28161.33
552.01	28163.67
552.18	28547.51
552.34	28140.26
552.51	28599.01
552.68	28453.89
552.84	28629.43
553.01	28613.05
553.18	28500.70
553.34	28194.09
553.51	28425.81
553.67	28608.37
553.84	28575.60
554.01	29027.32
554.17	28706.67
554.34	28709.01
554.51	28294.74
554.67	29130.31
554.84	28781.57
555.00	28465.60
555.17	28615.39
555.33	28748.80
555.50	29177.12
555.67	28713.69
555.83	28847.10
556.00	29118.60
556.16	29041.37
556.33	28861.15
556.50	28804.97
556.66	28828.38
556.83	29006.26
556.99	29343.30
557.16	29123.29
557.32	28882.21
557.49	29060.09
557.65	28903.28
557.82	29041.37
557.98	29062.43
558.15	29434.58
558.32	29036.69
558.48	29820.77
558.65	29390.11
558.81	29343.30
558.98	29291.80
559.14	29277.76
559.31	29069.45
559.47	29369.04
559.64	29703.74
559.80	29352.66
559.97	29869.92
560.13	29289.46
560.30	29577.35
560.46	29441.60
560.63	29532.88
560.79	29766.93
560.96	29579.69
561.12	29603.10
561.29	29228.61
561.45	29736.51
561.61	29624.16
561.78	29729.48
561.94	29944.81
562.11	29949.50
562.27	30096.95
562.44	29809.06
562.60	29385.43
562.77	29434.58
562.93	29490.75
563.10	29715.44
563.26	29460.32
563.42	29968.22
563.59	30003.33
563.75	29738.85
563.92	29947.15
564.08	29785.66
564.24	29773.95
564.41	29340.96
564.57	29823.11
564.74	29844.17
564.90	30075.88
565.07	30061.84
565.23	29766.93
565.39	29853.53
565.56	29818.42
565.72	29633.52
565.88	29888.64
566.05	29872.26
566.21	30015.03
566.38	30043.12
566.54	29982.26
566.70	30008.01
566.87	30029.07
567.03	30382.49
567.19	30075.88
567.36	30050.14
567.52	30258.45
567.68	30164.82
567.85	29853.53
568.01	29813.74
568.17	30267.81
568.34	30398.88
568.50	30199.93
568.66	30396.54
568.83	30281.85
568.99	30103.97
569.15	29954.18
569.32	30019.71
569.48	29986.94
569.64	30373.13
569.81	30466.75
569.97	30335.68
570.13	30654.00
570.30	30003.33
570.46	30148.44
570.62	30199.93
570.78	30136.74
570.95	30005.67
571.11	30087.59
571.27	29979.92
571.43	29954.18
571.60	30260.79
571.76	30239.72
571.92	30113.33
572.09	30150.78
572.25	30335.68
572.41	30412.92
572.57	30267.81
572.74	30639.95
572.90	30232.70
573.06	30059.50
573.22	30068.86
573.38	30368.45
573.55	30415.26
573.71	30574.42
573.87	30464.41
574.03	30146.10
574.20	30260.79
574.36	30419.94
574.52	30424.62
574.68	29940.13
574.84	30455.05
575.01	30279.51
575.17	30586.12
575.33	30377.81
575.49	30338.02
575.65	30539.31
575.82	30581.44
575.98	30391.86
576.14	30661.02
576.30	30359.09
576.46	30682.08
576.62	30251.42
576.79	30679.74
576.95	30771.02
577.11	30771.02
577.27	30668.04
577.43	30892.73
577.59	30656.34
577.75	30712.51
577.92	30506.54
578.08	30281.85
578.24	30473.78
578.40	30450.37
578.56	30691.44
578.72	30705.49
578.88	30927.84
579.04	30756.98
579.21	30754.64
579.37	30661.02
579.53	30897.41
579.69	30387.18
579.85	30623.57
580.01	30361.43
580.17	30312.28
580.33	30707.83
580.49	30515.90
580.65	30359.09
580.82	30888.05
580.98	30738.26
581.14	30733.57
581.30	30707.83
581.46	30389.52
581.62	30780.39
581.78	30719.53
581.94	30852.94
582.10	30565.06
582.26	30630.59
582.42	30621.23
582.58	30864.64
582.74	30705.49
582.90	30995.71
583.06	30754.64
583.22	30663.36
583.38	30841.24
583.54	30838.90
583.70	30696.13
583.86	30370.79
584.02	30817.83
584.18	30794.43
584.34	31110.40
584.50	31040.18
584.66	30590.80
584.82	30422.28
584.98	30710.17
585.14	30834.22
585.30	30445.69
585.46	30604.84
585.62	30471.43
585.78	30878.69
585.94	30686.76
586.10	30787.41
586.26	30485.48
586.42	31037.84
586.58	30946.56
586.74	30911.46
586.90	30513.56
587.06	30520.59
587.22	30834.22
587.38	30679.74
587.54	30869.33
587.70	30998.06
587.86	31091.68
588.02	30981.67
588.18	31239.13
588.34	30796.77
588.49	31234.45
588.65	30775.70
588.81	30359.09
588.97	31295.30
589.13	30747.62
589.29	30859.96
589.45	30799.11
589.61	31262.54
589.77	30934.86
589.93	30888.05
590.08	31314.03
590.24	31241.47
590.40	31463.82
590.56	30979.33
590.72	31129.12
590.88	31033.16
591.04	31129.12
591.20	31363.18
591.35	31058.91
591.51	31220.41
591.67	31136.15
591.83	31573.83
591.99	31367.86
592.15	31014.44
592.31	30782.73
592.46	31339.77
592.62	30967.63
592.78	30895.07
592.94	31087.00
593.10	31089.34
593.26	31161.89
593.41	31438.08
593.57	31101.04
593.73	30740.60
593.89	31253.17
594.05	31400.63
594.20	31077.63
594.36	31058.91
594.52	31082.31
594.68	31445.10
594.84	31030.82
594.99	31459.14
595.15	30988.69
595.31	31618.30
595.47	31459.14
595.62	31367.86
595.78	31292.96
595.94	31278.92
596.10	31255.51
596.25	30911.46
596.41	31033.16
596.57	31285.94
596.73	31096.36
596.88	31105.72
597.04	31208.70
597.20	31379.56
597.36	31370.20
597.51	31337.43
597.67	31033.16
597.83	31335.09
597.99	31180.62
598.14	31136.15
598.30	31517.65
598.46	31360.84
598.61	31103.38
598.77	31531.70
598.93	31208.70
599.09	31438.08
599.24	31433.39
599.40	31529.36
599.56	31695.53
599.71	31332.75
599.87	31367.86
600.03	31206.36
600.18	31445.10
600.34	31548.08
600.50	31318.71
600.65	31164.23
600.81	31447.44
600.97	31405.31
601.12	32058.32
601.28	31316.37
601.44	31622.98
601.59	31449.78
601.75	31651.06
601.91	31690.85
602.06	31225.09
602.22	31260.20
602.37	31201.68
602.53	31189.98
602.69	31358.50
602.84	31480.21
603.00	31447.44
603.16	31641.70
603.31	31379.56
603.47	31543.40
603.62	30974.65
603.78	31543.40
603.94	31131.47
604.09	31253.17
604.25	31044.87
604.40	31173.60
604.56	31424.03
604.71	31569.15
604.87	31637.02
605.03	31545.74
605.18	31625.32
605.34	31473.18
605.49	30988.69
605.65	31346.79
605.80	31098.70
605.96	31175.94
606.12	30932.52
606.27	31358.50
606.43	31094.02
606.58	31555.10
606.74	31555.10
606.89	31512.97
607.05	31342.11
607.20	31487.23
607.36	31351.48
607.51	31428.71
607.67	31002.74
607.82	31110.40
607.98	31126.78
608.13	31433.39
608.29	31152.53
608.44	30869.33
608.60	31091.68
608.75	31257.85
608.91	31342.11
609.06	30773.36
609.22	31243.81
609.37	30799.11
609.53	31129.12
609.68	30911.46
609.84	30731.23
609.99	31136.15
610.15	30976.99
610.30	31089.34
610.46	30895.07
610.61	31185.30
610.76	31096.36
610.92	31208.70
611.07	31037.84
611.23	30649.32
611.38	30820.17
611.54	30944.22
611.69	30742.94
611.84	30487.82
612.00	30766.34
612.15	30480.80
612.31	31044.87
612.46	30455.05
612.62	31063.59
612.77	31290.62
612.92	31274.24
613.08	30771.02
613.23	30792.09
613.39	30869.33
613.54	30682.08
613.69	30916.14
613.85	30677.40
614.00	30944.22
614.15	30859.96
614.31	30661.02
614.46	31110.40
614.62	30368.45
614.77	30649.32
614.92	30843.58
615.08	30405.90
615.23	30749.96
615.38	30675.06
615.54	30092.27
615.69	30558.03
615.84	30656.34
616.00	30569.74
616.15	30384.83
616.30	30419.94
616.46	30614.21
616.61	30471.43
616.76	30871.67
616.92	30822.51
617.07	30419.94
617.22	30579.10
617.37	30539.31
617.53	30911.46
617.68	30286.53
617.83	30230.36
617.99	30291.21
618.14	30295.89
618.29	30331.00
618.45	30305.26
618.60	30618.89
618.75	30305.26
618.90	30815.49
619.06	30541.65
619.21	30438.67
619.36	30590.80
619.51	30323.98
619.67	29900.34
619.82	30424.62
619.97	30115.67
620.12	30132.06
620.28	30118.01
620.43	30326.32
620.58	30368.45
620.73	30696.13
620.89	30469.09
621.04	30293.55
621.19	30338.02
621.34	30274.83
621.49	29504.79
621.65	30199.93
621.80	30260.79
621.95	29820.77
622.10	30202.27
622.25	30015.03
622.41	29961.20
622.56	29949.50
622.71	30244.40
622.86	30064.18
623.01	30162.48
623.16	29979.92
623.32	29799.70
623.47	29668.63
623.62	29523.52
623.77	29825.45
623.92	29563.31
624.07	29823.11
624.23	29567.99
624.38	30068.86
624.53	30071.20
624.68	29869.92
624.83	29743.53
624.98	29734.17
625.13	29790.34
625.29	30228.02
625.44	29825.45
625.59	29174.78
625.74	29621.82
625.89	29523.52
626.04	29727.14
626.19	29240.31
626.34	29553.94
626.49	29242.65
626.65	29275.42
626.80	29434.58
626.95	29420.53
627.10	29675.65
627.25	29123.29
627.40	29539.90
627.55	29191.16
627.70	29024.98
627.85	29008.60
628.00	29268.40
628.15	29355.00
628.30	29060.09
628.45	28933.70
628.60	29027.32
628.76	29380.74
628.91	29333.93
629.06	29289.46
629.21	29291.80
629.36	29167.76
629.51	29500.11
629.66	29003.92
629.81	28893.91
629.96	28783.91
630.11	29006.26
630.26	29296.49
630.41	29041.37
630.56	29010.94
630.71	29205.20
630.86	28863.49
631.01	28664.54
631.16	29179.46
631.31	28931.36
631.46	28811.99
631.61	28704.33
631.76	29055.41
631.91	28940.72
632.06	28767.52
632.21	28713.69
632.36	28776.89
632.51	28680.92
632.66	28987.53
632.81	28769.86
632.96	28744.12
633.10	28664.54
633.25	28570.92
633.40	28753.48
633.55	28638.80
633.70	28154.30
633.85	28254.95
634.00	28573.26
634.15	28814.34
634.30	28676.24
634.45	28299.42
634.60	28486.66
634.75	28664.54
634.90	28247.93
635.05	28432.83
635.19	28463.25
635.34	28652.84
635.49	28505.38
635.64	28645.82
635.79	28613.05
635.94	28596.67
636.09	28601.35
636.24	28545.17
636.39	28100.47
636.53	28404.74
636.68	28374.31
636.83	28191.75
636.98	28662.20
637.13	28166.01
637.28	28465.60
637.43	28355.59
637.57	28334.53
637.72	28163.67
637.87	28105.15
638.02	28189.41
638.17	28210.48
638.32	28301.76
638.46	28198.77
638.61	28034.94
638.76	27772.80
638.91	27534.06
639.06	27950.68
639.20	28070.04
639.35	27976.42
639.50	28175.37
639.65	28198.77
639.80	28311.12
639.94	28194.09
640.09	28208.14
640.24	28093.45
640.39	27653.43
640.54	27749.39
640.68	27733.01
640.83	27695.56
640.98	27623.00
641.13	27887.48
641.27	27892.16
641.42	27728.33
641.57	27974.08
641.72	28004.51
641.86	27566.83
642.01	27606.62
642.16	27337.46
642.31	27527.04
642.45	27903.87
642.60	27402.99
642.75	27358.52
642.90	27351.50
643.04	27328.10
643.19	27515.34
643.34	27321.07
643.48	27665.13
643.63	27615.98
643.78	27295.33
643.93	27564.49
644.07	27775.14
644.22	27559.81
644.37	27370.22
644.51	27552.79
644.66	27278.94
644.81	27494.27
644.95	27091.70
645.10	27548.11
645.25	27445.12
645.39	27087.02
645.54	27208.73
645.69	27211.07
645.83	27314.05
645.98	27194.68
646.13	27391.29
646.27	27402.99
646.42	27435.76
646.57	27129.15
646.71	26911.48
646.86	27243.84
647.00	26632.96
647.15	27047.23
647.30	27330.44
647.44	27323.41
647.59	27414.69
647.74	26934.88
647.88	26792.11
648.03	27131.49
648.17	27000.42
648.32	27030.85
648.47	27190.00
648.61	27311.71
648.76	27234.47
648.90	27297.67
649.05	27314.05
649.20	26651.68
649.34	27094.04
649.49	26771.05
649.63	26604.87
649.78	26913.82
649.92	26738.28
650.07	26644.66
650.21	26614.23
650.36	26726.58
650.51	26682.11
650.65	26658.70
650.80	26691.47
650.94	26333.37
651.09	26651.68
651.23	26274.85
651.38	26663.38
651.52	26263.15
651.67	26618.91
651.81	26569.76
651.96	26569.76
652.10	26462.10
652.25	26576.78
652.39	26576.78
652.54	26738.28
652.68	26242.09
652.83	27023.83
652.97	26813.18
653.12	26443.37
653.26	26546.36
653.41	26639.98
653.55	26520.61
653.70	26258.47
653.84	26342.73
653.99	25996.33
654.13	26061.87
654.27	26586.15
654.42	26377.84
654.56	26113.36
654.71	26401.24
654.85	26309.96
655.00	26167.19
655.14	26192.94
655.29	26354.43
655.43	26103.99
655.57	25795.04
655.72	26031.44
655.86	26232.72
656.01	25844.20
656.15	25734.19
656.30	25930.80
656.44	26134.42
656.58	25811.43
656.73	25956.54
656.87	25806.75
657.01	26054.84
657.16	25942.50
657.30	26054.84
657.45	25736.53
657.59	25708.44
657.73	25708.44
657.88	25781.00
658.02	25553.97
658.16	25675.68
658.31	25523.54
658.45	25703.76
658.60	25577.37
658.74	25549.29
658.88	25642.91
659.03	25628.87
659.17	25577.37
659.31	25741.21
659.46	25671.00
659.60	25855.90
659.74	25619.50
659.89	25834.83
660.03	25645.25
660.17	25525.88
660.32	25357.36
660.46	25443.96
660.60	25104.59
660.74	24847.13
660.89	24994.58
661.03	24774.57
661.17	24896.28
661.32	25371.41
661.46	25085.86
661.60	24996.92
661.74	25120.97
661.89	25088.20
662.03	25216.93
662.17	25188.85
662.31	25006.28
662.46	25083.52
662.60	24854.15
662.74	24975.86
662.88	24868.19
663.03	24692.65
663.17	24460.94
663.31	24580.31
663.45	24491.37
663.60	24751.17
663.74	24739.46
663.88	24505.41
664.02	24884.58
664.17	24819.04
664.31	24671.59
664.45	24704.35
664.59	24566.26
664.73	24355.61
664.88	24610.73
665.02	24182.42
665.16	24304.12
665.30	24334.55
665.44	24528.81
665.59	23871.12
665.73	24549.88
665.87	24278.38
666.01	24128.58
666.15	24489.03
666.29	23910.91
666.44	24018.58
666.58	23836.02
666.72	23697.92
666.86	24173.05
667.00	24149.65
667.14	24105.18
667.28	23812.61
667.43	23599.62
667.57	23744.73
667.71	23709.63
667.85	23707.29
667.99	23667.50
668.13	23868.78
668.27	23541.11
668.41	23707.29
668.56	23599.62
668.70	23557.49
668.84	23566.85
668.98	23641.75
669.12	23178.33
669.26	23597.28
669.40	23260.24
669.54	23276.63
669.68	23342.16
669.82	23147.90
669.96	23328.12
670.10	23147.90
670.25	22913.84
670.39	22675.11
670.53	23035.55
670.67	22684.47
670.81	22972.36
670.95	22768.73
671.09	22913.84
671.23	23009.81
671.37	22911.50
671.51	23091.73
671.65	22937.25
671.79	22803.84
671.93	22808.52
672.07	22412.97
672.21	22359.14
672.35	22221.05
672.49	22286.58
672.63	22181.26
672.77	22295.94
672.91	22377.86
673.05	22401.27
673.19	22176.58
673.33	22183.60
673.47	22164.87
673.61	22335.73
673.75	22752.35
673.89	22108.70
674.03	22075.93
674.17	22199.98
674.31	21722.51
674.45	21827.84
674.59	21900.39
674.73	21785.71
674.87	21600.80
675.01	21834.86
675.15	21532.93
675.29	21675.70
675.43	21612.51
675.56	21720.17
675.70	21598.46
675.84	21528.25
675.98	20982.90
676.12	21766.98
676.26	21425.26
676.40	21589.10
676.54	21198.23
676.68	21455.69
676.82	20643.52
676.96	20943.11
677.10	21151.42
677.23	21099.93
677.37	20840.13
677.51	20709.06
677.65	20582.67
677.79	20849.49
677.93	20475.01
678.07	20512.46
678.21	20547.56
678.34	20386.07
678.48	20442.24
678.62	20372.02
678.76	20322.87
678.90	19983.49
679.04	20198.82
679.18	20458.62
679.31	20149.67
679.45	19922.64
679.59	19995.20
679.73	19819.66
679.87	19761.14
680.00	19550.49
680.14	19447.51
680.28	19447.51
680.42	19733.06
680.56	19552.84
680.70	19494.32
680.83	19903.92
680.97	19435.81
681.11	19513.05
681.25	19527.09
681.39	19316.44
681.52	19304.74
681.66	19297.72
681.80	18890.46
681.94	19204.10
682.07	18951.32
682.21	18799.18
682.35	18771.10
682.49	18831.95
682.62	18555.77
682.76	18775.78
682.90	18546.40
683.04	18675.13
683.17	18532.36
683.31	18534.70
683.45	18515.98
683.59	18778.12
683.72	18214.05
683.86	18389.59
684.00	18176.60
684.13	18272.56
684.27	17858.29
684.41	18031.49
684.55	17673.39
684.68	17961.27
684.82	17603.17
684.96	17544.66
685.09	17839.56
685.23	17692.11
685.37	17467.42
685.50	18010.42
685.64	17406.56
685.78	17750.62
685.91	17610.19
686.05	17605.51
686.19	17490.82
686.32	17570.40
686.46	16987.61
686.60	16704.40
686.73	17050.80
686.87	17151.45
687.01	16868.24
687.14	16589.72
687.28	16884.62
687.42	16671.64
687.55	16559.29
687.69	16512.48
687.82	16425.88
687.96	16397.79
688.10	16395.45
688.23	16599.08
688.37	16416.52
688.50	16627.17
688.64	16482.05
688.78	16524.18
688.91	16168.42
689.05	16468.01
689.18	16002.24
689.32	15627.76
689.46	15913.30
689.59	15976.50
689.73	16072.46
689.86	15957.77
690.00	16056.08
690.13	15719.04
690.27	15573.92
690.41	15847.77
690.54	15662.86
690.68	15609.03
690.81	15611.37
690.95	15590.31
691.08	15438.17
691.22	15452.22
691.35	15360.94
691.49	15412.43
691.62	15456.90
691.76	15147.95
691.89	15138.58
692.03	14787.50
692.16	14712.61
692.30	14934.96
692.43	14815.59
692.57	14626.01
692.70	14642.39
692.84	14602.60
692.97	14450.47
693.11	14583.88
693.24	14600.26
693.38	14401.32
693.51	14317.06
693.65	14389.61
693.78	14494.94
693.92	14146.20
694.05	14188.33
694.19	14125.13
694.32	14047.90
694.45	13886.40
694.59	13834.91
694.72	13881.72
694.86	13547.02
694.99	13682.77
695.13	13551.70
695.26	13724.90
695.39	13699.16
695.53	13596.17
695.66	13696.82
695.80	13420.63
695.93	13530.64
696.07	13518.93
696.20	13298.92
696.33	13420.63
696.47	13118.70
696.60	13085.94
696.73	13172.54
696.87	13099.98
697.00	12922.10
697.14	12924.44
697.27	12713.79
697.40	12542.93
697.54	12961.89
697.67	12676.34
697.80	12681.02
697.94	12578.04
698.07	12578.04
698.21	12505.48
698.34	12582.72
698.47	12556.97
698.61	12538.25
698.74	12486.76
698.87	12283.13
699.01	12217.60
699.14	12187.17
699.27	11976.52
699.40	12208.23
699.54	12051.42
699.67	12049.08
699.80	11999.93
699.94	11971.84
700.07	11929.71
700.20	11634.80
700.34	11775.24
700.47	11573.95
700.60	11564.59
700.73	11786.94
700.87	11702.68
701.00	11477.99
701.13	11499.05
701.26	11501.39
701.40	11267.34
701.53	11215.85
701.66	11410.11
701.79	11276.70
701.93	11234.57
702.06	10953.71
702.19	10981.79
702.32	10895.19
702.46	10860.09
702.59	10913.92
702.72	10745.40
702.85	10827.32
702.99	10848.38
703.12	10745.40
703.25	10658.80
703.38	10733.70
703.51	10387.30
703.65	10684.55
703.78	10548.79
703.91	10616.67
704.04	10382.62
704.17	10581.56
704.31	10260.91
704.44	10347.51
704.57	10356.87
704.70	10099.41
704.83	10214.10
704.96	9951.96
705.10	9966.00
705.23	10104.09
>>>>>End Processed Spectral Data<<<<<
