SpectraSuite Data File
++++++++++++++++++++++++++++++++++++
Date: Fri Oct 18 13:58:21 GMT-05:00 2013
User: bianchi
Dark Spectrum Present: No
Reference Spectrum Present: No
Number of Sampled Component Spectra: 1
Spectrometers: USB2+H05261
Integration Time (usec): 50000 (USB2+H05261)
Spectra Averaged: 1 (USB2+H05261)
Boxcar Smoothing: 0 (USB2+H05261)
Correct for Electrical Dark: No (USB2+H05261)
Strobe/Lamp Enabled: No (USB2+H05261)
Correct for Detector Non-linearity: No (USB2+H05261)
Correct for Stray Light: No (USB2+H05261)
Number of Pixels in Processed Spectrum: 2048
>>>>>Begin Processed Spectral Data<<<<<
365.73	0.00
365.92	0.00
366.12	0.00
366.32	0.00
366.52	0.00
366.72	0.00
366.91	0.00
367.11	0.00
367.31	0.00
367.51	0.00
367.70	0.00
367.90	0.00
368.10	0.00
368.30	0.00
368.49	0.00
368.69	0.00
368.89	0.00
369.09	0.00
369.28	0.00
369.48	0.00
369.68	0.00
369.87	0.00
370.07	0.00
370.27	0.00
370.47	0.00
370.66	56.17
370.86	112.35
371.06	131.07
371.25	105.32
371.45	131.07
371.65	152.13
371.84	126.39
372.04	194.26
372.24	212.99
372.44	100.64
372.63	203.63
372.83	227.03
373.03	208.31
373.22	234.05
373.42	215.33
373.62	231.71
373.81	220.01
374.01	271.50
374.21	236.39
374.40	227.03
374.60	271.50
374.79	196.60
374.99	234.05
375.19	210.65
375.38	262.14
375.58	250.44
375.78	358.10
375.97	231.71
376.17	341.72
376.37	327.68
376.56	280.86
376.76	243.42
376.95	280.86
377.15	220.01
377.35	238.73
377.54	266.82
377.74	224.69
377.93	205.97
378.13	255.12
378.33	299.59
378.52	259.80
378.72	278.52
378.91	306.61
379.11	320.65
379.31	266.82
379.50	308.95
379.70	276.18
379.89	252.78
380.09	266.82
380.28	241.08
380.48	313.63
380.68	262.14
380.87	290.23
381.07	334.70
381.26	285.55
381.46	327.68
381.65	360.44
381.85	306.61
382.04	386.19
382.24	255.12
382.43	278.52
382.63	325.33
382.83	283.20
383.02	299.59
383.22	313.63
383.41	365.12
383.61	449.38
383.80	297.25
384.00	346.40
384.19	397.89
384.39	489.17
384.58	360.44
384.78	454.06
384.97	355.76
385.17	339.38
385.36	337.04
385.56	386.19
385.75	367.46
385.95	386.19
386.14	400.23
386.34	376.83
386.53	402.57
386.72	449.38
386.92	383.85
387.11	390.87
387.31	447.04
387.50	355.76
387.70	355.76
387.89	409.59
388.09	400.23
388.28	404.91
388.48	365.12
388.67	435.34
388.86	414.27
389.06	449.38
389.25	447.04
389.45	463.43
389.64	479.81
389.84	470.45
390.03	388.53
390.22	454.06
390.42	433.00
390.61	463.43
390.81	486.83
391.00	475.13
391.19	402.57
391.39	514.92
391.58	423.64
391.78	496.19
391.97	531.30
392.16	559.39
392.36	564.07
392.55	528.96
392.75	552.37
392.94	500.87
393.13	510.24
393.33	505.56
393.52	540.66
393.71	557.05
393.91	566.41
394.10	510.24
394.29	512.58
394.49	573.43
394.68	545.34
394.88	601.52
395.07	601.52
395.26	580.45
395.46	674.07
395.65	610.88
395.84	631.94
396.04	587.47
396.23	533.64
396.42	613.22
396.62	641.31
396.81	702.16
397.00	624.92
397.19	552.37
397.39	599.18
397.58	667.05
397.77	660.03
397.97	748.97
398.16	660.03
398.35	645.99
398.55	641.31
398.74	697.48
398.93	748.97
399.12	770.04
399.32	744.29
399.51	720.88
399.70	643.65
399.90	676.41
400.09	765.36
400.28	751.31
400.47	788.76
400.67	781.74
400.86	702.16
401.05	723.23
401.24	781.74
401.44	795.78
401.63	774.72
401.82	856.64
402.01	826.21
402.21	711.52
402.40	767.70
402.59	819.19
402.78	819.19
402.97	781.74
403.17	819.19
403.36	856.64
403.55	940.90
403.74	912.81
403.93	868.34
404.13	905.79
404.32	912.81
404.51	938.55
404.70	849.61
404.89	926.85
405.09	915.15
405.28	873.02
405.47	973.66
405.66	954.94
405.85	959.62
406.05	924.51
406.24	999.41
406.43	976.00
406.62	976.00
406.81	1060.26
407.00	952.60
407.20	1064.94
407.39	943.24
407.58	1020.47
407.77	1043.88
407.96	1062.60
408.15	1018.13
408.34	1039.20
408.54	1025.15
408.73	1121.12
408.92	1104.73
409.11	1053.24
409.30	1188.99
409.49	1102.39
409.68	1116.44
409.87	1076.65
410.07	1163.25
410.26	1203.04
410.45	1193.67
410.64	1228.78
410.83	1240.48
411.02	1130.48
411.21	1301.34
411.40	1303.68
411.59	1233.46
411.78	1235.80
411.98	1247.51
412.17	1310.70
412.36	1266.23
412.55	1313.04
412.74	1313.04
412.93	1296.66
413.12	1273.25
413.31	1387.94
413.50	1275.59
413.69	1467.52
413.88	1336.45
414.07	1378.58
414.26	1306.02
414.45	1376.24
414.64	1409.00
414.83	1474.54
415.02	1540.07
415.22	1500.28
415.41	1589.22
415.60	1596.25
415.79	1579.86
415.98	1556.46
416.17	1727.32
416.36	1621.99
416.55	1612.63
416.74	1577.52
416.93	1575.18
417.12	1647.74
417.31	1619.65
417.50	1727.32
417.69	1701.57
417.88	1668.80
418.07	1689.87
418.26	1661.78
418.45	1682.85
418.64	1802.21
418.83	1792.85
419.02	1664.12
419.21	1863.07
419.39	1771.79
419.58	1741.36
419.77	1797.53
419.96	1912.22
420.15	1863.07
420.34	1746.04
420.53	1865.41
420.72	1757.74
420.91	1884.13
421.10	1942.64
421.29	1886.47
421.48	2001.16
421.67	1832.64
421.86	1884.13
422.05	1926.26
422.24	2019.88
422.43	1881.79
422.61	1877.11
422.80	2012.86
422.99	1977.75
423.18	1961.37
423.37	1902.86
423.56	2022.22
423.75	2040.95
423.94	1949.67
424.13	1788.17
424.32	1961.37
424.50	2040.95
424.69	2092.44
424.88	1923.92
425.07	1987.11
425.26	2008.18
425.45	2031.58
425.64	2047.97
425.83	2045.63
426.01	1998.82
426.20	2029.24
426.39	1975.41
426.58	2015.20
426.77	2022.22
426.96	2115.84
427.15	1961.37
427.33	1977.75
427.52	2033.93
427.71	2115.84
427.90	2258.62
428.09	2097.12
428.28	2207.13
428.46	2099.46
428.65	2188.40
428.84	2359.26
429.03	2251.60
429.22	2076.06
429.40	2169.68
429.59	2321.81
429.78	2165.00
429.97	2045.63
430.16	2141.59
430.34	2282.02
430.53	2389.69
430.72	2179.04
430.91	2366.28
431.10	2228.19
431.28	2305.43
431.47	2289.04
431.66	2370.96
431.85	2363.94
432.03	2375.64
432.22	2338.20
432.41	2401.39
432.60	2422.45
432.79	2422.45
432.97	2326.49
433.16	2509.05
433.35	2459.90
433.54	2448.20
433.72	2647.15
433.91	2422.45
434.10	2464.58
434.28	2537.14
434.47	2354.58
434.66	2490.33
434.85	2534.80
435.03	2530.12
435.22	2588.63
435.41	2698.64
435.59	2689.28
435.78	2764.17
435.97	2649.49
436.16	2614.38
436.34	2548.84
436.53	2612.04
436.72	2757.15
436.90	2628.42
437.09	2705.66
437.28	2612.04
437.46	2686.94
437.65	2841.41
437.84	2698.64
438.02	2672.89
438.21	2813.32
438.40	2597.99
438.58	2869.50
438.77	2974.82
438.96	2888.22
439.14	2839.07
439.33	2925.67
439.52	2909.29
439.70	2796.94
439.89	2993.55
440.08	3012.27
440.26	2972.48
440.45	2993.55
440.63	2958.44
440.82	3052.06
441.01	3021.63
441.19	3122.27
441.38	3157.38
441.57	3283.77
441.75	3110.57
441.94	3236.96
442.12	3236.96
442.31	3286.11
442.50	3246.32
442.68	3023.97
442.87	3206.53
443.05	3183.13
443.24	3323.56
443.43	3204.19
443.61	3386.76
443.80	3449.95
443.98	3274.41
444.17	3260.37
444.35	3290.79
444.54	3513.14
444.73	3372.71
444.91	3550.59
445.10	3431.23
445.28	3339.94
445.47	3337.60
445.65	3534.21
445.84	3534.21
446.02	3517.83
446.21	3295.47
446.39	3372.71
446.58	3576.34
446.77	3454.63
446.95	3309.52
447.14	3398.46
447.32	3524.85
447.51	3440.59
447.69	3330.58
447.88	3426.54
448.06	3428.88
448.25	3531.87
448.43	3482.72
448.62	3501.44
448.80	3501.44
448.99	3529.53
449.17	3506.12
449.36	3492.08
449.54	3761.24
449.73	3606.77
449.91	3684.00
450.10	3550.59
450.28	3740.18
450.46	3658.26
450.65	3698.05
450.83	3700.39
451.02	3805.71
451.20	3688.68
451.39	3768.26
451.57	3702.73
451.76	3698.05
451.94	3794.01
452.13	3789.33
452.31	3836.14
452.49	3786.99
452.68	3845.50
452.86	3819.75
453.05	3819.75
453.23	3901.67
453.42	3845.50
453.60	3716.77
453.78	3691.02
453.97	3772.94
454.15	3794.01
454.34	3772.94
454.52	3955.51
454.70	3880.61
454.89	4021.04
455.07	3971.89
455.26	4067.85
455.44	4060.83
455.62	4070.19
455.81	4070.19
455.99	4086.58
456.17	4072.53
456.36	4086.58
456.54	4175.52
456.73	4140.41
456.91	4313.61
457.09	4238.71
457.28	4259.78
457.46	4154.45
457.64	4257.43
457.83	4184.88
458.01	4241.05
458.19	4285.52
458.38	4388.50
458.56	4231.69
458.74	4238.71
458.93	4435.32
459.11	4461.06
459.29	4327.65
459.48	4358.08
459.66	4606.17
459.84	4578.09
460.03	4606.17
460.21	4341.69
460.39	4465.74
460.57	4503.19
460.76	4716.18
460.94	4613.20
461.12	4589.79
461.31	4475.10
461.49	4599.15
461.67	4594.47
461.85	4627.24
462.04	4582.77
462.22	4753.63
462.40	4692.77
462.59	4692.77
462.77	4709.16
462.95	4786.40
463.13	4739.58
463.32	4596.81
463.50	4755.97
463.68	4812.14
463.86	4793.42
464.05	4702.14
464.23	4669.37
464.41	4784.06
464.59	4840.23
464.78	4833.21
464.96	4823.84
465.14	4706.82
465.32	4884.70
465.50	4908.10
465.69	4875.34
465.87	4851.93
466.05	4887.04
466.23	4957.25
466.41	4973.64
466.60	5177.26
466.78	4994.70
466.96	4997.04
467.14	4961.94
467.32	4875.34
467.51	5041.51
467.69	5008.75
467.87	5006.41
468.05	5104.71
468.23	5156.20
468.41	5158.54
468.60	5200.67
468.78	5156.20
468.96	4992.36
469.14	5135.14
469.32	5090.67
469.50	5203.01
469.69	5317.70
469.87	5289.61
470.05	5348.12
470.23	5355.15
470.41	5455.79
470.59	5432.38
470.77	5397.28
470.95	5397.28
471.14	5518.98
471.32	5287.27
471.50	5472.17
471.68	5504.94
471.86	5504.94
472.04	5561.11
472.22	5717.93
472.40	5650.05
472.58	5518.98
472.77	5643.03
472.95	5577.50
473.13	5949.64
473.31	5722.61
473.49	5881.77
473.67	5858.36
473.85	5853.68
474.03	5818.57
474.21	5951.98
474.39	6019.86
474.57	5849.00
474.75	5949.64
474.93	6031.56
475.12	6183.70
475.30	6204.76
475.48	5980.07
475.66	6047.94
475.84	6162.63
476.02	6279.66
476.20	6237.53
476.38	6284.34
476.56	6312.42
476.74	6504.35
476.92	6345.19
477.10	6387.32
477.28	6665.85
477.46	6473.92
477.64	6612.01
477.82	6803.94
478.00	6855.43
478.18	6970.12
478.36	6794.58
478.54	6881.18
478.72	6862.45
478.90	7040.33
479.08	6958.41
479.26	6993.52
479.44	7152.68
479.62	7314.17
479.80	7129.27
479.98	7346.94
480.16	7323.54
480.34	7478.01
480.52	7506.10
480.70	7578.65
480.88	7487.37
481.06	7538.87
481.24	7377.37
481.41	7616.10
481.59	7798.66
481.77	7873.56
481.95	7843.14
482.13	7941.44
482.31	8013.99
482.49	8018.68
482.67	8018.68
482.85	8320.60
483.03	8301.88
483.21	8439.97
483.39	8472.74
483.57	8311.24
483.74	8671.68
483.92	8636.58
484.10	8561.68
484.28	8844.88
484.46	8713.81
484.64	8982.98
484.82	8917.44
485.00	8997.02
485.18	9125.75
485.35	9181.92
485.53	9231.07
485.71	9315.33
485.89	9525.98
486.07	9350.44
486.25	9493.21
486.43	9497.89
486.61	9598.54
486.78	9605.56
486.96	9678.12
487.14	9928.55
487.32	9928.55
487.50	10120.48
487.68	9877.06
487.85	10242.18
488.03	10328.78
488.21	10228.14
488.39	10438.79
488.57	10427.09
488.75	10600.29
488.92	10726.68
489.10	10871.79
489.28	10796.89
489.46	10897.53
489.64	10906.90
489.81	11040.31
489.99	11176.06
490.17	11173.72
490.35	11131.59
490.53	10984.13
490.70	11290.74
490.88	11335.21
491.06	11583.31
491.24	11550.54
491.41	11531.82
491.59	11744.81
491.77	11875.88
491.95	11798.64
492.13	11772.89
492.30	12081.85
492.48	11819.71
492.66	12123.98
492.84	12088.87
493.01	12142.70
493.19	12386.12
493.37	12732.51
493.54	12465.69
493.72	12430.59
493.90	12549.95
494.08	12819.11
494.25	13006.36
494.43	12912.74
494.61	13088.28
494.79	13167.85
494.96	13085.94
495.14	13209.98
495.32	13291.90
495.49	13429.99
495.67	13289.56
495.85	13364.46
496.02	13673.41
496.20	13757.67
496.38	13809.16
496.55	13930.87
496.73	14043.21
496.91	13937.89
497.09	13998.74
497.26	14057.26
497.44	13872.36
497.62	14143.86
497.79	14338.12
497.97	14317.06
498.14	14658.78
498.32	14539.41
498.50	14508.98
498.67	14626.01
498.85	14740.69
499.03	14633.03
499.20	14789.85
499.38	14689.20
499.56	15009.86
499.73	15016.88
499.91	15246.25
500.08	15035.60
500.26	15147.95
500.44	14871.76
500.61	15129.22
500.79	15321.15
500.97	15382.00
501.14	15927.35
501.32	15674.57
501.49	15646.48
501.67	15337.53
501.84	15454.56
502.02	15583.29
502.20	15688.61
502.37	15934.37
502.55	15852.45
502.72	15929.69
502.90	15882.88
503.07	15967.13
503.25	15950.75
503.43	15852.45
503.60	16290.13
503.78	16299.49
503.95	16325.24
504.13	16077.14
504.30	16285.45
504.48	16528.86
504.65	16456.31
504.83	16652.91
505.01	16798.02
505.18	16868.24
505.36	17003.99
505.53	16863.56
505.71	16702.06
505.88	16966.54
506.06	16786.32
506.23	17025.06
506.41	17015.69
506.58	16999.31
506.76	17188.89
506.93	17219.32
507.11	17099.95
507.28	17341.03
507.46	17481.46
507.63	17383.16
507.81	17511.89
507.98	17556.36
508.16	17600.83
508.33	17390.18
508.50	17703.81
508.68	17706.15
508.85	17928.50
509.03	17781.05
509.20	17689.77
509.38	18146.17
509.55	17956.59
509.73	18040.85
509.90	18094.68
510.08	18029.15
510.25	18216.39
510.42	18232.77
510.60	18354.48
510.77	18560.45
510.95	18380.23
511.12	18487.89
511.30	18735.99
511.47	18850.67
511.64	18284.26
511.82	18747.69
511.99	18340.44
512.17	18656.41
512.34	18965.36
512.51	18750.03
512.69	18633.00
512.86	18546.40
513.04	18906.85
513.21	19037.92
513.38	18853.02
513.56	18916.21
513.73	18993.45
513.90	19070.68
514.08	19264.95
514.25	19047.28
514.43	19325.80
514.60	19515.39
514.77	19349.21
514.95	19616.03
515.12	19777.53
515.29	19665.18
515.47	20070.09
515.64	19639.44
515.81	19559.86
515.99	19831.36
516.16	19983.49
516.33	20013.92
516.51	19939.02
516.68	20086.48
516.85	19845.40
517.03	20060.73
517.20	19817.32
517.37	20287.76
517.54	20484.37
517.72	20374.36
517.89	20339.26
518.06	20222.23
518.24	20524.16
518.41	20313.51
518.58	20444.58
518.75	20482.03
518.93	20568.63
519.10	20318.19
519.27	20875.24
519.45	20781.62
519.62	20458.62
519.79	20517.14
519.96	20795.66
520.14	21083.55
520.31	20830.77
520.48	21249.72
520.65	20774.60
520.83	21312.92
521.00	21319.94
521.17	20929.07
521.34	21469.73
521.52	21167.80
521.69	21254.40
521.86	21579.74
522.03	21352.71
522.20	21502.50
522.38	21628.89
522.55	21135.04
522.72	21535.27
522.89	21486.12
523.07	21642.93
523.24	21919.12
523.41	21720.17
523.58	21523.57
523.75	21640.59
523.92	21837.20
524.10	21729.53
524.27	21851.24
524.44	22052.53
524.61	22298.28
524.78	22253.81
524.96	21996.35
525.13	21839.54
525.30	22384.88
525.47	22043.17
525.64	22366.16
525.81	22003.38
525.98	22436.38
526.16	22183.60
526.33	22221.05
526.50	22600.21
526.67	22401.27
526.84	22572.13
527.01	22410.63
527.18	22527.66
527.36	22740.64
527.53	22588.51
527.70	23002.78
527.87	22869.37
528.04	22937.25
528.21	22611.92
528.38	22485.53
528.55	23112.79
528.72	23087.04
528.89	22955.97
529.07	23112.79
529.24	23236.84
529.41	23129.17
529.58	23028.53
529.75	22981.72
529.92	23257.90
530.09	23077.68
530.26	23105.77
530.43	23281.31
530.60	23058.96
530.77	23152.58
530.94	23632.39
531.11	23358.55
531.28	23445.15
531.46	23283.65
531.63	23723.67
531.80	23740.05
531.97	23618.35
532.14	23674.52
532.31	23817.29
532.48	23655.79
532.65	23924.96
532.82	23793.89
532.99	23707.29
533.16	23735.37
533.33	24554.56
533.50	24123.90
533.67	23786.86
533.84	23824.31
534.01	24212.84
534.18	23580.90
534.35	24245.61
534.52	24147.31
534.69	24261.99
534.86	24322.85
535.03	23985.81
535.20	24547.54
535.37	24276.04
535.54	24336.89
535.71	24168.37
535.88	24016.24
536.05	24039.64
536.22	24704.35
536.38	24732.44
536.55	24372.00
536.72	24477.32
536.89	24741.80
537.06	24479.66
537.23	25113.95
537.40	24662.22
537.57	24552.22
537.74	24683.29
537.91	24751.17
538.08	24776.91
538.25	24835.42
538.42	24795.64
538.59	24709.04
538.75	24938.41
538.92	24760.53
539.09	25273.10
539.26	25102.25
539.43	25053.09
539.60	25144.38
539.77	25118.63
539.94	25575.03
540.11	24940.75
540.28	25315.23
540.44	25008.62
540.61	24971.18
540.78	25399.49
540.95	25219.27
541.12	25055.43
541.29	25357.36
541.46	25481.41
541.62	25418.22
541.79	25422.90
541.96	25223.95
542.13	25371.41
542.30	25589.08
542.47	25743.55
542.63	26190.59
542.80	25888.67
542.97	25926.11
543.14	25778.66
543.31	25652.27
543.48	25715.47
543.64	26141.44
543.81	26019.74
543.98	26038.46
544.15	25991.65
544.32	26417.63
544.48	26635.30
544.65	26059.52
544.82	25986.97
544.99	25818.45
545.16	26096.97
545.32	26417.63
545.49	26164.85
545.66	26522.95
545.83	26553.38
546.00	26593.17
546.16	26148.46
546.33	26022.08
546.50	25848.88
546.67	26295.92
546.83	26307.62
547.00	26307.62
547.17	26043.14
547.34	26728.92
547.50	26881.05
547.67	26958.29
547.84	26560.40
548.00	26459.76
548.17	26541.68
548.34	26869.35
548.51	26934.88
548.67	27131.49
548.84	27054.25
549.01	26553.38
549.18	26686.79
549.34	26455.08
549.51	26670.40
549.68	26960.63
549.84	26764.03
550.01	26958.29
550.18	26897.44
550.34	27126.81
550.51	27072.98
550.68	27131.49
550.84	26658.70
551.01	27143.19
551.18	26934.88
551.34	26923.18
551.51	26754.66
551.68	27276.60
551.84	27314.05
552.01	27026.17
552.18	27271.92
552.34	26920.84
552.51	27049.57
552.68	27105.74
552.84	27548.11
553.01	27484.91
553.18	27297.67
553.34	27721.30
553.51	27367.88
553.67	27733.01
553.84	27639.39
554.01	27342.14
554.17	27470.87
554.34	27454.48
554.51	27297.67
554.67	27725.99
554.84	27185.32
555.00	27215.75
555.17	27690.88
555.33	27496.61
555.50	27784.50
555.67	27646.41
555.83	27941.32
556.00	27796.20
556.16	28067.70
556.33	27941.32
556.50	27978.76
556.66	27835.99
556.83	27824.29
556.99	28046.64
557.16	27901.53
557.32	28074.73
557.49	28247.93
557.65	27866.42
557.82	27784.50
557.98	27384.27
558.15	28130.90
558.32	28093.45
558.48	28287.71
558.65	28247.93
558.81	27894.50
558.98	28240.90
559.14	28339.21
559.31	28081.75
559.47	27992.81
559.64	28102.81
559.80	28458.57
559.97	28311.12
560.13	27995.15
560.30	28428.15
560.46	28437.51
560.63	28442.19
560.79	28252.61
560.96	28477.30
561.12	28250.27
561.29	28371.97
561.45	28116.86
561.61	28273.67
561.78	28332.18
561.94	28589.64
562.11	28474.96
562.27	28442.19
562.44	28400.06
562.60	28273.67
562.77	28533.47
562.93	28304.10
563.10	28638.80
563.26	28388.36
563.42	28624.75
563.59	28500.70
563.75	28622.41
563.92	28622.41
564.08	28587.30
564.24	28463.25
564.41	28615.39
564.57	28503.04
564.74	28833.06
564.90	28809.65
565.07	28858.81
565.23	29020.30
565.39	28666.88
565.56	28716.03
565.72	28587.30
565.88	28439.85
566.05	28613.05
566.21	28744.12
566.38	28643.48
566.54	28648.16
566.70	28982.85
566.87	29219.25
567.03	28746.46
567.19	28954.77
567.36	29064.77
567.52	28561.56
567.68	29132.65
567.85	28929.02
568.01	28950.09
568.17	28926.68
568.34	28947.75
568.50	28917.32
568.66	29259.04
568.83	29088.18
568.99	28795.61
569.15	28854.12
569.32	28996.90
569.48	28655.18
569.64	28758.16
569.81	29359.68
569.97	28781.57
570.13	29113.92
570.30	28711.35
570.46	28891.57
570.62	28819.02
570.78	29085.84
570.95	28657.52
571.11	28842.42
571.27	28933.70
571.43	28868.17
571.60	29144.35
571.76	28917.32
571.92	29216.91
572.09	29043.71
572.25	29165.42
572.41	29315.21
572.57	29362.02
572.74	29139.67
572.90	28837.74
573.06	28994.56
573.22	28900.94
573.38	28973.49
573.55	29287.12
573.71	29270.74
573.87	29151.37
574.03	29076.48
574.20	28804.97
574.36	28959.45
574.52	29053.07
574.68	28739.44
574.84	29429.90
575.01	28854.12
575.17	28940.72
575.33	28842.42
575.49	29104.56
575.65	29268.40
575.82	29013.28
575.98	29221.59
576.14	29174.78
576.30	29333.93
576.46	29226.27
576.62	29099.88
576.79	29240.31
576.95	29249.67
577.11	29064.77
577.27	29015.62
577.43	29481.39
577.59	29401.81
577.75	29535.22
577.92	28907.96
578.08	29200.52
578.24	29244.99
578.40	28896.25
578.56	29034.35
578.72	28938.38
578.88	29759.91
579.04	29350.32
579.21	29504.79
579.37	29401.81
579.53	29385.43
579.69	28943.06
579.85	29085.84
580.01	29127.97
580.17	29350.32
580.33	29397.13
580.49	29027.32
580.65	29399.47
580.82	29401.81
580.98	29167.76
581.14	29399.47
581.30	29249.67
581.46	29209.89
581.62	29462.66
581.78	28840.08
581.94	29256.70
582.10	29399.47
582.26	29429.90
582.42	29479.05
582.58	29230.95
582.74	29694.38
582.90	29624.16
583.06	29352.66
583.22	29425.22
583.38	29029.66
583.54	29013.28
583.70	29254.36
583.86	29476.71
584.02	29165.42
584.18	29696.72
584.34	29394.79
584.50	29734.17
584.66	29668.63
584.82	28924.34
584.98	29383.09
585.14	29165.42
585.30	29521.18
585.46	29420.53
585.62	28903.28
585.78	29666.29
585.94	29113.92
586.10	29399.47
586.26	29692.04
586.42	29610.12
586.58	29633.52
586.74	29174.78
586.90	29020.30
587.06	29163.08
587.22	29558.63
587.38	29134.99
587.54	29572.67
587.70	29783.32
587.86	29642.88
588.02	29549.26
588.18	29923.75
588.34	29486.07
588.49	29663.95
588.65	29226.27
588.81	29156.05
588.97	29759.91
589.13	29479.05
589.29	29607.78
589.45	29680.33
589.61	29776.30
589.77	29572.67
589.93	30143.76
590.08	29661.61
590.24	29762.25
590.40	30366.11
590.56	29766.93
590.72	29715.44
590.88	29270.74
591.04	29750.55
591.20	29860.55
591.35	30209.29
591.51	30132.06
591.67	30054.82
591.83	30312.28
591.99	29912.05
592.15	29795.02
592.31	29542.24
592.46	29628.84
592.62	29488.41
592.78	29769.27
592.94	29556.28
593.10	29907.37
593.26	29600.76
593.41	30075.88
593.57	29736.51
593.73	29446.28
593.89	29914.39
594.05	29912.05
594.20	29429.90
594.36	29666.29
594.52	29677.99
594.68	29563.31
594.84	29764.59
594.99	29869.92
595.15	30085.25
595.31	29986.94
595.47	29900.34
595.62	29942.47
595.78	30082.91
595.94	29731.83
596.10	30192.91
596.25	29846.51
596.41	29675.65
596.57	29682.67
596.73	29406.49
596.88	30061.84
597.04	30054.82
597.20	30092.27
597.36	30335.68
597.51	30408.24
597.67	29853.53
597.83	30057.16
597.99	29839.49
598.14	29502.45
598.30	29769.27
598.46	29926.09
598.61	29883.96
598.77	29694.38
598.93	30000.99
599.09	30141.42
599.24	30588.46
599.40	30258.45
599.56	30036.09
599.71	30087.59
599.87	29846.51
600.03	30094.61
600.18	29776.30
600.34	29905.02
600.50	30223.34
600.65	29809.06
600.81	30071.20
600.97	29965.88
601.12	30031.41
601.28	30251.42
601.44	30106.31
601.59	30199.93
601.75	29855.87
601.91	30146.10
602.06	30064.18
602.22	30085.25
602.37	30132.06
602.53	30228.02
602.69	29832.47
602.84	29907.37
603.00	30110.99
603.16	30401.22
603.31	30424.62
603.47	29806.72
603.62	30012.69
603.78	29921.41
603.94	30235.04
604.09	29659.27
604.25	29734.17
604.40	29677.99
604.56	29921.41
604.71	30284.19
604.87	29759.91
605.03	30216.32
605.18	29860.55
605.34	30256.11
605.49	30157.80
605.65	30288.87
605.80	29399.47
605.96	29848.85
606.12	29558.63
606.27	30162.48
606.43	29881.62
606.58	30061.84
606.74	29757.57
606.89	30157.80
607.05	29919.07
607.20	30192.91
607.36	30022.05
607.51	30103.97
607.67	29879.28
607.82	29635.86
607.98	30110.99
608.13	30099.29
608.29	29820.77
608.44	29736.51
608.60	29851.19
608.75	30068.86
608.91	29949.50
609.06	29773.95
609.22	29860.55
609.37	29677.99
609.53	30033.75
609.68	29898.00
609.84	30085.25
609.99	29635.86
610.15	29549.26
610.30	29289.46
610.46	29605.44
610.61	29701.40
610.76	29610.12
610.92	29741.19
611.07	29738.85
611.23	29720.12
611.38	29504.79
611.54	29270.74
611.69	29385.43
611.84	29614.80
612.00	29446.28
612.15	29294.14
612.31	29797.36
612.46	29434.58
612.62	29773.95
612.77	29731.83
612.92	29694.38
613.08	29167.76
613.23	29509.47
613.39	29575.01
613.54	29436.92
613.69	29268.40
613.85	29151.37
614.00	29223.93
614.15	29275.42
614.31	29345.64
614.46	29673.31
614.62	29163.08
614.77	29694.38
614.92	29259.04
615.08	29319.89
615.23	29490.75
615.38	29132.65
615.54	29425.22
615.69	28933.70
615.84	29167.76
616.00	29493.09
616.15	29139.67
616.30	29495.43
616.46	29273.08
616.61	29324.57
616.76	29331.59
616.92	29305.85
617.07	29357.34
617.22	29078.82
617.37	29219.25
617.53	29132.65
617.68	28987.53
617.83	28996.90
617.99	28877.53
618.14	28978.17
618.29	29104.56
618.45	28940.72
618.60	28952.43
618.75	29378.40
618.90	29085.84
619.06	28900.94
619.21	28891.57
619.36	28730.08
619.51	28734.76
619.67	28570.92
619.82	28498.36
619.97	28631.77
620.12	28889.23
620.28	28788.59
620.43	29057.75
620.58	28992.22
620.73	28807.31
620.89	28624.75
621.04	29099.88
621.19	28821.36
621.34	28828.38
621.49	28512.41
621.65	28734.76
621.80	28561.56
621.95	28528.79
622.10	28833.06
622.25	28512.41
622.41	28793.27
622.56	28467.94
622.71	29125.63
622.86	28671.56
623.01	28545.17
623.16	28673.90
623.32	28430.49
623.47	28304.10
623.62	28467.94
623.77	28411.76
623.92	28533.47
624.07	28423.47
624.23	28582.62
624.38	28690.29
624.53	28748.80
624.68	28566.24
624.83	28568.58
624.98	28737.10
625.13	28472.62
625.29	28432.83
625.44	28177.71
625.59	28334.53
625.74	28044.30
625.89	28240.90
626.04	28472.62
626.19	27927.27
626.34	27957.70
626.49	28142.60
626.65	27725.99
626.80	28020.89
626.95	28095.79
627.10	28119.20
627.25	27728.33
627.40	27974.08
627.55	27648.75
627.70	28168.35
627.85	27527.04
628.00	28187.07
628.15	27906.21
628.30	27733.01
628.45	27838.33
628.60	27850.03
628.76	27679.18
628.91	27791.52
629.06	27723.65
629.21	27840.67
629.36	27861.74
629.51	27887.48
629.66	27833.65
629.81	27807.90
629.96	27714.28
630.11	27819.61
630.26	27557.47
630.41	27885.14
630.56	27475.55
630.71	27798.54
630.86	27880.46
631.01	28182.39
631.16	27735.35
631.31	27330.44
631.46	27410.01
631.61	27494.27
631.76	27754.07
631.91	27482.57
632.06	27388.95
632.21	27335.12
632.36	27487.25
632.51	27089.36
632.66	27508.32
632.81	27246.18
632.96	26974.67
633.10	27639.39
633.25	27695.56
633.40	27833.65
633.55	27381.93
633.70	26925.52
633.85	27044.89
634.00	27133.83
634.15	27349.16
634.30	27199.37
634.45	27271.92
634.60	27227.45
634.75	26749.98
634.90	26895.10
635.05	27405.33
635.19	27175.96
635.34	27484.91
635.49	27232.13
635.64	27194.68
635.79	27136.17
635.94	27236.81
636.09	27150.21
636.24	27047.23
636.39	26991.06
636.53	26822.54
636.68	27108.08
636.83	27070.64
636.98	26834.24
637.13	26913.82
637.28	26923.18
637.43	26991.06
637.57	27101.06
637.72	26852.97
637.87	26918.50
638.02	26897.44
638.17	26717.22
638.32	26714.87
638.46	26499.55
638.61	26757.00
638.76	26668.06
638.91	26799.13
639.06	26656.36
639.20	26583.80
639.35	26700.83
639.50	26925.52
639.65	27037.87
639.80	26675.09
639.94	26852.97
640.09	26693.81
640.24	26803.82
640.39	26726.58
640.54	26375.50
640.68	26752.32
640.83	26202.30
640.98	26373.16
641.13	26476.14
641.27	26464.44
641.42	26675.09
641.57	26471.46
641.72	26539.33
641.86	26244.43
642.01	26256.13
642.16	26277.19
642.31	26464.44
642.45	26611.89
642.60	26040.80
642.75	26345.07
642.90	25975.27
643.04	26309.96
643.19	26342.73
643.34	26115.70
643.48	26031.44
643.63	26164.85
643.78	26485.50
643.93	26155.49
644.07	26466.78
644.22	25991.65
644.37	26125.06
644.51	26331.03
644.66	26384.86
644.81	25895.69
644.95	25986.97
645.10	26078.25
645.25	26038.46
645.39	25795.04
645.54	25799.73
645.69	25872.28
645.83	25956.54
645.98	25970.58
646.13	25591.42
646.27	26160.17
646.42	25860.58
646.57	26216.34
646.71	25989.31
646.86	26050.16
647.00	25839.51
647.15	25820.79
647.30	25535.24
647.44	25776.32
647.59	25390.13
647.74	25858.24
647.88	25795.04
648.03	25762.28
648.17	25661.63
648.32	25628.87
648.47	25989.31
648.61	25612.48
648.76	25844.20
648.90	25984.63
649.05	25876.96
649.20	25448.64
649.34	25652.27
649.49	25640.57
649.63	25076.50
649.78	25376.09
649.92	25336.30
650.07	25560.99
650.21	25579.71
650.36	25350.34
650.51	25490.77
650.65	25500.14
650.80	25376.09
650.94	25420.56
651.09	25296.51
651.23	25338.64
651.38	25312.89
651.52	25687.38
651.67	25174.80
651.81	25694.40
651.96	25415.88
652.10	25270.76
652.25	25067.14
652.39	25432.26
652.54	25467.37
652.68	25549.29
652.83	25415.88
652.97	25099.90
653.12	25422.90
653.26	25104.59
653.41	24826.06
653.55	25109.27
653.70	25060.12
653.84	25200.55
653.99	24985.22
654.13	25111.61
654.27	24837.76
654.42	25095.22
654.56	24730.10
654.71	25008.62
654.85	25247.36
655.00	25116.29
655.14	25446.30
655.29	25050.75
655.43	24781.59
655.57	24575.62
655.72	24545.20
655.86	24884.58
656.01	24936.07
656.15	24650.52
656.30	24774.57
656.44	24292.42
656.58	24936.07
656.73	24936.07
656.87	24634.14
657.01	24936.07
657.16	24800.32
657.30	25043.73
657.45	24676.27
657.59	24205.82
657.73	24582.65
657.88	24395.40
658.02	24524.13
658.16	24577.97
658.31	24346.25
658.45	24638.82
658.60	24126.24
658.74	24566.26
658.88	24496.05
659.03	24119.22
659.17	24460.94
659.31	24606.05
659.46	24364.98
659.60	24697.33
659.74	24261.99
659.89	24252.63
660.03	24297.10
660.17	24189.44
660.32	24151.99
660.46	24016.24
660.60	23917.93
660.74	24126.24
660.89	24168.37
661.03	23775.16
661.17	23711.97
661.32	24151.99
661.46	23800.91
661.60	24196.46
661.74	24121.56
661.89	23831.33
662.03	23707.29
662.17	23803.25
662.31	23740.05
662.46	24030.28
662.60	23543.45
662.74	23639.41
662.88	23576.22
663.03	23433.44
663.17	23431.10
663.31	23339.82
663.45	23365.57
663.60	23620.69
663.74	23051.94
663.88	23700.26
664.02	23220.45
664.17	23548.13
664.31	23672.18
664.45	23192.37
664.59	23489.62
664.73	23496.64
664.88	23241.52
665.02	23016.83
665.16	22600.21
665.30	23115.13
665.44	23110.45
665.59	22773.41
665.73	22932.57
665.87	22955.97
666.01	23248.54
666.15	23215.77
666.29	22932.57
666.44	22808.52
666.58	23035.55
666.72	22721.92
666.86	23159.60
667.00	22792.14
667.14	22370.84
667.28	22731.28
667.43	22677.45
667.57	22714.90
667.71	22530.00
667.85	22499.57
667.99	22522.98
668.13	22375.52
668.27	22462.12
668.41	22717.24
668.56	22508.93
668.70	22340.41
668.84	22457.44
668.98	22405.95
669.12	22476.16
669.26	22452.76
669.40	22305.31
669.54	22230.41
669.68	22022.10
669.82	22190.62
669.96	21858.26
670.10	21806.77
670.25	22108.70
670.39	21961.25
670.53	21729.53
670.67	21642.93
670.81	21802.09
670.95	21565.70
671.09	21692.08
671.23	21797.41
671.37	22008.06
671.51	21734.21
671.65	21664.00
671.79	21790.39
671.93	21455.69
672.07	21682.72
672.21	21495.48
672.35	21151.42
672.49	21268.45
672.63	21453.35
672.77	21193.55
672.91	21191.21
673.05	21235.68
673.19	21380.79
673.33	21247.38
673.47	21207.59
673.61	21394.84
673.75	21069.50
673.89	20891.62
674.03	20900.98
674.17	20919.71
674.31	20734.81
674.45	20851.83
674.59	21013.33
674.73	20922.05
674.87	20580.33
675.01	20718.42
675.15	20699.70
675.29	20615.44
675.43	20360.32
675.56	20365.00
675.70	20662.25
675.84	20526.50
675.98	19873.49
676.12	20723.10
676.26	20554.58
676.40	20451.60
676.54	20210.53
676.68	20238.61
676.82	19803.27
676.96	19824.34
677.10	20051.37
677.23	19906.26
677.37	19538.79
677.51	19721.35
677.65	19592.62
677.79	19508.37
677.93	19634.75
678.07	19587.94
678.21	19311.76
678.34	19461.55
678.48	19297.72
678.62	19295.38
678.76	19283.67
678.90	19206.44
679.04	19222.82
679.18	19194.73
679.31	18719.60
679.45	18911.53
679.59	18867.06
679.73	18623.64
679.87	18586.19
680.00	18808.54
680.14	18625.98
680.28	18473.85
680.42	18569.81
680.56	18836.63
680.70	18476.19
680.83	18541.72
680.97	18504.28
681.11	18366.18
681.25	17989.36
681.39	18373.21
681.52	18239.79
681.66	18448.10
681.80	18118.09
681.94	17745.94
682.07	17944.89
682.21	17806.80
682.35	17764.67
682.49	17626.57
682.62	17783.39
682.76	17830.20
682.90	17933.18
683.04	17633.60
683.17	17418.27
683.31	17539.97
683.45	17884.03
683.59	17511.89
683.72	17123.36
683.86	17369.12
684.00	17383.16
684.13	17446.35
684.27	17125.70
684.41	17041.44
684.55	16996.97
684.68	16690.36
684.82	16479.71
684.96	16681.00
685.09	16638.87
685.23	16826.11
685.37	16673.98
685.50	16901.01
685.64	16718.45
685.78	16692.70
685.91	16697.38
686.05	16718.45
686.19	16592.06
686.32	16456.31
686.46	16163.74
686.60	16458.65
686.73	16245.66
686.87	16156.72
687.01	16072.46
687.14	15955.43
687.28	15690.95
687.42	16180.12
687.55	15859.47
687.69	15754.15
687.82	15941.39
687.96	15688.61
688.10	15697.97
688.23	15487.32
688.37	15424.13
688.50	15602.01
688.64	15536.48
688.78	15534.14
688.91	15674.57
689.05	15442.85
689.18	15356.25
689.32	14754.74
689.46	14892.83
689.59	15283.70
689.73	15077.73
689.86	14932.62
690.00	14984.11
690.13	14696.22
690.27	14815.59
690.41	15101.14
690.54	14721.97
690.68	14689.20
690.81	14916.23
690.95	14480.89
691.08	14829.63
691.22	14618.99
691.35	14672.82
691.49	14490.26
691.62	14462.17
691.76	14050.24
691.89	14420.04
692.03	14132.15
692.16	14228.12
692.30	13694.47
692.43	14118.11
692.57	14031.51
692.70	13984.70
692.84	13848.95
692.97	13888.74
693.11	14003.43
693.24	13923.85
693.38	13745.97
693.51	13675.75
693.65	13642.98
693.78	13303.60
693.92	13521.27
694.05	13310.63
694.19	13160.83
694.32	13315.31
694.45	13142.11
694.59	12954.87
694.72	13041.46
694.86	12989.97
694.99	12814.43
695.13	12957.21
695.26	12765.28
695.39	12671.66
695.53	12861.24
695.66	12833.16
695.80	12901.03
695.93	12676.34
696.07	12762.94
696.20	12849.54
696.33	12674.00
696.47	12645.91
696.60	12664.64
696.73	12486.76
696.87	12706.77
697.00	12521.87
697.14	12116.95
697.27	12044.40
697.40	12194.19
697.54	11913.33
697.67	12180.15
697.80	12107.59
697.94	11850.13
698.07	11981.20
698.21	11936.73
698.34	11564.59
698.47	12241.00
698.61	11786.94
698.74	11770.55
698.87	11836.09
699.01	11470.97
699.14	11573.95
699.27	11470.97
699.40	11489.69
699.54	11431.18
699.67	11197.12
699.80	11452.24
699.94	11274.36
700.07	11229.89
700.20	11089.46
700.34	11169.04
700.47	11136.27
700.60	10993.50
700.73	10932.64
700.87	10902.22
701.00	10993.50
701.13	10892.85
701.26	11169.04
701.40	11154.99
701.53	10640.08
701.66	10752.42
701.79	10682.20
701.93	10445.81
702.06	10504.32
702.19	10478.58
702.32	10434.11
702.46	10265.59
702.59	10445.81
702.72	10204.74
702.85	10246.87
702.99	10132.18
703.12	10174.31
703.25	9942.60
703.38	10132.18
703.51	10272.61
703.65	10183.67
703.78	9963.66
703.91	9956.64
704.04	10127.50
704.17	10052.60
704.31	9888.76
704.44	9743.65
704.57	9657.05
704.70	9708.54
704.83	9638.33
704.96	9673.43
705.10	9467.47
705.23	9418.32
>>>>>End Processed Spectral Data<<<<<
