SpectraSuite Data File
++++++++++++++++++++++++++++++++++++
Date: Fri Oct 18 13:58:19 GMT-05:00 2013
User: bianchi
Dark Spectrum Present: No
Reference Spectrum Present: No
Number of Sampled Component Spectra: 1
Spectrometers: USB2+H05261
Integration Time (usec): 50000 (USB2+H05261)
Spectra Averaged: 1 (USB2+H05261)
Boxcar Smoothing: 0 (USB2+H05261)
Correct for Electrical Dark: No (USB2+H05261)
Strobe/Lamp Enabled: No (USB2+H05261)
Correct for Detector Non-linearity: No (USB2+H05261)
Correct for Stray Light: No (USB2+H05261)
Number of Pixels in Processed Spectrum: 2048
>>>>>Begin Processed Spectral Data<<<<<
365.73	0.00
365.92	0.00
366.12	0.00
366.32	0.00
366.52	0.00
366.72	0.00
366.91	0.00
367.11	0.00
367.31	0.00
367.51	0.00
367.70	0.00
367.90	0.00
368.10	0.00
368.30	0.00
368.49	0.00
368.69	0.00
368.89	0.00
369.09	0.00
369.28	0.00
369.48	0.00
369.68	0.00
369.87	0.00
370.07	0.00
370.27	0.00
370.47	0.00
370.66	67.88
370.86	72.56
371.06	88.94
371.25	142.77
371.45	93.62
371.65	156.82
371.84	126.39
372.04	138.09
372.24	86.60
372.44	170.86
372.63	131.07
372.83	177.88
373.03	177.88
373.22	208.31
373.42	170.86
373.62	273.84
373.81	252.78
374.01	306.61
374.21	259.80
374.40	142.77
374.60	255.12
374.79	259.80
374.99	229.37
375.19	189.58
375.38	245.76
375.58	236.39
375.78	231.71
375.97	208.31
376.17	322.99
376.37	266.82
376.56	266.82
376.76	297.25
376.95	217.67
377.15	292.57
377.35	264.48
377.54	212.99
377.74	241.08
377.93	264.48
378.13	304.27
378.33	325.33
378.52	276.18
378.72	278.52
378.91	280.86
379.11	297.25
379.31	266.82
379.50	383.85
379.70	388.53
379.89	280.86
380.09	315.97
380.28	320.65
380.48	299.59
380.68	308.95
380.87	315.97
381.07	339.38
381.26	372.15
381.46	337.04
381.65	243.42
381.85	287.89
382.04	379.17
382.24	325.33
382.43	313.63
382.63	390.87
382.83	285.55
383.02	308.95
383.22	341.72
383.41	374.49
383.61	374.49
383.80	311.29
384.00	325.33
384.19	337.04
384.39	337.04
384.58	360.44
384.78	327.68
384.97	416.62
385.17	348.74
385.36	414.27
385.56	451.72
385.75	367.46
385.95	365.12
386.14	315.97
386.34	337.04
386.53	449.38
386.72	383.85
386.92	383.85
387.11	425.98
387.31	360.44
387.50	423.64
387.70	425.98
387.89	404.91
388.09	454.06
388.28	454.06
388.48	505.56
388.67	430.66
388.86	444.70
389.06	514.92
389.25	458.74
389.45	423.64
389.64	454.06
389.84	552.37
390.03	489.17
390.22	451.72
390.42	479.81
390.61	416.62
390.81	402.57
391.00	533.64
391.19	451.72
391.39	475.13
391.58	524.28
391.78	489.17
391.97	430.66
392.16	505.56
392.36	475.13
392.55	615.56
392.75	538.32
392.94	636.63
393.13	503.22
393.33	543.00
393.52	615.56
393.71	566.41
393.91	573.43
394.10	580.45
394.29	636.63
394.49	547.69
394.68	620.24
394.88	650.67
395.07	578.11
395.26	648.33
395.46	552.37
395.65	540.66
395.84	641.31
396.04	697.48
396.23	791.10
396.42	610.88
396.62	674.07
396.81	641.31
397.00	599.18
397.19	678.76
397.39	676.41
397.58	744.29
397.77	695.14
397.97	657.69
398.16	610.88
398.35	681.10
398.55	678.76
398.74	676.41
398.93	741.95
399.12	678.76
399.32	725.57
399.51	697.48
399.70	711.52
399.90	692.80
400.09	842.59
400.28	748.97
400.47	683.44
400.67	784.08
400.86	837.91
401.05	807.48
401.24	814.51
401.44	795.78
401.63	816.85
401.82	901.11
402.01	753.65
402.21	823.87
402.40	868.34
402.59	887.06
402.78	863.66
402.97	868.34
403.17	837.91
403.36	898.77
403.55	898.77
403.74	936.21
403.93	908.13
404.13	884.72
404.32	917.49
404.51	910.47
404.70	966.64
404.89	866.00
405.09	1013.45
405.28	964.30
405.47	940.90
405.66	1041.54
405.85	1008.77
406.05	959.62
406.24	1025.15
406.43	976.00
406.62	978.34
406.81	990.05
407.00	1027.50
407.20	1036.86
407.39	966.64
407.58	1107.07
407.77	1020.47
407.96	1081.33
408.15	1020.47
408.34	1076.65
408.54	1156.22
408.73	1067.28
408.92	1163.25
409.11	1139.84
409.30	1078.99
409.49	1165.59
409.68	1118.78
409.87	1125.80
410.07	1221.76
410.26	1249.85
410.45	1203.04
410.64	1163.25
410.83	1165.59
411.02	1186.65
411.21	1172.61
411.40	1224.10
411.59	1348.15
411.78	1259.21
411.98	1291.98
412.17	1233.46
412.36	1303.68
412.55	1331.76
412.74	1416.02
412.93	1315.38
413.12	1301.34
413.31	1303.68
413.50	1394.96
413.69	1467.52
413.88	1514.33
414.07	1474.54
414.26	1469.86
414.45	1504.96
414.64	1563.48
414.83	1493.26
415.02	1556.46
415.22	1577.52
415.41	1519.01
415.60	1570.50
415.79	1603.27
415.98	1636.03
416.17	1671.14
416.36	1565.82
416.55	1600.93
416.74	1558.80
416.93	1624.33
417.12	1682.85
417.31	1666.46
417.50	1650.08
417.69	1706.25
417.88	1783.49
418.07	1739.02
418.26	1778.81
418.45	1741.36
418.64	1930.94
418.83	1804.55
419.02	1795.19
419.21	1863.07
419.39	1846.68
419.58	1743.70
419.77	1818.60
419.96	1874.77
420.15	1930.94
420.34	1809.23
420.53	1827.96
420.72	1858.39
420.91	1886.47
421.10	2026.90
421.29	1912.22
421.48	1949.67
421.67	1982.43
421.86	1912.22
422.05	1905.20
422.24	1921.58
422.43	1966.05
422.61	1984.77
422.80	2005.84
422.99	1959.03
423.18	2064.35
423.37	2120.53
423.56	2099.46
423.75	2005.84
423.94	1952.01
424.13	1867.75
424.32	2033.93
424.50	2036.27
424.69	1959.03
424.88	2136.91
425.07	1989.46
425.26	2036.27
425.45	2052.65
425.64	2003.50
425.83	2139.25
426.01	2033.93
426.20	2054.99
426.39	2106.48
426.58	2115.84
426.77	2097.12
426.96	2122.87
427.15	2062.01
427.33	2087.76
427.52	2160.31
427.71	2150.95
427.90	2073.71
428.09	2118.18
428.28	2134.57
428.46	2216.49
428.65	2169.68
428.84	2375.64
429.03	2260.96
429.22	2078.40
429.40	2228.19
429.59	2286.70
429.78	2221.17
429.97	2101.80
430.16	2223.51
430.34	2312.45
430.53	2225.85
430.72	2300.75
430.91	2216.49
431.10	2361.60
431.28	2328.83
431.47	2408.41
431.66	2457.56
431.85	2359.26
432.03	2340.54
432.22	2455.22
432.41	2396.71
432.60	2375.64
432.79	2483.31
432.97	2504.37
433.16	2520.76
433.35	2497.35
433.54	2544.16
433.72	2511.39
433.91	2534.80
434.10	2576.93
434.28	2471.61
434.47	2619.06
434.66	2635.44
434.85	2602.68
435.03	2565.23
435.22	2590.97
435.41	2586.29
435.59	2679.91
435.78	2700.98
435.97	2686.94
436.16	2747.79
436.34	2703.32
436.53	2656.51
436.72	2771.19
436.90	2689.28
437.09	2682.25
437.28	2654.17
437.46	2785.24
437.65	2700.98
437.84	2726.72
438.02	2841.41
438.21	2836.73
438.40	2778.22
438.58	2911.63
438.77	2911.63
438.96	2967.80
439.14	2951.42
439.33	2935.03
439.52	2925.67
439.70	2986.52
439.89	3038.02
440.08	2998.23
440.26	2986.52
440.45	3009.93
440.63	3157.38
440.82	3206.53
441.01	3218.24
441.19	3213.56
441.38	3138.66
441.57	3262.71
441.75	3253.34
441.94	3183.13
442.12	3176.11
442.31	3269.73
442.50	3290.79
442.68	3307.18
442.87	3342.28
443.05	3286.11
443.24	3290.79
443.43	3487.40
443.61	3452.29
443.80	3487.40
443.98	3379.73
444.17	3353.99
444.35	3478.04
444.54	3515.48
444.73	3365.69
444.91	3468.67
445.10	3431.23
445.28	3461.65
445.47	3431.23
445.65	3400.80
445.84	3529.53
446.02	3471.01
446.21	3421.86
446.39	3566.98
446.58	3541.23
446.77	3555.27
446.95	3433.57
447.14	3461.65
447.32	3571.66
447.51	3496.76
447.69	3482.72
447.88	3508.46
448.06	3630.17
448.25	3485.06
448.43	3562.30
448.62	3569.32
448.80	3574.00
448.99	3606.77
449.17	3651.24
449.36	3545.91
449.54	3541.23
449.73	3672.30
449.91	3700.39
450.10	3672.30
450.28	3740.18
450.46	3686.34
450.65	3782.31
450.83	3838.48
451.02	3742.52
451.20	3789.33
451.39	3822.09
451.57	3805.71
451.76	3754.22
451.94	3770.60
452.13	3838.48
452.31	3796.35
452.49	3868.91
452.68	3735.50
452.86	3988.27
453.05	3892.31
453.23	3948.48
453.42	3911.04
453.60	3838.48
453.78	3847.84
453.97	4002.32
454.15	3882.95
454.34	3936.78
454.52	4128.70
454.70	3974.23
454.89	4021.04
455.07	4039.76
455.26	4156.79
455.44	4145.09
455.62	4084.23
455.81	4131.05
455.99	4187.22
456.17	4084.23
456.36	4124.02
456.54	4058.49
456.73	4278.50
456.91	4388.50
457.09	4210.62
457.28	4421.27
457.46	4360.42
457.64	4428.29
457.83	4409.57
458.01	4290.20
458.19	4418.93
458.38	4386.16
458.56	4404.89
458.74	4341.69
458.93	4400.21
459.11	4561.70
459.29	4552.34
459.48	4404.89
459.66	4470.42
459.84	4545.32
460.03	4669.37
460.21	4528.94
460.39	4566.39
460.57	4638.94
460.76	4461.06
460.94	4650.64
461.12	4657.67
461.31	4823.84
461.49	4732.56
461.67	4622.56
461.85	4758.31
462.04	4610.86
462.22	5128.11
462.40	4744.27
462.59	4667.03
462.77	4655.33
462.95	4765.33
463.13	4926.83
463.32	4903.42
463.50	4861.29
463.68	4959.60
463.86	4837.89
464.05	4758.31
464.23	4926.83
464.41	5039.17
464.59	4842.57
464.78	5036.83
464.96	4931.51
465.14	4793.42
465.32	4887.04
465.50	5104.71
465.69	4975.98
465.87	4943.21
466.05	5018.11
466.23	5027.47
466.41	4978.32
466.60	5181.95
466.78	5055.56
466.96	5057.90
467.14	5011.09
467.32	5221.74
467.51	5144.50
467.69	5078.96
467.87	5247.48
468.05	5179.61
468.23	5212.37
468.41	5156.20
468.60	5128.11
468.78	5226.42
468.96	5177.26
469.14	5181.95
469.32	5341.10
469.50	5245.14
469.69	5259.18
469.87	5509.62
470.05	5657.07
470.23	5476.85
470.41	5408.98
470.59	5643.03
470.77	5369.19
470.95	5568.13
471.14	5551.75
471.32	5518.98
471.50	5762.40
471.68	5507.28
471.86	5720.27
472.04	5558.77
472.22	5671.12
472.40	5757.72
472.58	5830.27
472.77	5858.36
472.95	5921.56
473.13	6073.69
473.31	5949.64
473.49	5963.68
473.67	5937.94
473.85	5912.19
474.03	6038.58
474.21	6066.67
474.39	6097.10
474.57	6263.27
474.75	6232.85
474.93	6265.61
475.12	5914.53
475.30	6370.94
475.48	6076.03
475.66	6216.46
475.84	6127.52
476.02	6389.66
476.20	6450.52
476.38	6469.24
476.56	6548.82
476.74	6612.01
476.92	6569.88
477.10	6597.97
477.28	6504.35
477.46	6658.82
477.64	6656.48
477.82	6668.19
478.00	6972.46
478.18	7005.22
478.36	7185.44
478.54	7096.50
478.72	7066.08
478.90	7187.79
479.08	7311.83
479.26	7400.77
479.44	7272.04
479.62	7391.41
479.80	7389.07
479.98	7573.97
480.16	7489.71
480.34	7665.25
480.52	7719.09
480.70	7751.85
480.88	7581.00
481.06	7716.75
481.24	7796.32
481.41	7861.86
481.59	8147.40
481.77	8124.00
481.95	8116.98
482.13	8133.36
482.31	8229.32
482.49	8198.90
482.67	8273.79
482.85	8425.93
483.03	8615.51
483.21	8344.01
483.39	8664.66
483.57	8674.03
483.74	8758.28
483.92	8952.55
484.10	8692.75
484.28	8938.51
484.46	9224.05
484.64	8985.32
484.82	9036.81
485.00	9085.96
485.18	9284.91
485.35	9710.88
485.53	9408.95
485.71	9586.83
485.89	9713.22
486.07	9668.75
486.25	9797.48
486.43	9839.61
486.61	9598.54
486.78	9820.89
486.96	9844.29
487.14	10019.83
487.32	9982.38
487.50	10200.05
487.68	10363.89
487.85	10443.47
488.03	10569.86
488.21	10513.69
488.39	10635.39
488.57	10640.08
488.75	10888.17
488.92	11084.78
489.10	11316.49
489.28	11136.27
489.46	11152.65
489.64	11194.78
489.81	11459.26
489.99	11438.20
490.17	11475.65
490.35	11573.95
490.53	11597.35
490.70	11808.00
490.88	11524.80
491.06	11606.72
491.24	11520.12
491.41	11880.56
491.59	11992.90
491.77	12112.27
491.95	12266.75
492.13	12320.58
492.30	12156.74
492.48	12135.68
492.66	12524.21
492.84	12390.80
493.01	12479.74
493.19	12561.66
493.37	12940.82
493.54	12901.03
493.72	13097.64
493.90	12919.76
494.08	13132.75
494.25	13069.55
494.43	13214.66
494.61	13638.30
494.79	13289.56
494.96	13242.75
495.14	13565.74
495.32	13689.79
495.49	13544.68
495.67	13355.10
495.85	13949.59
496.02	14054.92
496.20	13940.23
496.38	14040.87
496.55	14101.73
496.73	14406.00
496.91	14216.41
497.09	14469.19
497.26	14155.56
497.44	14600.26
497.62	14366.21
497.79	14508.98
497.97	14815.59
498.14	14789.85
498.32	14871.76
498.50	14815.59
498.67	15133.90
498.85	15056.67
499.03	15314.13
499.20	15166.67
499.38	15279.02
499.56	15332.85
499.73	15318.81
499.91	15274.34
500.08	15541.16
500.26	15400.72
500.44	15492.01
500.61	15716.70
500.79	15477.96
500.97	15704.99
501.14	15957.77
501.32	15807.98
501.49	15803.30
501.67	15892.24
501.84	15749.46
502.02	16255.02
502.20	16285.45
502.37	15943.73
502.55	16360.34
502.72	16673.98
502.90	16425.88
503.07	16266.72
503.25	16285.45
503.43	16255.02
503.60	16666.95
503.78	16608.44
503.95	16662.27
504.13	16936.12
504.30	16915.05
504.48	16699.72
504.65	16851.86
504.83	17022.72
505.01	17235.70
505.18	17153.79
505.36	17228.68
505.53	16772.28
505.71	16952.50
505.88	17238.05
506.06	17078.89
506.23	17434.65
506.41	17263.79
506.58	17631.26
506.76	17542.32
506.93	17790.41
507.11	17434.65
507.28	17678.07
507.46	17561.04
507.63	17844.24
507.81	18279.58
507.98	17975.31
508.16	17743.60
508.33	18136.81
508.50	18082.98
508.68	18167.24
508.85	18183.62
509.03	18387.25
509.20	18363.84
509.38	18679.82
509.55	18436.40
509.73	18300.65
509.90	18637.69
510.08	18356.82
510.25	18628.32
510.42	18487.89
510.60	18635.35
510.77	18995.79
510.95	18953.66
511.12	18651.73
511.30	18817.91
511.47	18909.19
511.64	19000.47
511.82	19197.07
511.99	19096.43
512.17	19311.76
512.34	18981.74
512.51	19255.59
512.69	19094.09
512.86	19309.42
513.04	19381.98
513.21	19569.22
513.38	19747.10
513.56	19592.62
513.73	19534.11
513.90	19501.34
514.08	19683.91
514.25	19632.41
514.43	19735.40
514.60	20023.28
514.77	20063.07
514.95	20098.18
515.12	19800.93
515.29	19859.45
515.47	19655.82
515.64	20233.93
515.81	20531.18
515.99	20442.24
516.16	20093.50
516.33	20414.15
516.51	20369.68
516.68	20514.80
516.85	20245.63
517.03	20418.83
517.20	20566.29
517.37	20748.85
517.54	20877.58
517.72	20748.85
517.89	20451.60
518.06	20732.47
518.24	20709.06
518.41	20882.26
518.58	20863.54
518.75	20819.07
518.93	20910.35
519.10	21006.31
519.27	21270.79
519.45	20987.58
519.62	20975.88
519.79	21158.44
519.96	21436.97
520.14	21544.63
520.31	21467.39
520.48	21720.17
520.65	21469.73
520.83	21448.67
521.00	21383.13
521.17	21350.37
521.34	21783.37
521.52	21818.47
521.69	21399.52
521.86	22029.12
522.03	22113.38
522.20	22122.74
522.38	21923.80
522.55	21968.27
522.72	21972.95
522.89	21884.01
523.07	22309.99
523.24	21940.18
523.41	22429.35
523.58	21949.54
523.75	22211.68
523.92	22293.60
524.10	22326.37
524.27	22080.61
524.44	22492.55
524.61	22888.10
524.78	22609.58
524.96	22855.33
525.13	22717.24
525.30	22537.02
525.47	22759.37
525.64	22546.38
525.81	23002.78
525.98	22927.89
526.16	23218.11
526.33	22937.25
526.50	22927.89
526.67	22768.73
526.84	23101.09
527.01	22885.76
527.18	22970.02
527.36	23185.35
527.53	23524.72
527.70	23775.16
527.87	23360.89
528.04	23330.46
528.21	23381.95
528.38	23534.09
528.55	23227.48
528.72	23576.22
528.89	23630.05
529.07	23683.88
529.24	23552.81
529.41	23608.98
529.58	23587.92
529.75	23564.51
529.92	23440.47
530.09	23515.36
530.26	24144.97
530.43	23690.90
530.60	23793.89
530.77	23850.06
530.94	24180.07
531.11	23627.71
531.28	23833.68
531.46	23573.88
531.63	23903.89
531.80	24205.82
531.97	24109.86
532.14	24149.65
532.31	24201.14
532.48	24243.27
532.65	24240.93
532.82	24247.95
532.99	24290.08
533.16	24547.54
533.33	24533.50
533.50	24851.81
533.67	24561.58
533.84	24240.93
534.01	24713.72
534.18	24355.61
534.35	24844.79
534.52	24755.85
534.69	25123.31
534.86	24755.85
535.03	24793.29
535.20	25078.84
535.37	24704.35
535.54	24599.03
535.71	25104.59
535.88	24898.62
536.05	24694.99
536.22	25146.72
536.38	25186.50
536.55	25092.88
536.72	25106.93
536.89	25216.93
537.06	25296.51
537.23	25001.60
537.40	25146.72
537.57	25460.35
537.74	25179.48
537.91	25521.20
538.08	25289.49
538.25	25584.40
538.42	25638.23
538.59	25551.63
538.75	25366.73
538.92	25333.96
539.09	25841.85
539.26	25486.09
539.43	25525.88
539.60	25415.88
539.77	25844.20
539.94	25944.84
540.11	25759.94
540.28	25694.40
540.44	26010.37
540.61	25713.13
540.78	25813.77
540.95	25624.18
541.12	25921.43
541.29	25933.14
541.46	26162.51
541.62	25603.12
541.79	26242.09
541.96	25656.95
542.13	26192.94
542.30	26089.95
542.47	26223.36
542.63	25984.63
542.80	26281.88
542.97	26272.51
543.14	26616.57
543.31	26281.88
543.48	26555.72
543.64	26717.22
543.81	26574.44
543.98	26675.09
544.15	26857.65
544.32	26703.17
544.48	26808.50
544.65	26508.91
544.82	26457.42
544.99	26441.03
545.16	26581.46
545.32	26576.78
545.49	27295.33
545.66	27061.27
545.83	27037.87
546.00	27016.80
546.16	27033.19
546.33	27058.93
546.50	26525.29
546.67	26639.98
546.83	26754.66
547.00	26850.63
547.17	27208.73
547.34	27051.91
547.50	27246.18
547.67	27562.15
547.84	27487.25
548.00	27227.45
548.17	27126.81
548.34	27489.59
548.51	27393.63
548.67	27630.02
548.84	27220.43
549.01	27690.88
549.18	27744.71
549.34	27433.42
549.51	27307.03
549.68	27494.27
549.84	27564.49
550.01	27875.78
550.18	27637.05
550.34	27585.55
550.51	27768.12
550.68	28060.68
550.84	27564.49
551.01	27847.69
551.18	27936.63
551.34	27922.59
551.51	27592.58
551.68	27611.30
551.84	28154.30
552.01	27901.53
552.18	28063.02
552.34	28030.26
552.51	28011.53
552.68	27868.76
552.84	28018.55
553.01	28030.26
553.18	27985.79
553.34	28198.77
553.51	28292.40
553.67	28311.12
553.84	28463.25
554.01	28119.20
554.17	28266.65
554.34	28390.70
554.51	28173.03
554.67	28065.36
554.84	28187.07
555.00	28613.05
555.17	28212.82
555.33	28187.07
555.50	28177.71
555.67	28222.18
555.83	28367.29
556.00	28266.65
556.16	29315.21
556.33	28339.21
556.50	28266.65
556.66	28690.29
556.83	28725.39
556.99	28601.35
557.16	28865.83
557.32	28437.51
557.49	28477.30
557.65	28559.22
557.82	28418.78
557.98	28449.21
558.15	28898.59
558.32	28709.01
558.48	28596.67
558.65	28753.48
558.81	29102.22
558.98	28575.60
559.14	28582.62
559.31	28823.70
559.47	28486.66
559.64	28797.95
559.80	28617.73
559.97	28758.16
560.13	28556.88
560.30	28966.47
560.46	28945.41
560.63	29111.58
560.79	29039.03
560.96	28905.62
561.12	28804.97
561.29	29064.77
561.45	28800.29
561.61	29139.67
561.78	29294.14
561.94	29200.52
562.11	29261.38
562.27	29305.85
562.44	29099.88
562.60	28914.98
562.77	29106.90
562.93	28933.70
563.10	29528.20
563.26	29144.35
563.42	29425.22
563.59	29542.24
563.75	29015.62
563.92	29022.64
564.08	29329.25
564.24	29596.07
564.41	29017.96
564.57	29123.29
564.74	29230.95
564.90	29364.36
565.07	29673.31
565.23	29317.55
565.39	29315.21
565.56	29261.38
565.72	29603.10
565.88	29127.97
566.05	29085.84
566.21	29273.08
566.38	29331.59
566.54	29151.37
566.70	29514.16
566.87	29827.79
567.03	29502.45
567.19	30045.46
567.36	29593.73
567.52	29511.81
567.68	29448.62
567.85	29647.57
568.01	29598.41
568.17	29610.12
568.34	29668.63
568.50	29926.09
568.66	29624.16
568.83	30045.46
568.99	29184.14
569.15	29542.24
569.32	29436.92
569.48	29495.43
569.64	29837.15
569.81	29455.64
569.97	29621.82
570.13	30033.75
570.30	29586.71
570.46	29750.55
570.62	29759.91
570.78	30134.40
570.95	29486.07
571.11	29736.51
571.27	29479.05
571.43	29315.21
571.60	30129.72
571.76	29462.66
571.92	30024.39
572.09	30139.08
572.25	29858.21
572.41	29713.10
572.57	29567.99
572.74	29949.50
572.90	29696.72
573.06	29802.04
573.22	29809.06
573.38	29862.90
573.55	29544.58
573.71	30237.38
573.87	30223.34
574.03	29933.11
574.20	29736.51
574.36	29518.84
574.52	29647.57
574.68	29469.69
574.84	29813.74
575.01	29951.84
575.17	29965.88
575.33	29420.53
575.49	29654.59
575.65	29551.60
575.82	30000.99
575.98	29916.73
576.14	29565.65
576.30	30073.54
576.46	29930.77
576.62	29450.96
576.79	29851.19
576.95	29736.51
577.11	30038.44
577.27	30115.67
577.43	30129.72
577.59	29846.51
577.75	30150.78
577.92	29675.65
578.08	30040.78
578.24	29799.70
578.40	29820.77
578.56	30096.95
578.72	30431.65
578.88	30345.05
579.04	30363.77
579.21	29764.59
579.37	30213.98
579.53	30132.06
579.69	29813.74
579.85	29954.18
580.01	30300.58
580.17	30082.91
580.33	29619.48
580.49	30316.96
580.65	30101.63
580.82	30127.38
580.98	29989.28
581.14	30059.50
581.30	30106.31
581.46	29907.37
581.62	29963.54
581.78	30167.16
581.94	29675.65
582.10	29991.62
582.26	30181.21
582.42	29993.97
582.58	30178.87
582.74	30075.88
582.90	30000.99
583.06	30206.95
583.22	29766.93
583.38	29919.07
583.54	30223.34
583.70	30071.20
583.86	30331.00
584.02	29776.30
584.18	30242.06
584.34	30302.92
584.50	29989.28
584.66	30260.79
584.82	29741.19
584.98	30408.24
585.14	30122.69
585.30	29907.37
585.46	30066.52
585.62	29832.47
585.78	30031.41
585.94	29713.10
586.10	30213.98
586.26	30499.52
586.42	30010.35
586.58	30045.46
586.74	30466.75
586.90	30005.67
587.06	29970.56
587.22	30176.53
587.38	30043.12
587.54	30422.28
587.70	30382.49
587.86	30174.19
588.02	30242.06
588.18	30471.43
588.34	30389.52
588.49	30080.56
588.65	30335.68
588.81	30281.85
588.97	30143.76
589.13	30326.32
589.29	30162.48
589.45	30265.47
589.61	30661.02
589.77	30703.15
589.93	30504.20
590.08	30745.28
590.24	30668.04
590.40	30466.75
590.56	30728.89
590.72	30277.17
590.88	30148.44
591.04	30359.09
591.20	30895.07
591.35	30490.16
591.51	30616.55
591.67	30637.61
591.83	30864.64
591.99	30558.03
592.15	30288.87
592.31	30452.71
592.46	30281.85
592.62	30054.82
592.78	30267.81
592.94	30391.86
593.10	30536.97
593.26	30443.35
593.41	30604.84
593.57	30532.29
593.73	30223.34
593.89	30756.98
594.05	30836.56
594.20	30384.83
594.36	30623.57
594.52	30700.81
594.68	30394.20
594.84	30464.41
594.99	30895.07
595.15	30611.87
595.31	30904.43
595.47	30822.51
595.62	30700.81
595.78	30298.23
595.94	30579.10
596.10	30686.76
596.25	30450.37
596.41	30466.75
596.57	30483.14
596.73	30808.47
596.88	30363.77
597.04	31115.08
597.20	30920.82
597.36	30742.94
597.51	31164.23
597.67	30845.92
597.83	30562.72
597.99	30712.51
598.14	30874.01
598.30	30682.08
598.46	30698.47
598.61	30389.52
598.77	30541.65
598.93	30787.41
599.09	30911.46
599.24	31119.76
599.40	30766.34
599.56	30969.97
599.71	30897.41
599.87	30881.03
600.03	30771.02
600.18	31070.61
600.34	30134.40
600.50	30466.75
600.65	30773.36
600.81	30955.93
600.97	30600.16
601.12	31281.26
601.28	30684.42
601.44	30771.02
601.59	30543.99
601.75	30572.08
601.91	31021.46
602.06	30609.53
602.22	30609.53
602.37	30675.06
602.53	30457.39
602.69	30981.67
602.84	30752.30
603.00	30824.86
603.16	30824.86
603.31	30911.46
603.47	30824.86
603.62	30644.63
603.78	30642.29
603.94	30654.00
604.09	30689.10
604.25	30749.96
604.40	30834.22
604.56	30558.03
604.71	30923.16
604.87	30841.24
605.03	30960.61
605.18	30808.47
605.34	30958.27
605.49	30375.47
605.65	30515.90
605.80	30415.26
605.96	30323.98
606.12	30572.08
606.27	30752.30
606.43	30878.69
606.58	30967.63
606.74	30595.48
606.89	30703.15
607.05	30974.65
607.20	30976.99
607.36	30513.56
607.51	30649.32
607.67	30368.45
607.82	30499.52
607.98	30506.54
608.13	30998.06
608.29	30359.09
608.44	30829.54
608.60	30710.17
608.75	30394.20
608.91	30686.76
609.06	30808.47
609.22	30368.45
609.37	30382.49
609.53	30628.25
609.68	30433.99
609.84	30183.55
609.99	30349.73
610.15	30422.28
610.30	30242.06
610.46	30359.09
610.61	30515.90
610.76	30588.46
610.92	30331.00
611.07	30249.08
611.23	30424.62
611.38	30574.42
611.54	30171.85
611.69	30347.39
611.84	30246.74
612.00	30171.85
612.15	30307.60
612.31	30913.80
612.46	30064.18
612.62	30635.27
612.77	30136.74
612.92	30682.08
613.08	30291.21
613.23	30080.56
613.39	30029.07
613.54	29984.60
613.69	30448.03
613.85	30103.97
614.00	30483.14
614.15	30246.74
614.31	30167.16
614.46	29951.84
614.62	30176.53
614.77	30235.04
614.92	30340.36
615.08	30115.67
615.23	30323.98
615.38	29979.92
615.54	29902.68
615.69	29909.71
615.84	29788.00
616.00	29986.94
616.15	29743.53
616.30	30398.88
616.46	30415.26
616.61	29933.11
616.76	30251.42
616.92	29720.12
617.07	29890.98
617.22	29666.29
617.37	29689.70
617.53	29975.24
617.68	29727.14
617.83	29734.17
617.99	29743.53
618.14	29972.90
618.29	29486.07
618.45	29888.64
618.60	29823.11
618.75	29734.17
618.90	29834.81
619.06	29530.54
619.21	29469.69
619.36	29867.58
619.51	29457.98
619.67	29406.49
619.82	29324.57
619.97	29198.18
620.12	29284.78
620.28	28896.25
620.43	29549.26
620.58	29659.27
620.73	29638.20
620.89	29427.56
621.04	29631.18
621.19	29785.66
621.34	29628.84
621.49	29193.50
621.65	29429.90
621.80	29443.94
621.95	29385.43
622.10	29465.00
622.25	29275.42
622.41	29273.08
622.56	29553.94
622.71	29392.45
622.86	29008.60
623.01	29507.13
623.16	29158.39
623.32	29003.92
623.47	29167.76
623.62	29193.50
623.77	29081.16
623.92	28957.11
624.07	29509.47
624.23	29078.82
624.38	29088.18
624.53	29244.99
624.68	29418.19
624.83	29144.35
624.98	29076.48
625.13	29099.88
625.29	29305.85
625.44	28919.66
625.59	28898.59
625.74	28643.48
625.89	28922.00
626.04	28666.88
626.19	29064.77
626.34	29102.22
626.49	28456.23
626.65	28673.90
626.80	29071.79
626.95	28835.40
627.10	28830.72
627.25	28900.94
627.40	28905.62
627.55	28496.02
627.70	28699.65
627.85	28418.78
628.00	28882.21
628.15	28404.74
628.30	28556.88
628.45	28524.11
628.60	28374.31
628.76	28851.78
628.91	28914.98
629.06	28692.63
629.21	28395.38
629.36	28620.07
629.51	28325.16
629.66	28184.73
629.81	28446.87
629.96	28477.30
630.11	27878.12
630.26	28423.47
630.41	27936.63
630.56	28091.11
630.71	28575.60
630.86	28126.22
631.01	28407.08
631.16	28320.48
631.31	28252.61
631.46	28128.56
631.61	28474.96
631.76	27910.89
631.91	28285.37
632.06	28280.69
632.21	28053.66
632.36	28257.29
632.51	28212.82
632.66	28037.28
632.81	27658.11
632.96	28360.27
633.10	28205.80
633.25	28364.95
633.40	27934.29
633.55	28290.06
633.70	28037.28
633.85	28198.77
634.00	27828.97
634.15	27988.13
634.30	28273.67
634.45	27711.94
634.60	28247.93
634.75	28102.81
634.90	27810.25
635.05	28063.02
635.19	27831.31
635.34	28276.01
635.49	27943.66
635.64	28233.88
635.79	27927.27
635.94	27894.50
636.09	27709.60
636.24	27711.94
636.39	27714.28
636.53	27772.80
636.68	27627.68
636.83	27686.20
636.98	27768.12
637.13	28046.64
637.28	27271.92
637.43	27676.83
637.57	27868.76
637.72	27571.51
637.87	27475.55
638.02	27768.12
638.17	27803.22
638.32	27520.02
638.46	27421.72
638.61	27475.55
638.76	27255.54
638.91	27281.28
639.06	27573.85
639.20	27690.88
639.35	27353.84
639.50	27854.72
639.65	27454.48
639.80	27473.21
639.94	27604.28
640.09	27335.12
640.24	27571.51
640.39	27548.11
640.54	27173.62
640.68	27161.92
640.83	27192.34
640.98	26813.18
641.13	26785.09
641.27	27292.99
641.42	27042.55
641.57	27171.28
641.72	27482.57
641.86	26843.60
642.01	27049.57
642.16	27178.30
642.31	26820.20
642.45	26906.80
642.60	26162.51
642.75	26663.38
642.90	26497.20
643.04	26511.25
643.19	26991.06
643.34	26974.67
643.48	26483.16
643.63	26967.65
643.78	26749.98
643.93	26480.82
644.07	27014.46
644.22	26899.78
644.37	26719.56
644.51	26864.67
644.66	26836.58
644.81	26604.87
644.95	26560.40
645.10	26628.27
645.25	26888.07
645.39	26513.59
645.54	26749.98
645.69	26878.71
645.83	26457.42
645.98	26792.11
646.13	26356.77
646.27	27002.76
646.42	26789.77
646.57	26546.36
646.71	26691.47
646.86	26759.34
647.00	26761.69
647.15	26714.87
647.30	26457.42
647.44	26277.19
647.59	26656.36
647.74	26195.28
647.88	26092.29
648.03	26682.11
648.17	26588.49
648.32	26286.56
648.47	26438.69
648.61	26492.52
648.76	26579.12
648.90	26391.88
649.05	26490.18
649.20	26506.57
649.34	26387.20
649.49	26305.28
649.63	25837.17
649.78	25926.11
649.92	25914.41
650.07	26272.51
650.21	25963.56
650.36	26108.68
650.51	26309.96
650.65	25893.35
650.80	26115.70
650.94	26394.22
651.09	26204.64
651.23	25820.79
651.38	26054.84
651.52	26295.92
651.67	25846.54
651.81	26111.02
651.96	26354.43
652.10	25825.47
652.25	25858.24
652.39	26394.22
652.54	25940.16
652.68	26157.83
652.83	25781.00
652.97	26153.15
653.12	26160.17
653.26	25977.61
653.41	25958.88
653.55	25535.24
653.70	25757.60
653.84	25839.51
653.99	25947.18
654.13	25745.89
654.27	25879.30
654.42	25539.93
654.56	25528.22
654.71	25582.06
654.85	25532.90
655.00	25797.38
655.14	25930.80
655.29	25490.77
655.43	25799.73
655.57	25371.41
655.72	25385.45
655.86	25504.82
656.01	25614.82
656.15	25317.57
656.30	25539.93
656.44	25448.64
656.58	25280.13
656.73	25228.63
656.87	25223.95
657.01	25631.21
657.16	25259.06
657.30	25422.90
657.45	25385.45
657.59	25439.28
657.73	25060.12
657.88	25380.77
658.02	25568.01
658.16	25151.40
658.31	24975.86
658.45	25151.40
658.60	25008.62
658.74	24917.34
658.88	24980.54
659.03	24966.49
659.17	24912.66
659.31	25127.99
659.46	25277.79
659.60	25221.61
659.74	25142.03
659.89	24985.22
660.03	24744.14
660.17	24793.29
660.32	24442.21
660.46	24669.25
660.60	24549.88
660.74	24407.11
660.89	24966.49
661.03	24765.21
661.17	24723.08
661.32	24627.12
661.46	24922.02
661.60	24339.23
661.74	24849.47
661.89	24765.21
662.03	24823.72
662.17	24559.24
662.31	24390.72
662.46	24482.00
662.60	24137.94
662.74	24037.30
662.88	24313.48
663.03	24283.06
663.17	23859.42
663.31	24217.52
663.45	23955.38
663.60	24013.90
663.74	23840.70
663.88	23892.19
664.02	24133.26
664.17	24409.45
664.31	23662.82
664.45	24194.12
664.59	24084.11
664.73	24056.03
664.88	23723.67
665.02	23718.99
665.16	23543.45
665.30	23730.69
665.44	23438.12
665.59	23311.74
665.73	23637.07
665.87	23585.58
666.01	23913.25
666.15	23747.08
666.29	23557.49
666.44	23733.03
666.58	23449.83
666.72	23040.23
666.86	23440.47
667.00	23498.98
667.14	23548.13
667.28	23096.41
667.43	23321.10
667.57	23337.48
667.71	22813.20
667.85	23285.99
667.99	22932.57
668.13	23136.20
668.27	23005.13
668.41	23030.87
668.56	22864.69
668.70	22930.23
668.84	23211.09
668.98	22927.89
669.12	22874.06
669.26	22977.04
669.40	23077.68
669.54	23089.38
669.68	22860.01
669.82	22712.56
669.96	22490.21
670.10	22441.06
670.25	22766.39
670.39	22253.81
670.53	22668.09
670.67	22235.09
670.81	22218.71
670.95	22424.67
671.09	22464.46
671.23	22368.50
671.37	22497.23
671.51	22581.49
671.65	22272.54
671.79	22237.43
671.93	22073.59
672.07	21858.26
672.21	21855.92
672.35	22136.79
672.49	22012.74
672.63	21825.50
672.77	21654.64
672.91	21909.75
673.05	21942.52
673.19	21912.10
673.33	21930.82
673.47	21926.14
673.61	21738.90
673.75	21359.73
673.89	21497.82
674.03	21671.02
674.17	21521.23
674.31	21542.29
674.45	21413.56
674.59	21429.94
674.73	21287.17
674.87	21413.56
675.01	21399.52
675.15	21462.71
675.29	21083.55
675.43	21170.15
675.56	21191.21
675.70	20751.19
675.84	20943.11
675.98	20641.18
676.12	21160.78
676.26	20985.24
676.40	21046.10
676.54	20390.75
676.68	21067.16
676.82	20453.94
676.96	20624.80
677.10	20563.95
677.23	20477.35
677.37	20503.09
677.51	20276.06
677.65	20144.99
677.79	20460.96
677.93	20201.16
678.07	20264.36
678.21	20123.93
678.34	20308.83
678.48	19814.98
678.62	19894.55
678.76	19662.84
678.90	19763.48
679.04	19477.94
679.18	19597.31
679.31	19274.31
679.45	19618.37
679.59	19398.36
679.73	19138.56
679.87	18977.06
680.00	19051.96
680.14	19068.34
680.28	19243.88
680.42	19199.41
680.56	19190.05
680.70	18998.13
680.83	18930.25
680.97	18822.59
681.11	19190.05
681.25	18689.18
681.39	18420.02
681.52	18778.12
681.66	18581.51
681.80	18750.03
681.94	18295.97
682.07	18476.19
682.21	18513.64
682.35	18291.29
682.49	18052.55
682.62	18253.84
682.76	18078.30
682.90	18237.45
683.04	18349.80
683.17	17858.29
683.31	18068.94
683.45	18464.49
683.59	18155.54
683.72	17905.10
683.86	17827.86
684.00	17673.39
684.13	17635.94
684.27	17710.83
684.41	17535.29
684.55	17444.01
684.68	17259.11
684.82	17364.43
684.96	17284.86
685.09	17376.14
685.23	17294.22
685.37	17106.98
685.50	17195.92
685.64	17284.86
685.78	17090.59
685.91	17125.70
686.05	17046.12
686.19	17043.78
686.32	17097.61
686.46	16762.92
686.60	16858.88
686.73	16730.15
686.87	16367.37
687.01	16470.35
687.14	16498.44
687.28	16395.45
687.42	16292.47
687.55	16271.40
687.69	16318.22
687.82	16102.89
687.96	16369.71
688.10	16252.68
688.23	16224.59
688.37	16098.20
688.50	15585.63
688.64	15894.58
688.78	15840.75
688.91	15810.32
689.05	16121.61
689.18	15658.18
689.32	15311.78
689.46	15243.91
689.59	15414.77
689.73	15447.54
689.86	15499.03
690.00	15428.81
690.13	15482.64
690.27	15321.15
690.41	15283.70
690.54	15208.80
690.68	15386.68
690.81	15112.84
690.95	15300.08
691.08	15372.64
691.22	14761.76
691.35	15040.28
691.49	14963.04
691.62	15145.61
691.76	14714.95
691.89	14647.07
692.03	14422.38
692.16	14431.74
692.30	14354.51
692.43	14211.73
692.57	14181.31
692.70	14572.18
692.84	14291.31
692.97	14239.82
693.11	13886.40
693.24	14090.02
693.38	14153.22
693.51	14267.91
693.65	14321.74
693.78	13823.20
693.92	13687.45
694.05	13827.88
694.19	13781.07
694.32	13612.56
694.45	13699.16
694.59	13530.64
694.72	13680.43
694.86	13551.70
694.99	13242.75
695.13	13350.42
695.26	13401.91
695.39	13231.05
695.53	13455.74
695.66	13249.77
695.80	13071.89
695.93	13444.04
696.07	13287.22
696.20	13158.49
696.33	13043.81
696.47	12769.96
696.60	12690.38
696.73	13025.08
696.87	12856.56
697.00	12664.64
697.14	12538.25
697.27	12542.93
697.40	12638.89
697.54	12353.35
697.67	12100.57
697.80	12189.51
697.94	12196.53
698.07	12224.62
698.21	12081.85
698.34	12248.02
698.47	12264.41
698.61	12212.92
698.74	12149.72
698.87	12044.40
699.01	11910.99
699.14	11889.92
699.27	11955.46
699.40	11957.80
699.54	11896.94
699.67	11800.98
699.80	11730.76
699.94	11513.10
700.07	11580.97
700.20	11463.94
700.34	11234.57
700.47	11276.70
700.60	11178.40
700.73	11325.85
700.87	11410.11
701.00	11353.94
701.13	11295.43
701.26	11108.18
701.40	11262.66
701.53	11150.31
701.66	11283.72
701.79	11014.56
701.93	11033.29
702.06	10876.47
702.19	10874.13
702.32	10714.97
702.46	10789.87
702.59	10523.05
702.72	10338.15
702.85	10256.23
702.99	10455.17
703.12	10520.71
703.25	10244.52
703.38	10485.60
703.51	10485.60
703.65	10560.50
703.78	10267.93
703.91	10317.08
704.04	10422.41
704.17	10228.14
704.31	10148.56
704.44	9851.31
704.57	9973.02
704.70	9858.34
704.83	9720.24
704.96	9724.93
705.10	9853.66
705.23	9755.35
>>>>>End Processed Spectral Data<<<<<
