SpectraSuite Data File
++++++++++++++++++++++++++++++++++++
Date: Fri Oct 18 13:57:53 GMT-05:00 2013
User: bianchi
Dark Spectrum Present: No
Reference Spectrum Present: No
Number of Sampled Component Spectra: 1
Spectrometers: USB2+H05261
Integration Time (usec): 50000 (USB2+H05261)
Spectra Averaged: 1 (USB2+H05261)
Boxcar Smoothing: 0 (USB2+H05261)
Correct for Electrical Dark: No (USB2+H05261)
Strobe/Lamp Enabled: No (USB2+H05261)
Correct for Detector Non-linearity: No (USB2+H05261)
Correct for Stray Light: No (USB2+H05261)
Number of Pixels in Processed Spectrum: 2048
>>>>>Begin Processed Spectral Data<<<<<
365.73	0.00
365.92	0.00
366.12	0.00
366.32	0.00
366.52	0.00
366.72	0.00
366.91	0.00
367.11	0.00
367.31	0.00
367.51	0.00
367.70	0.00
367.90	0.00
368.10	0.00
368.30	0.00
368.49	0.00
368.69	0.00
368.89	0.00
369.09	0.00
369.28	0.00
369.48	0.00
369.68	0.00
369.87	0.00
370.07	0.00
370.27	0.00
370.47	0.00
370.66	44.47
370.86	107.66
371.06	147.45
371.25	128.73
371.45	154.48
371.65	145.11
371.84	124.05
372.04	117.03
372.24	145.11
372.44	180.22
372.63	191.92
372.83	203.63
373.03	205.97
373.22	203.63
373.42	191.92
373.62	140.43
373.81	126.39
374.01	208.31
374.21	177.88
374.40	156.82
374.60	210.65
374.79	255.12
374.99	262.14
375.19	224.69
375.38	327.68
375.58	278.52
375.78	229.37
375.97	299.59
376.17	243.42
376.37	280.86
376.56	222.35
376.76	241.08
376.95	337.04
377.15	224.69
377.35	283.20
377.54	229.37
377.74	184.90
377.93	301.93
378.13	304.27
378.33	320.65
378.52	306.61
378.72	351.08
378.91	292.57
379.11	311.29
379.31	208.31
379.50	332.36
379.70	376.83
379.89	285.55
380.09	320.65
380.28	262.14
380.48	299.59
380.68	287.89
380.87	308.95
381.07	360.44
381.26	301.93
381.46	231.71
381.65	292.57
381.85	348.74
382.04	313.63
382.24	355.76
382.43	341.72
382.63	430.66
382.83	353.42
383.02	325.33
383.22	381.51
383.41	390.87
383.61	337.04
383.80	421.30
384.00	374.49
384.19	383.85
384.39	346.40
384.58	393.21
384.78	416.62
384.97	318.31
385.17	379.17
385.36	428.32
385.56	428.32
385.75	489.17
385.95	351.08
386.14	397.89
386.34	397.89
386.53	444.70
386.72	416.62
386.92	414.27
387.11	440.02
387.31	374.49
387.50	512.58
387.70	386.19
387.89	404.91
388.09	456.40
388.28	465.77
388.48	503.22
388.67	507.90
388.86	421.30
389.06	444.70
389.25	505.56
389.45	437.68
389.64	444.70
389.84	496.19
390.03	479.81
390.22	566.41
390.42	517.26
390.61	449.38
390.81	517.26
391.00	489.17
391.19	538.32
391.39	550.03
391.58	580.45
391.78	505.56
391.97	547.69
392.16	594.50
392.36	517.26
392.55	482.15
392.75	500.87
392.94	615.56
393.13	545.34
393.33	519.60
393.52	599.18
393.71	615.56
393.91	566.41
394.10	620.24
394.29	540.66
394.49	517.26
394.68	636.63
394.88	617.90
395.07	620.24
395.26	650.67
395.46	629.60
395.65	617.90
395.84	638.97
396.04	566.41
396.23	636.63
396.42	599.18
396.62	662.37
396.81	667.05
397.00	578.11
397.19	645.99
397.39	669.39
397.58	648.33
397.77	535.98
397.97	706.84
398.16	695.14
398.35	669.39
398.55	653.01
398.74	688.12
398.93	748.97
399.12	835.57
399.32	706.84
399.51	774.72
399.70	741.95
399.90	660.03
400.09	718.54
400.28	767.70
400.47	795.78
400.67	777.06
400.86	758.33
401.05	755.99
401.24	858.98
401.44	889.40
401.63	809.83
401.82	828.55
402.01	837.91
402.21	877.70
402.40	877.70
402.59	814.51
402.78	851.96
402.97	786.42
403.17	840.25
403.36	809.83
403.55	929.19
403.74	891.74
403.93	947.92
404.13	924.51
404.32	851.96
404.51	887.06
404.70	987.71
404.89	844.93
405.09	903.45
405.28	936.21
405.47	901.11
405.66	875.36
405.85	1004.09
406.05	856.64
406.24	1078.99
406.43	1020.47
406.62	997.07
406.81	1032.18
407.00	1067.28
407.20	983.02
407.39	1004.09
407.58	1053.24
407.77	990.05
407.96	1128.14
408.15	1008.77
408.34	1015.79
408.54	1048.56
408.73	1144.52
408.92	1177.29
409.11	1193.67
409.30	1221.76
409.49	1198.35
409.68	1104.73
409.87	1114.10
410.07	1139.84
410.26	1226.44
410.45	1156.22
410.64	1167.93
410.83	1121.12
411.02	1287.29
411.21	1249.85
411.40	1191.33
411.59	1289.64
411.78	1343.47
411.98	1308.36
412.17	1369.21
412.36	1308.36
412.55	1294.32
412.74	1432.41
412.93	1364.53
413.12	1313.04
413.31	1350.49
413.50	1394.96
413.69	1469.86
413.88	1359.85
414.07	1416.02
414.26	1514.33
414.45	1474.54
414.64	1474.54
414.83	1598.59
415.02	1474.54
415.22	1526.03
415.41	1549.43
415.60	1568.16
415.79	1577.52
415.98	1577.52
416.17	1519.01
416.36	1629.01
416.55	1589.22
416.74	1685.19
416.93	1643.06
417.12	1696.89
417.31	1631.35
417.50	1654.76
417.69	1706.25
417.88	1701.57
418.07	1753.06
418.26	1701.57
418.45	1703.91
418.64	1923.92
418.83	1858.39
419.02	1764.76
419.21	1846.68
419.39	1902.86
419.58	1774.13
419.77	1734.34
419.96	1846.68
420.15	1844.34
420.34	1909.88
420.53	1921.58
420.72	1956.69
420.91	1907.54
421.10	1998.82
421.29	2017.54
421.48	1935.62
421.67	2022.22
421.86	1891.15
422.05	1952.01
422.24	1830.30
422.43	1980.09
422.61	1982.43
422.80	2092.44
422.99	1973.07
423.18	2022.22
423.37	2106.48
423.56	1966.05
423.75	2076.06
423.94	1975.41
424.13	1919.24
424.32	1849.02
424.50	2104.14
424.69	2080.74
424.88	2169.68
425.07	2019.88
425.26	2097.12
425.45	1982.43
425.64	1970.73
425.83	1996.48
426.01	2097.12
426.20	2115.84
426.39	2106.48
426.58	1970.73
426.77	2033.93
426.96	2101.80
427.15	2132.23
427.33	2026.90
427.52	2179.04
427.71	2162.66
427.90	2218.83
428.09	2064.35
428.28	2197.76
428.46	2186.06
428.65	2129.89
428.84	2307.77
429.03	2289.04
429.22	2073.71
429.40	2312.45
429.59	2377.98
429.78	2263.30
429.97	2127.55
430.16	2282.02
430.34	2160.31
430.53	2289.04
430.72	2415.43
430.91	2305.43
431.10	2242.23
431.28	2298.41
431.47	2413.09
431.66	2387.35
431.85	2333.51
432.03	2471.61
432.22	2490.33
432.41	2480.97
432.60	2312.45
432.79	2340.54
432.97	2375.64
433.16	2417.77
433.35	2406.07
433.54	2518.42
433.72	2476.29
433.91	2523.10
434.10	2424.80
434.28	2544.16
434.47	2609.70
434.66	2586.29
434.85	2628.42
435.03	2569.91
435.22	2572.25
435.41	2637.78
435.59	2637.78
435.78	2619.06
435.97	2766.51
436.16	2686.94
436.34	2616.72
436.53	2677.57
436.72	2818.00
436.90	2576.93
437.09	2747.79
437.28	2708.00
437.46	2729.06
437.65	2958.44
437.84	2864.82
438.02	2787.58
438.21	2906.95
438.40	2843.75
438.58	2815.66
438.77	2986.52
438.96	2841.41
439.14	2836.73
439.33	3000.57
439.52	2918.65
439.70	2977.16
439.89	3117.59
440.08	2867.16
440.26	3084.83
440.45	2972.48
440.63	2993.55
440.82	3131.64
441.01	3084.83
441.19	3293.13
441.38	3220.58
441.57	3171.43
441.75	3316.54
441.94	3344.63
442.12	3328.24
442.31	3297.81
442.50	3351.65
442.68	3358.67
442.87	3290.79
443.05	3286.11
443.24	3311.86
443.43	3478.04
443.61	3454.63
443.80	3384.41
443.98	3459.31
444.17	3253.34
444.35	3435.91
444.54	3463.99
444.73	3459.31
444.91	3349.31
445.10	3456.97
445.28	3407.82
445.47	3428.88
445.65	3311.86
445.84	3562.30
446.02	3503.78
446.21	3468.67
446.39	3557.61
446.58	3541.23
446.77	3459.31
446.95	3461.65
447.14	3501.44
447.32	3499.10
447.51	3428.88
447.69	3435.91
447.88	3611.45
448.06	3494.42
448.25	3503.78
448.43	3627.83
448.62	3438.25
448.80	3485.06
448.99	3691.02
449.17	3693.37
449.36	3503.78
449.54	3581.02
449.73	3634.85
449.91	3744.86
450.10	3712.09
450.28	3728.47
450.46	3630.17
450.65	3803.37
450.83	3772.94
451.02	3782.31
451.20	3803.37
451.39	3691.02
451.57	3758.90
451.76	3798.69
451.94	3831.46
452.13	3859.54
452.31	3864.22
452.49	3894.65
452.68	3901.67
452.86	3826.78
453.05	3875.93
453.23	3988.27
453.42	3873.59
453.60	3866.56
453.78	3878.27
453.97	3911.04
454.15	3988.27
454.34	3981.25
454.52	4014.02
454.70	4011.68
454.89	4086.58
455.07	4098.28
455.26	4098.28
455.44	4219.99
455.62	4161.47
455.81	4086.58
455.99	4056.15
456.17	4121.68
456.36	4273.82
456.54	4332.33
456.73	4447.02
456.91	4388.50
457.09	4353.40
457.28	4353.40
457.46	4358.08
457.64	4346.37
457.83	4196.58
458.01	4287.86
458.19	4252.75
458.38	4367.44
458.56	4507.87
458.74	4432.97
458.93	4397.87
459.11	4435.32
459.29	4369.78
459.48	4498.51
459.66	4561.70
459.84	4512.55
460.03	4524.26
460.21	4489.15
460.39	4582.77
460.57	4465.74
460.76	4500.85
460.94	4587.45
461.12	4503.19
461.31	4629.58
461.49	4547.66
461.67	4510.21
461.85	4716.18
462.04	4697.46
462.22	4821.50
462.40	4858.95
462.59	4699.80
462.77	4692.77
462.95	4840.23
463.13	4746.61
463.32	4758.31
463.50	4868.31
463.68	4905.76
463.86	4758.31
464.05	4917.47
464.23	4737.24
464.41	5025.13
464.59	4865.97
464.78	4952.57
464.96	5018.11
465.14	4938.53
465.32	4896.40
465.50	4980.66
465.69	4959.60
465.87	4894.06
466.05	4968.96
466.23	4992.36
466.41	5219.39
466.60	5263.86
466.78	5076.62
466.96	5022.79
467.14	4961.94
467.32	5172.58
467.51	5184.29
467.69	5139.82
467.87	5298.97
468.05	5188.97
468.23	5195.99
468.41	5247.48
468.60	5125.77
468.78	5200.67
468.96	5256.84
469.14	5273.23
469.32	5364.51
469.50	5128.11
469.69	5291.95
469.87	5383.23
470.05	5483.88
470.23	5556.43
470.41	5406.64
470.59	5589.20
470.77	5416.00
470.95	5558.77
471.14	5577.50
471.32	5465.15
471.50	5591.54
471.68	5521.32
471.86	5474.51
472.04	5530.69
472.22	5837.30
472.40	5771.76
472.58	5692.18
472.77	5675.80
472.95	5706.23
473.13	6047.94
473.31	5834.96
473.49	5701.54
473.67	5834.96
473.85	5921.56
474.03	5907.51
474.21	5919.21
474.39	5991.77
474.57	6186.04
474.75	6115.82
474.93	6190.72
475.12	6029.22
475.30	6132.20
475.48	6190.72
475.66	6328.81
475.84	6363.92
476.02	6436.47
476.20	6506.69
476.38	6272.64
476.56	6682.23
476.74	6679.89
476.92	6502.01
477.10	6656.48
477.28	6878.83
477.46	6532.44
477.64	6780.53
477.82	6808.62
478.00	6956.07
478.18	6895.22
478.36	7052.03
478.54	6874.15
478.72	7129.27
478.90	7213.53
479.08	7005.22
479.26	7250.98
479.44	7171.40
479.62	7494.40
479.80	7531.84
479.98	7452.27
480.16	7517.80
480.34	7583.34
480.52	7669.94
480.70	7595.04
480.88	7606.74
481.06	7918.03
481.24	7850.16
481.41	7810.37
481.59	7974.21
481.77	7964.84
481.95	8070.17
482.13	8116.98
482.31	8028.04
482.49	8313.58
482.67	8308.90
482.85	8463.38
483.03	8454.02
483.21	8557.00
483.39	8615.51
483.57	8681.05
483.74	8788.71
483.92	8671.68
484.10	8751.26
484.28	8915.10
484.46	8982.98
484.64	9275.54
484.82	9320.01
485.00	9224.05
485.18	9392.57
485.35	9493.21
485.53	9476.83
485.71	9462.79
485.89	9788.12
486.07	9701.52
486.25	9612.58
486.43	9657.05
486.61	9767.06
486.78	10111.11
486.96	10094.73
487.14	10279.63
487.32	10129.84
487.50	10494.96
487.68	10099.41
487.85	10218.78
488.03	10672.84
488.21	10602.63
488.39	10717.31
488.57	10637.73
488.75	10911.58
488.92	10892.85
489.10	10846.04
489.28	11272.02
489.46	11248.61
489.64	11037.97
489.81	11524.80
489.99	11375.00
490.17	11433.52
490.35	11779.92
490.53	11562.25
490.70	11660.55
490.88	11784.60
491.06	11833.75
491.24	11847.79
491.41	11756.51
491.59	11955.46
491.77	11831.41
491.95	12222.28
492.13	12301.86
492.30	12351.01
492.48	12472.71
492.66	12194.19
492.84	12451.65
493.01	12713.79
493.19	12688.04
493.37	12858.90
493.54	12814.43
493.72	13167.85
493.90	12903.37
494.08	12835.50
494.25	13219.35
494.43	13411.27
494.61	13425.31
494.79	13460.42
494.96	13650.00
495.14	13596.17
495.32	13535.32
495.49	13661.71
495.67	13399.57
495.85	13851.29
496.02	13902.78
496.20	13968.32
496.38	14134.50
496.55	13909.80
496.73	14626.01
496.91	14333.44
497.09	14342.80
497.26	14621.33
497.44	14303.01
497.62	14193.01
497.79	14841.34
497.97	14616.65
498.14	14925.60
498.32	14820.27
498.50	15033.26
498.67	15222.84
498.85	15012.20
499.03	15250.93
499.20	14902.19
499.38	15325.83
499.56	15283.70
499.73	15527.11
499.91	15520.09
500.08	15414.77
500.26	15192.42
500.44	15435.83
500.61	15536.48
500.79	15630.10
500.97	15681.59
501.14	16067.78
501.32	15988.20
501.49	15854.79
501.67	15960.11
501.84	15782.23
502.02	16037.35
502.20	16318.22
502.37	16306.51
502.55	16049.05
502.72	16278.43
502.90	16173.10
503.07	16079.48
503.25	16362.69
503.43	16622.48
503.60	16617.80
503.78	16762.92
503.95	16734.83
504.13	16676.32
504.30	16755.90
504.48	16828.45
504.65	16893.99
504.83	17078.89
505.01	17104.64
505.18	17385.50
505.36	17387.84
505.53	17118.68
505.71	17149.11
505.88	16945.48
506.06	17282.52
506.23	17500.19
506.41	17259.11
506.58	17556.36
506.76	17408.90
506.93	17783.39
507.11	17289.54
507.28	17785.73
507.46	17778.71
507.63	18068.94
507.81	18038.51
507.98	17687.43
508.16	17792.75
508.33	17867.65
508.50	18111.07
508.68	18087.66
508.85	18097.02
509.03	18141.49
509.20	18429.38
509.38	18436.40
509.55	18310.01
509.73	18361.50
509.90	18478.53
510.08	18616.62
510.25	18494.91
510.42	18803.86
510.60	18925.57
510.77	18899.83
510.95	18881.10
511.12	18937.27
511.30	18909.19
511.47	18843.65
511.64	19026.21
511.82	19152.60
511.99	19241.54
512.17	19318.78
512.34	19030.90
512.51	19035.58
512.69	19208.78
512.86	19426.45
513.04	19459.21
513.21	19386.66
513.38	19707.31
513.56	19962.43
513.73	19573.90
513.90	19587.94
514.08	19775.19
514.25	19690.93
514.43	19981.15
514.60	19922.64
514.77	19573.90
514.95	20191.80
515.12	19978.81
515.29	19803.27
515.47	20236.27
515.64	20128.61
515.81	19894.55
515.99	20467.98
516.16	20666.93
516.33	20510.11
516.51	20369.68
516.68	20648.21
516.85	20528.84
517.03	20662.25
517.20	20666.93
517.37	20629.48
517.54	20636.50
517.72	20348.62
517.89	20821.41
518.06	20657.57
518.24	20788.64
518.41	20730.12
518.58	20865.88
518.75	21088.23
518.93	21142.06
519.10	20835.45
519.27	21216.96
519.45	21399.52
519.62	21036.74
519.79	21404.20
519.96	21270.79
520.14	21481.44
520.31	21511.86
520.48	21202.91
520.65	21523.57
520.83	21804.43
521.00	21706.13
521.17	21448.67
521.34	21748.26
521.52	21820.81
521.69	21884.01
521.86	21638.25
522.03	21827.84
522.20	21893.37
522.38	21972.95
522.55	22141.47
522.72	21881.67
522.89	22078.27
523.07	22192.96
523.24	22307.65
523.41	22424.67
523.58	22427.01
523.75	22178.92
523.92	22265.52
524.10	22080.61
524.27	22441.06
524.44	22396.59
524.61	22705.54
524.78	22356.80
524.96	22546.38
525.13	22588.51
525.30	22852.99
525.47	22867.03
525.64	22689.15
525.81	22672.77
525.98	23087.04
526.16	23082.36
526.33	22761.71
526.50	23168.96
526.67	22513.61
526.84	22759.37
527.01	22623.62
527.18	22939.59
527.36	23248.54
527.53	23293.01
527.70	23321.10
527.87	23381.95
528.04	23187.69
528.21	23309.40
528.38	23693.24
528.55	23569.19
528.72	23215.77
528.89	23826.65
529.07	23428.76
529.24	23590.26
529.41	23718.99
529.58	23709.63
529.75	23648.77
529.92	23723.67
530.09	23580.90
530.26	23564.51
530.43	23864.10
530.60	23768.14
530.77	23440.47
530.94	23847.72
531.11	24060.71
531.28	23587.92
531.46	24098.16
531.63	24458.60
531.80	24233.91
531.97	24229.23
532.14	24257.31
532.31	24332.21
532.48	24306.46
532.65	24318.17
532.82	24266.67
532.99	24133.26
533.16	24133.26
533.33	24549.88
533.50	24797.98
533.67	24851.81
533.84	24332.21
534.01	24432.85
534.18	24482.00
534.35	24891.60
534.52	24528.81
534.69	24973.52
534.86	24797.98
535.03	24599.03
535.20	24837.76
535.37	25109.27
535.54	24879.89
535.71	24737.12
535.88	24666.91
536.05	25034.37
536.22	24819.04
536.38	25146.72
536.55	25303.53
536.72	24945.43
536.89	24947.77
537.06	25158.42
537.23	25111.61
537.40	25165.44
537.57	25420.56
537.74	25493.12
537.91	25546.95
538.08	25369.07
538.25	25507.16
538.42	25345.66
538.59	25305.87
538.75	25553.97
538.92	25755.26
539.09	25619.50
539.26	25502.48
539.43	25659.29
539.60	25783.34
539.77	25369.07
539.94	25727.17
540.11	25516.52
540.28	25926.11
540.44	25898.03
540.61	25720.15
540.78	25516.52
540.95	26008.03
541.12	25834.83
541.29	25802.07
541.46	26043.14
541.62	26202.30
541.79	26031.44
541.96	25991.65
542.13	25834.83
542.30	26125.06
542.47	26096.97
542.63	26576.78
542.80	26347.41
542.97	26214.00
543.14	26555.72
543.31	26150.81
543.48	26340.39
543.64	26366.13
543.81	26632.96
543.98	27016.80
544.15	26492.52
544.32	26764.03
544.48	26745.30
544.65	26675.09
544.82	26714.87
544.99	26820.20
545.16	26855.31
545.32	26710.19
545.49	26703.17
545.66	27307.03
545.83	27075.32
546.00	26969.99
546.16	27182.98
546.33	26780.41
546.50	26560.40
546.67	26885.73
546.83	26728.92
547.00	27234.47
547.17	27253.20
547.34	27105.74
547.50	27117.45
547.67	27412.35
547.84	27033.19
548.00	27718.96
548.17	27166.60
548.34	27309.37
548.51	27480.23
548.67	27978.76
548.84	27587.89
549.01	27367.88
549.18	27147.87
549.34	27159.58
549.51	27611.30
549.68	27402.99
549.84	27728.33
550.01	27417.04
550.18	27424.06
550.34	27861.74
550.51	27644.07
550.68	27838.33
550.84	27515.34
551.01	27681.52
551.18	27658.11
551.34	27360.86
551.51	27548.11
551.68	27843.01
551.84	27943.66
552.01	27854.72
552.18	28093.45
552.34	28400.06
552.51	28163.67
552.68	28016.21
552.84	27854.72
553.01	28114.52
553.18	27894.50
553.34	27850.03
553.51	27730.67
553.67	28259.63
553.84	28233.88
554.01	28276.01
554.17	28259.63
554.34	28601.35
554.51	28514.75
554.67	28259.63
554.84	28041.96
555.00	28442.19
555.17	28503.04
555.33	28524.11
555.50	28360.27
555.67	28360.27
555.83	28716.03
556.00	28056.00
556.16	28507.72
556.33	28463.25
556.50	28645.82
556.66	28521.77
556.83	28540.49
556.99	28821.36
557.16	29006.26
557.32	28907.96
557.49	29003.92
557.65	28718.37
557.82	28980.51
557.98	28882.21
558.15	28477.30
558.32	28470.28
558.48	28823.70
558.65	29104.56
558.81	28833.06
558.98	29048.39
559.14	29216.91
559.31	28774.55
559.47	29036.69
559.64	29226.27
559.80	29181.80
559.97	29235.63
560.13	28940.72
560.30	28971.15
560.46	28830.72
560.63	29120.95
560.79	29200.52
560.96	29193.50
561.12	28734.76
561.29	29186.48
561.45	29003.92
561.61	29053.07
561.78	29273.08
561.94	28786.25
562.11	29055.41
562.27	29319.89
562.44	29102.22
562.60	29144.35
562.77	29266.06
562.93	28835.40
563.10	29305.85
563.26	29165.42
563.42	29687.36
563.59	29273.08
563.75	28957.11
563.92	29399.47
564.08	29127.97
564.24	29486.07
564.41	29057.75
564.57	29092.86
564.74	29553.94
564.90	29490.75
565.07	29139.67
565.23	29502.45
565.39	29654.59
565.56	29614.80
565.72	29181.80
565.88	29418.19
566.05	29202.86
566.21	29322.23
566.38	29266.06
566.54	29233.29
566.70	29493.09
566.87	29750.55
567.03	29762.25
567.19	29825.45
567.36	29647.57
567.52	29621.82
567.68	29404.15
567.85	29095.20
568.01	29598.41
568.17	29567.99
568.34	29638.20
568.50	29998.65
568.66	29607.78
568.83	29773.95
568.99	29640.54
569.15	29551.60
569.32	29589.05
569.48	29104.56
569.64	29888.64
569.81	30164.82
569.97	29532.88
570.13	30078.22
570.30	29336.27
570.46	29434.58
570.62	29687.36
570.78	29876.94
570.95	29626.50
571.11	29883.96
571.27	29137.33
571.43	29326.91
571.60	29790.34
571.76	29261.38
571.92	29858.21
572.09	29869.92
572.25	29652.25
572.41	29713.10
572.57	29935.45
572.74	30118.01
572.90	29483.73
573.06	29687.36
573.22	30066.52
573.38	30309.94
573.55	29968.22
573.71	30068.86
573.87	30174.19
574.03	29890.98
574.20	30309.94
574.36	29886.30
574.52	29921.41
574.68	30164.82
574.84	29926.09
575.01	29853.53
575.17	29979.92
575.33	30118.01
575.49	30155.46
575.65	30387.18
575.82	30387.18
575.98	29926.09
576.14	29902.68
576.30	30293.55
576.46	30286.53
576.62	30082.91
576.79	29750.55
576.95	29727.14
577.11	29914.39
577.27	29947.15
577.43	30307.60
577.59	30040.78
577.75	29998.65
577.92	29858.21
578.08	29668.63
578.24	29881.62
578.40	29921.41
578.56	30302.92
578.72	30143.76
578.88	30450.37
579.04	30211.64
579.21	29972.90
579.37	29617.14
579.53	30480.80
579.69	30092.27
579.85	29799.70
580.01	29872.26
580.17	30059.50
580.33	29862.90
580.49	30244.40
580.65	30096.95
580.82	30012.69
580.98	30213.98
581.14	30319.30
581.30	30258.45
581.46	30080.56
581.62	30244.40
581.78	30122.69
581.94	29954.18
582.10	29853.53
582.26	29977.58
582.42	30171.85
582.58	30366.11
582.74	30246.74
582.90	30576.76
583.06	30073.54
583.22	30108.65
583.38	30223.34
583.54	30057.16
583.70	30286.53
583.86	30089.93
584.02	30192.91
584.18	30340.36
584.34	29991.62
584.50	30288.87
584.66	29759.91
584.82	30209.29
584.98	29848.85
585.14	30036.09
585.30	30012.69
585.46	30113.33
585.62	30221.00
585.78	30368.45
585.94	30251.42
586.10	30295.89
586.26	30684.42
586.42	30267.81
586.58	30368.45
586.74	30258.45
586.90	29949.50
587.06	30132.06
587.22	30185.89
587.38	30153.12
587.54	30473.78
587.70	30426.96
587.86	30342.70
588.02	30441.01
588.18	30558.03
588.34	30356.75
588.49	30284.19
588.65	30562.72
588.81	29949.50
588.97	30672.72
589.13	30237.38
589.29	30700.81
589.45	30094.61
589.61	30366.11
589.77	30607.19
589.93	30405.90
590.08	30441.01
590.24	30539.31
590.40	30909.11
590.56	30775.70
590.72	30738.26
590.88	30815.49
591.04	30632.93
591.20	30235.04
591.35	30518.25
591.51	31096.36
591.67	30874.01
591.83	30700.81
591.99	30567.40
592.15	30775.70
592.31	30829.54
592.46	30401.22
592.62	30728.89
592.78	30838.90
592.94	30401.22
593.10	30338.02
593.26	30691.44
593.41	30810.81
593.57	30663.36
593.73	30700.81
593.89	30836.56
594.05	30705.49
594.20	30693.79
594.36	30787.41
594.52	30909.11
594.68	30581.44
594.84	30923.16
594.99	30937.20
595.15	30962.95
595.31	31005.08
595.47	30773.36
595.62	31143.17
595.78	30717.19
595.94	30965.29
596.10	30487.82
596.25	31021.46
596.41	30370.79
596.57	30380.15
596.73	30710.17
596.88	30672.72
597.04	30649.32
597.20	30782.73
597.36	30864.64
597.51	31175.94
597.67	30897.41
597.83	30663.36
597.99	30895.07
598.14	30855.28
598.30	30480.80
598.46	30682.08
598.61	30831.88
598.77	30841.24
598.93	31346.79
599.09	30852.94
599.24	31255.51
599.40	30775.70
599.56	30948.90
599.71	31442.76
599.87	30785.07
600.03	30703.15
600.18	31033.16
600.34	30654.00
600.50	30808.47
600.65	30513.56
600.81	30890.39
600.97	31227.43
601.12	31168.91
601.28	30986.35
601.44	30918.48
601.59	31234.45
601.75	30899.75
601.91	31082.31
602.06	30756.98
602.22	30756.98
602.37	30899.75
602.53	31028.48
602.69	30937.20
602.84	30794.43
603.00	30888.05
603.16	31262.54
603.31	30780.39
603.47	31047.21
603.62	31166.57
603.78	30543.99
603.94	30897.41
604.09	31201.68
604.25	30719.53
604.40	31098.70
604.56	30558.03
604.71	31213.38
604.87	30974.65
605.03	30487.82
605.18	31084.65
605.34	30972.31
605.49	30693.79
605.65	30895.07
605.80	30829.54
605.96	30892.73
606.12	30752.30
606.27	31152.53
606.43	30705.49
606.58	30941.88
606.74	30920.82
606.89	31042.53
607.05	30897.41
607.20	31119.76
607.36	31122.10
607.51	30824.86
607.67	30555.69
607.82	30658.68
607.98	30560.37
608.13	30553.35
608.29	30487.82
608.44	30874.01
608.60	30391.86
608.75	30878.69
608.91	31019.12
609.06	30672.72
609.22	30862.30
609.37	30211.64
609.53	30668.04
609.68	30452.71
609.84	30345.05
609.99	30574.42
610.15	30630.59
610.30	30768.68
610.46	30726.55
610.61	30752.30
610.76	30370.79
610.92	30401.22
611.07	30742.94
611.23	30895.07
611.38	30441.01
611.54	30466.75
611.69	30340.36
611.84	30536.97
612.00	30485.48
612.15	30146.10
612.31	30520.59
612.46	30314.62
612.62	30398.88
612.77	30471.43
612.92	30927.84
613.08	30377.81
613.23	30452.71
613.39	30176.53
613.54	30338.02
613.69	30132.06
613.85	30462.07
614.00	30314.62
614.15	30080.56
614.31	29956.52
614.46	30522.93
614.62	30511.22
614.77	30197.59
614.92	30246.74
615.08	30265.47
615.23	30232.70
615.38	30328.66
615.54	29839.49
615.69	30235.04
615.84	29834.81
616.00	30260.79
616.15	30157.80
616.30	29991.62
616.46	30293.55
616.61	30015.03
616.76	30635.27
616.92	30073.54
617.07	30188.23
617.22	30015.03
617.37	30017.37
617.53	29799.70
617.68	29511.81
617.83	29958.86
617.99	30047.80
618.14	29890.98
618.29	30174.19
618.45	30026.73
618.60	29888.64
618.75	29790.34
618.90	30059.50
619.06	29853.53
619.21	29827.79
619.36	30260.79
619.51	29399.47
619.67	29710.76
619.82	29591.39
619.97	29851.19
620.12	29434.58
620.28	29783.32
620.43	29661.61
620.58	29766.93
620.73	29921.41
620.89	29860.55
621.04	29818.42
621.19	30082.91
621.34	29614.80
621.49	29350.32
621.65	29689.70
621.80	29544.58
621.95	29443.94
622.10	29666.29
622.25	29198.18
622.41	29785.66
622.56	29263.72
622.71	29504.79
622.86	29460.32
623.01	29493.09
623.16	29661.61
623.32	29212.23
623.47	29376.06
623.62	29497.77
623.77	29090.52
623.92	29589.05
624.07	29266.06
624.23	29069.45
624.38	29514.16
624.53	29282.44
624.68	29507.13
624.83	28875.19
624.98	29167.76
625.13	29083.50
625.29	29034.35
625.44	28912.64
625.59	28947.75
625.74	28919.66
625.89	28952.43
626.04	28842.42
626.19	28786.25
626.34	29015.62
626.49	28914.98
626.65	28678.58
626.80	29275.42
626.95	28943.06
627.10	28673.90
627.25	28868.17
627.40	29095.20
627.55	29024.98
627.70	28720.71
627.85	28549.85
628.00	28891.57
628.15	28535.81
628.30	28704.33
628.45	28765.18
628.60	28629.43
628.76	28734.76
628.91	29207.55
629.06	28861.15
629.21	28758.16
629.36	29149.03
629.51	28641.14
629.66	28514.75
629.81	28617.73
629.96	28472.62
630.11	28524.11
630.26	28730.08
630.41	28496.02
630.56	28666.88
630.71	28545.17
630.86	28809.65
631.01	28844.76
631.16	28650.50
631.31	28535.81
631.46	28336.87
631.61	28510.07
631.76	28318.14
631.91	28418.78
632.06	28311.12
632.21	27938.97
632.36	28388.36
632.51	28194.09
632.66	28554.54
632.81	28081.75
632.96	28163.67
633.10	28374.31
633.25	28252.61
633.40	28570.92
633.55	28173.03
633.70	28182.39
633.85	27976.42
634.00	27948.34
634.15	28166.01
634.30	28161.33
634.45	27861.74
634.60	28301.76
634.75	28025.57
634.90	28119.20
635.05	27796.20
635.19	28121.54
635.34	28374.31
635.49	28048.98
635.64	28034.94
635.79	28023.23
635.94	28088.77
636.09	28016.21
636.24	27428.74
636.39	27887.48
636.53	27878.12
636.68	27473.21
636.83	27681.52
636.98	27861.74
637.13	27819.61
637.28	28034.94
637.43	27976.42
637.57	28002.17
637.72	27735.35
637.87	27735.35
638.02	27683.86
638.17	27620.66
638.32	27344.48
638.46	27505.98
638.61	27459.16
638.76	27136.17
638.91	27676.83
639.06	27463.85
639.20	27414.69
639.35	27644.07
639.50	27761.09
639.65	28020.89
639.80	27676.83
639.94	27613.64
640.09	27828.97
640.24	27548.11
640.39	27283.62
640.54	27349.16
640.68	27325.75
640.83	27271.92
640.98	27190.00
641.13	26820.20
641.27	27407.67
641.42	27168.94
641.57	27178.30
641.72	27070.64
641.86	27072.98
642.01	27140.85
642.16	27103.40
642.31	27133.83
642.45	27199.37
642.60	26869.35
642.75	27026.17
642.90	26916.16
643.04	27054.25
643.19	26850.63
643.34	27115.11
643.48	27042.55
643.63	27271.92
643.78	27213.41
643.93	27199.37
644.07	27318.73
644.22	27089.36
644.37	26930.20
644.51	27206.39
644.66	26628.27
644.81	26834.24
644.95	26628.27
645.10	26359.11
645.25	26602.53
645.39	26815.52
645.54	26808.50
645.69	26906.80
645.83	26923.18
645.98	26696.15
646.13	27166.60
646.27	26944.25
646.42	26953.61
646.57	26871.69
646.71	26675.09
646.86	26728.92
647.00	26541.68
647.15	26663.38
647.30	26551.04
647.44	26597.85
647.59	26328.69
647.74	26593.17
647.88	26569.76
648.03	26656.36
648.17	26876.37
648.32	26424.65
648.47	26824.88
648.61	26579.12
648.76	26913.82
648.90	26838.92
649.05	26607.21
649.20	26438.69
649.34	26466.78
649.49	25926.11
649.63	26366.13
649.78	26249.11
649.92	26188.25
650.07	26574.44
650.21	26078.25
650.36	26335.71
650.51	26431.67
650.65	26274.85
650.80	26005.69
650.94	26045.48
651.09	26445.71
651.23	25841.85
651.38	26286.56
651.52	26017.40
651.67	25865.26
651.81	26221.02
651.96	26279.54
652.10	26085.27
652.25	26092.29
652.39	25832.49
652.54	25598.44
652.68	26073.57
652.83	26071.23
652.97	26052.50
653.12	26284.22
653.26	25944.84
653.41	26155.49
653.55	26001.01
653.70	25827.81
653.84	25975.27
653.99	25799.73
654.13	26064.21
654.27	25886.32
654.42	25689.72
654.56	25687.38
654.71	25919.09
654.85	25923.77
655.00	26253.79
655.14	25708.44
655.29	25596.10
655.43	25752.91
655.57	25589.08
655.72	25699.08
655.86	25640.57
656.01	25881.64
656.15	25507.16
656.30	25727.17
656.44	25832.49
656.58	25446.30
656.73	25312.89
656.87	25436.94
657.01	25710.78
657.16	25656.95
657.30	25816.11
657.45	25392.47
657.59	25003.94
657.73	25586.74
657.88	25186.50
658.02	25397.15
658.16	25233.32
658.31	25350.34
658.45	25294.17
658.60	24938.41
658.74	25193.53
658.88	25336.30
659.03	25287.15
659.17	25247.36
659.31	25095.22
659.46	25174.80
659.60	25223.95
659.74	25132.67
659.89	24795.64
660.03	24912.66
660.17	24933.73
660.32	24966.49
660.46	24662.22
660.60	24723.08
660.74	24575.62
660.89	24896.28
661.03	24835.42
661.17	24905.64
661.32	24397.74
661.46	24959.47
661.60	24858.83
661.74	24795.64
661.89	24634.14
662.03	24620.10
662.17	24505.41
662.31	24774.57
662.46	24751.17
662.60	24367.32
662.74	24657.54
662.88	24168.37
663.03	24276.04
663.17	24308.80
663.31	24018.58
663.45	24477.32
663.60	24304.12
663.74	24011.56
663.88	24210.50
664.02	24336.89
664.17	24430.51
664.31	24140.29
664.45	24308.80
664.59	24025.60
664.73	24238.59
664.88	23978.79
665.02	23655.79
665.16	23988.15
665.30	23735.37
665.44	23737.71
665.59	23548.13
665.73	23494.30
665.87	23351.52
666.01	23929.64
666.15	23978.79
666.29	23836.02
666.44	23632.39
666.58	23297.69
666.72	23414.72
666.86	23667.50
667.00	23742.39
667.14	23702.61
667.28	23503.66
667.43	23388.97
667.57	23349.18
667.71	23199.39
667.85	23311.74
667.99	23325.78
668.13	22974.70
668.27	22899.80
668.41	23524.72
668.56	22848.31
668.70	22888.10
668.84	23164.28
668.98	23122.15
669.12	22817.88
669.26	23171.30
669.40	23358.55
669.54	22939.59
669.68	22799.16
669.82	22750.01
669.96	22359.14
670.10	22546.38
670.25	22787.46
670.39	22855.33
670.53	22750.01
670.67	22223.39
670.81	22476.16
670.95	22878.74
671.09	22539.36
671.23	22272.54
671.37	22560.42
671.51	22436.38
671.65	22539.36
671.79	22361.48
671.93	22324.03
672.07	22408.29
672.21	22019.76
672.35	22019.76
672.49	21858.26
672.63	21654.64
672.77	21893.37
672.91	22157.85
673.05	22001.04
673.19	21785.71
673.33	21748.26
673.47	21881.67
673.61	21785.71
673.75	21921.46
673.89	21729.53
674.03	21411.22
674.17	21507.18
674.31	21490.80
674.45	21263.77
674.59	21535.27
674.73	21441.65
674.87	21577.40
675.01	21422.92
675.15	21441.65
675.29	21235.68
675.43	21179.51
675.56	21099.93
675.70	21315.26
675.84	21088.23
675.98	20362.66
676.12	21345.69
676.26	21467.39
676.40	21015.67
676.54	21088.23
676.68	20889.28
676.82	20854.17
676.96	20723.10
677.10	20615.44
677.23	20416.49
677.37	20217.55
677.51	20627.14
677.65	20250.32
677.79	20599.05
677.93	20070.09
678.07	20072.43
678.21	19934.34
678.34	20091.16
678.48	19934.34
678.62	20126.27
678.76	19824.34
678.90	19800.93
679.04	19674.54
679.18	19721.35
679.31	19527.09
679.45	19384.32
679.59	19173.67
679.73	19096.43
679.87	19197.07
680.00	19609.01
680.14	18974.72
680.28	19206.44
680.42	19435.81
680.56	19328.14
680.70	19248.57
680.83	19183.03
680.97	19136.22
681.11	19105.79
681.25	18981.74
681.39	18665.77
681.52	18633.00
681.66	18761.73
681.80	18579.17
681.94	18780.46
682.07	18567.47
682.21	18623.64
682.35	18401.29
682.49	18551.09
682.62	18183.62
682.76	18424.70
682.90	18363.84
683.04	18394.27
683.17	18307.67
683.31	18314.69
683.45	18429.38
683.59	18092.34
683.72	17853.61
683.86	18302.99
684.00	17909.78
684.13	17720.20
684.27	17813.82
684.41	17687.43
684.55	17434.65
684.68	17205.28
684.82	17563.38
684.96	17214.64
685.09	17284.86
685.23	17256.77
685.37	17214.64
685.50	17355.07
685.64	17048.46
685.78	17334.01
685.91	17387.84
686.05	17198.26
686.19	17221.66
686.32	17406.56
686.46	17022.72
686.60	16816.75
686.73	16952.50
686.87	16678.66
687.01	16814.41
687.14	16774.62
687.28	16266.72
687.42	16383.75
687.55	16512.48
687.69	16348.64
687.82	16397.79
687.96	16152.04
688.10	16278.43
688.23	16376.73
688.37	16152.04
688.50	16123.95
688.64	16210.55
688.78	16170.76
688.91	15948.41
689.05	15894.58
689.18	15492.01
689.32	15456.90
689.46	15772.87
689.59	15573.92
689.73	15494.35
689.86	15389.02
690.00	15534.14
690.13	15288.38
690.27	15669.89
690.41	15339.87
690.54	15445.20
690.68	15194.76
690.81	15290.72
690.95	15314.13
691.08	15283.70
691.22	15414.77
691.35	14815.59
691.49	14888.15
691.62	15154.97
691.76	14951.34
691.89	14831.97
692.03	14530.05
692.16	14637.71
692.30	14640.05
692.43	14354.51
692.57	14445.79
692.70	14300.67
692.84	14455.15
692.97	14424.72
693.11	14326.42
693.24	14157.90
693.38	14108.75
693.51	14214.07
693.65	14171.94
693.78	14104.07
693.92	14281.95
694.05	14193.01
694.19	14019.81
694.32	13635.96
694.45	13366.80
694.59	13687.45
694.72	13645.32
694.86	13619.58
694.99	13432.33
695.13	13366.80
695.26	13369.14
695.39	13263.82
695.53	13507.23
695.66	13371.48
695.80	13207.64
695.93	13327.01
696.07	13181.90
696.20	13355.10
696.33	13179.56
696.47	13254.45
696.60	13064.87
696.73	12800.39
696.87	12819.11
697.00	12833.16
697.14	12624.85
697.27	12489.10
697.40	12538.25
697.54	12477.40
697.67	12528.89
697.80	12414.20
697.94	12236.32
698.07	12187.17
698.21	12301.86
698.34	12123.98
698.47	12400.16
698.61	12210.57
698.74	12250.36
698.87	12236.32
699.01	11983.54
699.14	11985.88
699.27	11852.47
699.40	12065.46
699.54	11955.46
699.67	11524.80
699.80	11641.82
699.94	11688.64
700.07	11597.35
700.20	11297.77
700.34	11363.30
700.47	11440.54
700.60	11377.34
700.73	11515.44
700.87	11286.06
701.00	11171.38
701.13	11145.63
701.26	11456.92
701.40	11377.34
701.53	11412.45
701.66	11253.30
701.79	11002.86
701.93	10885.83
702.06	10906.90
702.19	10789.87
702.32	11052.01
702.46	10890.51
702.59	10691.57
702.72	10796.89
702.85	10569.86
702.99	10593.26
703.12	10717.31
703.25	10333.47
703.38	10326.44
703.51	10359.21
703.65	10345.17
703.78	10157.92
703.91	10368.57
704.04	10380.28
704.17	10466.88
704.31	10148.56
704.44	10022.17
704.57	10122.82
704.70	9994.09
704.83	9848.97
704.96	9977.70
705.10	9755.35
705.23	9799.82
>>>>>End Processed Spectral Data<<<<<
