SpectraSuite Data File
++++++++++++++++++++++++++++++++++++
Date: Fri Oct 18 13:58:42 GMT-05:00 2013
User: bianchi
Dark Spectrum Present: No
Reference Spectrum Present: No
Number of Sampled Component Spectra: 1
Spectrometers: USB2+H05261
Integration Time (usec): 50000 (USB2+H05261)
Spectra Averaged: 1 (USB2+H05261)
Boxcar Smoothing: 0 (USB2+H05261)
Correct for Electrical Dark: No (USB2+H05261)
Strobe/Lamp Enabled: No (USB2+H05261)
Correct for Detector Non-linearity: No (USB2+H05261)
Correct for Stray Light: No (USB2+H05261)
Number of Pixels in Processed Spectrum: 2048
>>>>>Begin Processed Spectral Data<<<<<
365.73	0.00
365.92	0.00
366.12	0.00
366.32	0.00
366.52	0.00
366.72	0.00
366.91	0.00
367.11	0.00
367.31	0.00
367.51	0.00
367.70	0.00
367.90	0.00
368.10	0.00
368.30	0.00
368.49	0.00
368.69	0.00
368.89	0.00
369.09	0.00
369.28	0.00
369.48	0.00
369.68	0.00
369.87	0.00
370.07	0.00
370.27	0.00
370.47	0.00
370.66	49.15
370.86	70.22
371.06	135.75
371.25	187.24
371.45	138.09
371.65	147.45
371.84	105.32
372.04	159.16
372.24	177.88
372.44	198.95
372.63	191.92
372.83	145.11
373.03	135.75
373.22	194.26
373.42	229.37
373.62	220.01
373.81	210.65
374.01	248.10
374.21	234.05
374.40	271.50
374.60	241.08
374.79	262.14
374.99	264.48
375.19	201.29
375.38	320.65
375.58	231.71
375.78	248.10
375.97	285.55
376.17	339.38
376.37	236.39
376.56	280.86
376.76	273.84
376.95	266.82
377.15	222.35
377.35	231.71
377.54	374.49
377.74	210.65
377.93	248.10
378.13	259.80
378.33	311.29
378.52	266.82
378.72	348.74
378.91	304.27
379.11	308.95
379.31	276.18
379.50	234.05
379.70	266.82
379.89	362.78
380.09	215.33
380.28	306.61
380.48	325.33
380.68	320.65
380.87	243.42
381.07	271.50
381.26	339.38
381.46	330.02
381.65	355.76
381.85	315.97
382.04	297.25
382.24	397.89
382.43	400.23
382.63	308.95
382.83	365.12
383.02	414.27
383.22	367.46
383.41	367.46
383.61	325.33
383.80	353.42
384.00	341.72
384.19	341.72
384.39	271.50
384.58	416.62
384.78	308.95
384.97	393.21
385.17	456.40
385.36	393.21
385.56	395.55
385.75	294.91
385.95	348.74
386.14	339.38
386.34	447.04
386.53	390.87
386.72	395.55
386.92	433.00
387.11	358.10
387.31	379.17
387.50	442.36
387.70	418.96
387.89	449.38
388.09	402.57
388.28	463.43
388.48	400.23
388.67	454.06
388.86	524.28
389.06	430.66
389.25	484.49
389.45	458.74
389.64	449.38
389.84	425.98
390.03	486.83
390.22	472.79
390.42	482.15
390.61	425.98
390.81	451.72
391.00	517.26
391.19	498.53
391.39	514.92
391.58	437.68
391.78	437.68
391.97	568.75
392.16	433.00
392.36	571.09
392.55	543.00
392.75	493.85
392.94	552.37
393.13	496.19
393.33	559.39
393.52	568.75
393.71	575.77
393.91	575.77
394.10	528.96
394.29	582.79
394.49	564.07
394.68	603.86
394.88	526.62
395.07	585.13
395.26	620.24
395.46	629.60
395.65	592.16
395.84	648.33
396.04	587.47
396.23	629.60
396.42	531.30
396.62	671.73
396.81	521.94
397.00	617.90
397.19	608.54
397.39	594.50
397.58	669.39
397.77	645.99
397.97	629.60
398.16	685.78
398.35	774.72
398.55	685.78
398.74	716.20
398.93	674.07
399.12	683.44
399.32	739.61
399.51	678.76
399.70	716.20
399.90	760.67
400.09	676.41
400.28	755.99
400.47	706.84
400.67	753.65
400.86	812.17
401.05	711.52
401.24	830.89
401.44	833.23
401.63	844.93
401.82	786.42
402.01	741.95
402.21	828.55
402.40	898.77
402.59	821.53
402.78	802.80
402.97	835.57
403.17	844.93
403.36	884.72
403.55	833.23
403.74	889.40
403.93	889.40
404.13	919.83
404.32	821.53
404.51	943.24
404.70	856.64
404.89	894.08
405.09	992.39
405.28	957.28
405.47	903.45
405.66	978.34
405.85	999.41
406.05	976.00
406.24	1034.52
406.43	954.94
406.62	1039.20
406.81	1018.13
407.00	987.71
407.20	1004.09
407.39	945.58
407.58	1041.54
407.77	1181.97
407.96	1064.94
408.15	1128.14
408.34	1062.60
408.54	1095.37
408.73	1055.58
408.92	1046.22
409.11	1062.60
409.30	1205.38
409.49	1165.59
409.68	1095.37
409.87	1128.14
410.07	1081.33
410.26	1245.16
410.45	1188.99
410.64	1212.40
410.83	1193.67
411.02	1146.86
411.21	1231.12
411.40	1210.06
411.59	1280.27
411.78	1270.91
411.98	1240.48
412.17	1266.23
412.36	1214.74
412.55	1317.72
412.74	1233.46
412.93	1226.44
413.12	1352.83
413.31	1383.26
413.50	1418.36
413.69	1390.28
413.88	1406.66
414.07	1448.79
414.26	1425.39
414.45	1383.26
414.64	1348.15
414.83	1502.62
415.02	1544.75
415.22	1519.01
415.41	1614.97
415.60	1526.03
415.79	1600.93
415.98	1561.14
416.17	1607.95
416.36	1586.88
416.55	1448.79
416.74	1621.99
416.93	1570.50
417.12	1694.55
417.31	1584.54
417.50	1680.50
417.69	1762.42
417.88	1692.21
418.07	1687.53
418.26	1739.02
418.45	1757.74
418.64	1806.89
418.83	1776.47
419.02	1729.66
419.21	1851.36
419.39	1881.79
419.58	1797.53
419.77	1753.06
419.96	1942.64
420.15	1851.36
420.34	1851.36
420.53	1919.24
420.72	1952.01
420.91	1792.85
421.10	1818.60
421.29	1858.39
421.48	1977.75
421.67	1858.39
421.86	1888.81
422.05	1912.22
422.24	1839.66
422.43	1923.92
422.61	1849.02
422.80	2029.24
422.99	1970.73
423.18	2052.65
423.37	2097.12
423.56	1961.37
423.75	2019.88
423.94	1966.05
424.13	1851.36
424.32	1811.57
424.50	2076.06
424.69	2057.33
424.88	2099.46
425.07	2005.84
425.26	1926.26
425.45	1926.26
425.64	1991.80
425.83	1968.39
426.01	2078.40
426.20	2071.37
426.39	2026.90
426.58	2122.87
426.77	2057.33
426.96	2111.16
427.15	2040.95
427.33	2069.03
427.52	2172.02
427.71	2097.12
427.90	2108.82
428.09	2059.67
428.28	2073.71
428.46	2174.36
428.65	2073.71
428.84	2265.64
429.03	2237.55
429.22	2160.31
429.40	2197.76
429.59	2272.66
429.78	2200.10
429.97	2239.89
430.16	2167.34
430.34	2253.94
430.53	2349.90
430.72	2338.20
430.91	2260.96
431.10	2312.45
431.28	2289.04
431.47	2462.24
431.66	2424.80
431.85	2246.91
432.03	2436.50
432.22	2359.26
432.41	2377.98
432.60	2478.63
432.79	2408.41
432.97	2410.75
433.16	2502.03
433.35	2403.73
433.54	2476.29
433.72	2534.80
433.91	2331.17
434.10	2394.37
434.28	2436.50
434.47	2420.11
434.66	2614.38
434.85	2579.27
435.03	2567.57
435.22	2621.40
435.41	2693.96
435.59	2597.99
435.78	2609.70
435.97	2602.68
436.16	2548.84
436.34	2621.40
436.53	2651.83
436.72	2675.23
436.90	2586.29
437.09	2605.02
437.28	2476.29
437.46	2724.38
437.65	2548.84
437.84	2731.41
438.02	2766.51
438.21	2806.30
438.40	2672.89
438.58	2635.44
438.77	2810.98
438.96	2787.58
439.14	3009.93
439.33	2928.01
439.52	2913.97
439.70	2972.48
439.89	2874.18
440.08	3007.59
440.26	2939.71
440.45	3068.44
440.63	3028.65
440.82	3045.04
441.01	3002.91
441.19	3068.44
441.38	3073.12
441.57	3201.85
441.75	3204.19
441.94	3283.77
442.12	3103.55
442.31	3229.94
442.50	3300.16
442.68	3246.32
442.87	3293.13
443.05	3384.41
443.24	3442.93
443.43	3236.96
443.61	3475.70
443.80	3508.46
443.98	3302.50
444.17	3169.09
444.35	3445.27
444.54	3459.31
444.73	3405.48
444.91	3417.18
445.10	3302.50
445.28	3361.01
445.47	3311.86
445.65	3456.97
445.84	3442.93
446.02	3524.85
446.21	3400.80
446.39	3447.61
446.58	3506.12
446.77	3494.42
446.95	3391.44
447.14	3269.73
447.32	3566.98
447.51	3552.93
447.69	3501.44
447.88	3569.32
448.06	3496.76
448.25	3449.95
448.43	3391.44
448.62	3499.10
448.80	3398.46
448.99	3592.72
449.17	3508.46
449.36	3545.91
449.54	3679.32
449.73	3499.10
449.91	3674.64
450.10	3637.19
450.28	3754.22
450.46	3805.71
450.65	3681.66
450.83	3648.90
451.02	3728.47
451.20	3747.20
451.39	3812.73
451.57	3740.18
451.76	3625.49
451.94	3716.77
452.13	3796.35
452.31	3796.35
452.49	3658.26
452.68	3751.88
452.86	3878.27
453.05	3817.41
453.23	3988.27
453.42	3918.06
453.60	3751.88
453.78	3775.28
453.97	3852.52
454.15	3880.61
454.34	3892.31
454.52	3913.38
454.70	3946.14
454.89	3861.88
455.07	3880.61
455.26	4091.26
455.44	4149.77
455.62	4037.42
455.81	4114.66
455.99	4016.36
456.17	4126.36
456.36	4119.34
456.54	4100.62
456.73	4210.62
456.91	4217.65
457.09	4262.12
457.28	4271.48
457.46	4283.18
457.64	4372.12
457.83	4332.33
458.01	4322.97
458.19	4376.80
458.38	4187.22
458.56	4381.48
458.74	4351.06
458.93	4344.03
459.11	4292.54
459.29	4449.36
459.48	4496.17
459.66	4507.87
459.84	4454.04
460.03	4552.34
460.21	4566.39
460.39	4468.08
460.57	4428.29
460.76	4358.08
460.94	4533.62
461.12	4542.98
461.31	4524.26
461.49	4545.32
461.67	4540.64
461.85	4507.87
462.04	4552.34
462.22	4861.29
462.40	4681.07
462.59	4706.82
462.77	4629.58
462.95	4882.36
463.13	4751.29
463.32	4718.52
463.50	4685.75
463.68	4645.96
463.86	4837.89
464.05	4685.75
464.23	4781.71
464.41	4816.82
464.59	4774.69
464.78	4863.63
464.96	5008.75
465.14	4833.21
465.32	4835.55
465.50	4915.12
465.69	4849.59
465.87	5027.47
466.05	5053.22
466.23	4983.00
466.41	5118.75
466.60	5200.67
466.78	4990.02
466.96	5071.94
467.14	4964.28
467.32	5069.60
467.51	5027.47
467.69	5111.73
467.87	4884.70
468.05	5254.50
468.23	5022.79
468.41	5046.20
468.60	5219.39
468.78	5249.82
468.96	5036.83
469.14	5277.91
469.32	5334.08
469.50	5205.35
469.69	5451.11
469.87	5399.62
470.05	5500.26
470.23	5305.99
470.41	5441.75
470.59	5570.48
470.77	5490.90
470.95	5654.73
471.14	5465.15
471.32	5317.70
471.50	5495.58
471.68	5472.17
471.86	5540.05
472.04	5696.86
472.22	5640.69
472.40	5383.23
472.58	5696.86
472.77	5762.40
472.95	5643.03
473.13	5970.71
473.31	5650.05
473.49	5603.24
473.67	5753.04
473.85	5881.77
474.03	5923.90
474.21	5930.92
474.39	6066.67
474.57	5984.75
474.75	6010.50
474.93	6106.46
475.12	6064.33
475.30	6209.44
475.48	6040.92
475.66	6108.80
475.84	6197.74
476.02	6164.97
476.20	6139.23
476.38	6399.02
476.56	6490.31
476.74	6427.11
476.92	6520.73
477.10	6380.30
477.28	6537.12
477.46	6546.48
477.64	6609.67
477.82	6712.66
478.00	6693.93
478.18	6885.86
478.36	6981.82
478.54	6722.02
478.72	7014.59
478.90	7185.44
479.08	7056.72
479.26	7222.89
479.44	7260.34
479.62	7377.37
479.80	7199.49
479.98	7204.17
480.16	7454.61
480.34	7550.57
480.52	7669.94
480.70	7515.46
480.88	7389.07
481.06	7695.68
481.24	7660.57
481.41	7522.48
481.59	7789.30
481.77	7779.94
481.95	7906.33
482.13	7911.01
482.31	7946.12
482.49	7981.23
482.67	8124.00
482.85	8135.70
483.03	8650.62
483.21	8301.88
483.39	8573.38
483.57	8329.97
483.74	8446.99
483.92	8655.30
484.10	8739.56
484.28	8720.84
484.46	9004.04
484.64	9195.96
484.82	8912.76
485.00	9137.45
485.18	9064.89
485.35	9252.14
485.53	9256.82
485.71	9373.85
485.89	9483.85
486.07	9584.49
486.25	9509.60
486.43	9376.19
486.61	9593.86
486.78	9846.63
486.96	9888.76
487.14	10113.45
487.32	9872.38
487.50	9858.34
487.68	10237.50
487.85	9994.09
488.03	10399.00
488.21	10445.81
488.39	10394.32
488.57	10480.92
488.75	10717.31
488.92	10532.41
489.10	10651.78
489.28	10700.93
489.46	10981.79
489.64	11075.42
489.81	11344.58
489.99	11187.76
490.17	11080.10
490.35	11506.07
490.53	11468.62
490.70	11499.05
490.88	11651.19
491.06	11658.21
491.24	11683.95
491.41	11672.25
491.59	11868.86
491.77	11885.24
491.95	12098.23
492.13	12154.40
492.30	12042.06
492.48	12114.61
492.66	12461.01
492.84	12409.52
493.01	12262.07
493.19	12463.35
493.37	12720.81
493.54	12482.08
493.72	12666.98
493.90	12741.88
494.08	12891.67
494.25	13053.17
494.43	13013.38
494.61	13116.36
494.79	13039.12
494.96	13221.69
495.14	13092.96
495.32	13411.27
495.49	13355.10
495.67	13434.68
495.85	13413.61
496.02	13635.96
496.20	13785.76
496.38	13731.92
496.55	13612.56
496.73	13989.38
496.91	14246.84
497.09	13994.06
497.26	14099.39
497.44	14001.08
497.62	14256.20
497.79	14401.32
497.97	14221.10
498.14	14487.92
498.32	14679.84
498.50	14607.28
498.67	14593.24
498.85	14771.12
499.03	14635.37
499.20	15016.88
499.38	14773.46
499.56	14944.32
499.73	15091.77
499.91	15272.00
500.08	15276.68
500.26	15218.16
500.44	15405.41
500.61	15517.75
500.79	15398.38
500.97	15475.62
501.14	15662.86
501.32	15566.90
501.49	15438.17
501.67	15602.01
501.84	15496.69
502.02	15611.37
502.20	15857.13
502.37	16044.37
502.55	16170.76
502.72	16065.44
502.90	16184.80
503.07	15901.60
503.25	15878.19
503.43	16105.23
503.60	16189.49
503.78	16400.13
503.95	16350.98
504.13	16306.51
504.30	16650.57
504.48	16407.16
504.65	16793.34
504.83	16570.99
505.01	16807.39
505.18	16905.69
505.36	16919.73
505.53	16879.94
505.71	16828.45
505.88	16776.96
506.06	16802.71
506.23	17057.82
506.41	17348.05
506.58	17305.92
506.76	17209.96
506.93	17212.30
507.11	17015.69
507.28	17406.56
507.46	17231.02
507.63	17554.02
507.81	17535.29
507.98	17528.27
508.16	17598.49
508.33	17961.27
508.50	17488.48
508.68	17994.04
508.85	18099.36
509.03	17893.40
509.20	18129.79
509.38	18153.20
509.55	18398.95
509.73	17848.93
509.90	18291.29
510.08	18127.45
510.25	17706.15
510.42	18228.09
510.60	18403.63
510.77	17909.78
510.95	18450.44
511.12	18359.16
511.30	18604.92
511.47	18560.45
511.64	18689.18
511.82	18930.25
511.99	18576.83
512.17	18796.84
512.34	18979.40
512.51	18916.21
512.69	18881.10
512.86	19035.58
513.04	19140.90
513.21	19091.75
513.38	19154.94
513.56	19260.27
513.73	19330.48
513.90	19103.45
514.08	19365.59
514.25	19260.27
514.43	19576.24
514.60	19768.16
514.77	19508.37
514.95	19737.74
515.12	19655.82
515.29	19716.67
515.47	19838.38
515.64	20025.62
515.81	19758.80
515.99	19850.08
516.16	20348.62
516.33	19880.51
516.51	20084.14
516.68	20173.08
516.85	19899.23
517.03	20191.80
517.20	20290.10
517.37	20432.88
517.54	20290.10
517.72	20329.89
517.89	20395.43
518.06	20383.73
518.24	20299.47
518.41	20369.68
518.58	20582.67
518.75	20617.78
518.93	20716.08
519.10	20898.64
519.27	20989.92
519.45	20570.97
519.62	20629.48
519.79	20847.15
519.96	20802.68
520.14	21062.48
520.31	20828.43
520.48	21081.21
520.65	20786.30
520.83	21193.55
521.00	21118.65
521.17	21022.69
521.34	20996.95
521.52	21151.42
521.69	21425.26
521.86	21820.81
522.03	21446.33
522.20	21577.40
522.38	21752.94
522.55	21876.99
522.72	21387.82
522.89	21455.69
523.07	21956.57
523.24	21848.90
523.41	21605.49
523.58	21895.71
523.75	21940.18
523.92	22008.06
524.10	21963.59
524.27	21982.31
524.44	22291.26
524.61	22450.42
524.78	22263.18
524.96	22108.70
525.13	22284.24
525.30	22097.00
525.47	22281.90
525.64	22164.87
525.81	22738.30
525.98	22513.61
526.16	22609.58
526.33	22562.76
526.50	23094.07
526.67	22576.81
526.84	22700.86
527.01	22565.10
527.18	22539.36
527.36	22471.48
527.53	22740.64
527.70	22824.90
527.87	22852.99
528.04	22766.39
528.21	23051.94
528.38	22871.72
528.55	23222.80
528.72	22897.46
528.89	23180.67
529.07	22972.36
529.24	23248.54
529.41	23157.26
529.58	23243.86
529.75	23126.83
529.92	22948.95
530.09	23515.36
530.26	23250.88
530.43	23161.94
530.60	23587.92
530.77	23620.69
530.94	23604.30
531.11	23370.25
531.28	23524.72
531.46	23496.64
531.63	23543.45
531.80	24027.94
531.97	23672.18
532.14	24135.60
532.31	23590.26
532.48	23798.57
532.65	23726.01
532.82	23840.70
532.99	23550.47
533.16	23702.61
533.33	24130.92
533.50	24318.17
533.67	24297.10
533.84	23903.89
534.01	24116.88
534.18	24077.09
534.35	24250.29
534.52	24053.69
534.69	24411.79
534.86	24451.58
535.03	24191.78
535.20	24271.36
535.37	24538.18
535.54	24393.06
535.71	24308.80
535.88	24678.61
536.05	24599.03
536.22	24725.42
536.38	24699.67
536.55	24669.25
536.72	24694.99
536.89	24643.50
537.06	24460.94
537.23	24915.00
537.40	24659.88
537.57	25027.35
537.74	24739.46
537.91	25062.46
538.08	24725.42
538.25	24685.63
538.42	24924.36
538.59	24980.54
538.75	24776.91
538.92	25120.97
539.09	25025.01
539.26	25193.53
539.43	25179.48
539.60	25282.47
539.77	25113.95
539.94	25331.62
540.11	25252.04
540.28	25312.89
540.44	25076.50
540.61	25046.07
540.78	25462.69
540.95	25652.27
541.12	25568.01
541.29	25558.65
541.46	25773.98
541.62	25340.98
541.79	25448.64
541.96	25277.79
542.13	25575.03
542.30	25703.76
542.47	25766.96
542.63	26022.08
542.80	25975.27
542.97	25830.15
543.14	26291.24
543.31	26061.87
543.48	26045.48
543.64	25902.71
543.81	26167.19
543.98	26164.85
544.15	26075.91
544.32	26300.60
544.48	26562.74
544.65	26033.78
544.82	26309.96
544.99	25979.95
545.16	26398.90
545.32	26202.30
545.49	26436.35
545.66	26883.39
545.83	26806.16
546.00	26672.74
546.16	26560.40
546.33	26513.59
546.50	26118.04
546.67	26611.89
546.83	25766.96
547.00	26661.04
547.17	26789.77
547.34	26541.68
547.50	26731.26
547.67	26757.00
547.84	26855.31
548.00	26635.30
548.17	26817.86
548.34	26771.05
548.51	26941.91
548.67	26801.47
548.84	27098.72
549.01	26506.57
549.18	26717.22
549.34	26614.23
549.51	26742.96
549.68	26576.78
549.84	26546.36
550.01	26831.90
550.18	27239.15
550.34	27349.16
550.51	27288.31
550.68	27054.25
550.84	27253.20
551.01	27101.06
551.18	27367.88
551.34	27138.51
551.51	27208.73
551.68	26969.99
551.84	27536.40
552.01	27197.02
552.18	27599.60
552.34	27651.09
552.51	27477.89
552.68	27524.70
552.84	27126.81
553.01	27812.59
553.18	27527.04
553.34	27924.93
553.51	27658.11
553.67	27522.36
553.84	27866.42
554.01	27613.64
554.17	27793.86
554.34	27786.84
554.51	27475.55
554.67	27931.95
554.84	27683.86
555.00	28095.79
555.17	27723.65
555.33	27866.42
555.50	27833.65
555.67	27960.04
555.83	27740.03
556.00	27936.63
556.16	27990.47
556.33	28189.41
556.50	27393.63
556.66	28023.23
556.83	28091.11
556.99	28364.95
557.16	28430.49
557.32	27887.48
557.49	27845.35
557.65	28020.89
557.82	28027.92
557.98	28086.43
558.15	28336.87
558.32	28198.77
558.48	28231.54
558.65	27999.83
558.81	28318.14
558.98	28051.32
559.14	28599.01
559.31	28194.09
559.47	28175.37
559.64	28177.71
559.80	28210.48
559.97	28484.32
560.13	28683.27
560.30	28311.12
560.46	28409.42
560.63	28491.34
560.79	28465.60
560.96	28685.61
561.12	28210.48
561.29	28828.38
561.45	28386.02
561.61	28641.14
561.78	28713.69
561.94	28496.02
562.11	28573.26
562.27	28638.80
562.44	28603.69
562.60	28444.53
562.77	28407.08
562.93	28439.85
563.10	28877.53
563.26	28650.50
563.42	28582.62
563.59	28655.18
563.75	28514.75
563.92	28278.35
564.08	28589.64
564.24	28662.20
564.41	28765.18
564.57	28929.02
564.74	28910.30
564.90	28786.25
565.07	29036.69
565.23	28847.10
565.39	28933.70
565.56	28851.78
565.72	28922.00
565.88	29078.82
566.05	28896.25
566.21	29013.28
566.38	28795.61
566.54	28697.31
566.70	29186.48
566.87	29443.94
567.03	29008.60
567.19	29184.14
567.36	28945.41
567.52	28608.37
567.68	29261.38
567.85	28704.33
568.01	28826.04
568.17	28821.36
568.34	29268.40
568.50	29092.86
568.66	29074.13
568.83	29514.16
568.99	29029.66
569.15	28554.54
569.32	28919.66
569.48	28622.41
569.64	28561.56
569.81	29144.35
569.97	28938.38
570.13	29413.51
570.30	29193.50
570.46	28870.51
570.62	28959.45
570.78	29043.71
570.95	28751.14
571.11	29305.85
571.27	29177.12
571.43	29273.08
571.60	29343.30
571.76	29216.91
571.92	29521.18
572.09	29329.25
572.25	29104.56
572.41	29570.33
572.57	29060.09
572.74	29383.09
572.90	29474.37
573.06	29055.41
573.22	29092.86
573.38	29287.12
573.55	29240.31
573.71	29743.53
573.87	29144.35
574.03	29123.29
574.20	29563.31
574.36	29397.13
574.52	28851.78
574.68	29186.48
574.84	29282.44
575.01	29160.73
575.17	29226.27
575.33	29207.55
575.49	29261.38
575.65	29137.33
575.82	29825.45
575.98	28886.89
576.14	29502.45
576.30	29020.30
576.46	29039.03
576.62	29434.58
576.79	29343.30
576.95	29362.02
577.11	29509.47
577.27	29338.62
577.43	29586.71
577.59	29469.69
577.75	29254.36
577.92	29369.04
578.08	29109.24
578.24	29469.69
578.40	29427.56
578.56	29436.92
578.72	29436.92
578.88	29633.52
579.04	29858.21
579.21	29708.42
579.37	29338.62
579.53	29848.85
579.69	29331.59
579.85	28957.11
580.01	29593.73
580.17	29465.00
580.33	29266.06
580.49	29057.75
580.65	29621.82
580.82	29621.82
580.98	29717.78
581.14	29570.33
581.30	29694.38
581.46	29254.36
581.62	29415.85
581.78	29673.31
581.94	29462.66
582.10	29530.54
582.26	29034.35
582.42	29518.84
582.58	29553.94
582.74	29366.70
582.90	29872.26
583.06	29656.93
583.22	29682.67
583.38	29411.17
583.54	29350.32
583.70	29413.51
583.86	29439.26
584.02	29542.24
584.18	29788.00
584.34	29783.32
584.50	29701.40
584.66	29553.94
584.82	29675.65
584.98	29720.12
585.14	29352.66
585.30	29333.93
585.46	29560.97
585.62	29427.56
585.78	29352.66
585.94	29441.60
586.10	29640.54
586.26	29710.76
586.42	29804.38
586.58	29820.77
586.74	29661.61
586.90	29443.94
587.06	29579.69
587.22	29462.66
587.38	29436.92
587.54	29900.34
587.70	29907.37
587.86	29530.54
588.02	29727.14
588.18	30263.13
588.34	29968.22
588.49	29883.96
588.65	29605.44
588.81	29858.21
588.97	29600.76
589.13	29797.36
589.29	29912.05
589.45	29907.37
589.61	29818.42
589.77	30284.19
589.93	30120.35
590.08	29979.92
590.24	30024.39
590.40	30242.06
590.56	30010.35
590.72	29820.77
590.88	29804.38
591.04	29401.81
591.20	30302.92
591.35	29848.85
591.51	30057.16
591.67	29930.77
591.83	30359.09
591.99	30579.10
592.15	30192.91
592.31	30328.66
592.46	29699.06
592.62	29724.80
592.78	30026.73
592.94	29432.24
593.10	29839.49
593.26	30132.06
593.41	30232.70
593.57	30115.67
593.73	30033.75
593.89	30010.35
594.05	29895.66
594.20	29825.45
594.36	30174.19
594.52	29965.88
594.68	29813.74
594.84	29827.79
594.99	30176.53
595.15	30272.49
595.31	30504.20
595.47	30256.11
595.62	30033.75
595.78	30384.83
595.94	30038.44
596.10	30089.93
596.25	29919.07
596.41	29968.22
596.57	29764.59
596.73	29731.83
596.88	29579.69
597.04	30338.02
597.20	30270.15
597.36	30441.01
597.51	30120.35
597.67	30284.19
597.83	30216.32
597.99	29830.13
598.14	29947.15
598.30	29968.22
598.46	29937.79
598.61	29795.02
598.77	30335.68
598.93	30160.14
599.09	30038.44
599.24	30452.71
599.40	30110.99
599.56	30309.94
599.71	30171.85
599.87	30483.14
600.03	30246.74
600.18	29841.83
600.34	30003.33
600.50	30178.87
600.65	30132.06
600.81	30249.08
600.97	30536.97
601.12	30125.04
601.28	30543.99
601.44	30459.73
601.59	30078.22
601.75	29776.30
601.91	30080.56
602.06	30192.91
602.22	30232.70
602.37	29916.73
602.53	30230.36
602.69	30277.17
602.84	30314.62
603.00	30546.33
603.16	30157.80
603.31	30373.13
603.47	30228.02
603.62	30054.82
603.78	30368.45
603.94	29970.56
604.09	29937.79
604.25	30471.43
604.40	29972.90
604.56	30188.23
604.71	30277.17
604.87	30052.48
605.03	30256.11
605.18	30263.13
605.34	29991.62
605.49	29989.28
605.65	30361.43
605.80	29898.00
605.96	30033.75
606.12	29898.00
606.27	30118.01
606.43	29844.17
606.58	29933.11
606.74	29972.90
606.89	30415.26
607.05	30209.29
607.20	30066.52
607.36	30127.38
607.51	30012.69
607.67	30068.86
607.82	30178.87
607.98	30197.59
608.13	30059.50
608.29	29748.21
608.44	30071.20
608.60	30237.38
608.75	30218.66
608.91	29937.79
609.06	30087.59
609.22	29977.58
609.37	29699.06
609.53	29752.89
609.68	29986.94
609.84	29780.98
609.99	29837.15
610.15	29788.00
610.30	29907.37
610.46	29687.36
610.61	29572.67
610.76	30094.61
610.92	29977.58
611.07	29759.91
611.23	29956.52
611.38	30024.39
611.54	29759.91
611.69	29659.27
611.84	29912.05
612.00	29673.31
612.15	29610.12
612.31	29642.88
612.46	29752.89
612.62	29898.00
612.77	29834.81
612.92	29408.83
613.08	29832.47
613.23	29656.93
613.39	29394.79
613.54	29284.78
613.69	29647.57
613.85	29518.84
614.00	29483.73
614.15	29422.87
614.31	29626.50
614.46	29806.72
614.62	29244.99
614.77	29575.01
614.92	29525.86
615.08	29804.38
615.23	29565.65
615.38	29729.48
615.54	29436.92
615.69	29315.21
615.84	29890.98
616.00	29109.24
616.15	29322.23
616.30	29170.10
616.46	29319.89
616.61	29303.51
616.76	29750.55
616.92	28982.85
617.07	29521.18
617.22	29366.70
617.37	29062.43
617.53	29509.47
617.68	28961.79
617.83	29303.51
617.99	29181.80
618.14	29209.89
618.29	29324.57
618.45	29067.11
618.60	28896.25
618.75	29343.30
618.90	29256.70
619.06	29240.31
619.21	29242.65
619.36	29228.61
619.51	29039.03
619.67	28875.19
619.82	28985.19
619.97	28999.24
620.12	29163.08
620.28	28781.57
620.43	29500.11
620.58	29289.46
620.73	28950.09
620.89	29355.00
621.04	29462.66
621.19	29149.03
621.34	28910.30
621.49	28753.48
621.65	28753.48
621.80	29301.17
621.95	28828.38
622.10	28830.72
622.25	28713.69
622.41	28968.81
622.56	28975.83
622.71	29001.58
622.86	28512.41
623.01	28795.61
623.16	28725.39
623.32	28570.92
623.47	28830.72
623.62	28833.06
623.77	28570.92
623.92	28409.42
624.07	28608.37
624.23	28360.27
624.38	28823.70
624.53	28673.90
624.68	28603.69
624.83	28781.57
624.98	28758.16
625.13	28538.15
625.29	28467.94
625.44	28636.45
625.59	28627.09
625.74	28107.49
625.89	28191.75
626.04	28584.96
626.19	28339.21
626.34	28388.36
626.49	27733.01
626.65	28245.58
626.80	28505.38
626.95	27967.06
627.10	28409.42
627.25	28381.34
627.40	28196.43
627.55	28582.62
627.70	27740.03
627.85	27828.97
628.00	28554.54
628.15	28168.35
628.30	27826.63
628.45	28149.62
628.60	28334.53
628.76	28027.92
628.91	28086.43
629.06	27941.32
629.21	28182.39
629.36	28374.31
629.51	28044.30
629.66	27796.20
629.81	28072.39
629.96	27637.05
630.11	27700.24
630.26	27639.39
630.41	27613.64
630.56	27852.38
630.71	27770.46
630.86	27751.73
631.01	28343.89
631.16	27903.87
631.31	27751.73
631.46	28037.28
631.61	27988.13
631.76	27819.61
631.91	27358.52
632.06	27728.33
632.21	27491.93
632.36	27810.25
632.51	27321.07
632.66	27330.44
632.81	27065.96
632.96	27510.66
633.10	27648.75
633.25	27346.82
633.40	27721.30
633.55	27761.09
633.70	27269.58
633.85	27353.84
634.00	27147.87
634.15	27468.53
634.30	27271.92
634.45	27330.44
634.60	27463.85
634.75	27241.50
634.90	27718.96
635.05	27480.23
635.19	27342.14
635.34	27421.72
635.49	27208.73
635.64	27222.77
635.79	27318.73
635.94	27349.16
636.09	27227.45
636.24	26984.04
636.39	26993.40
636.53	27199.37
636.68	27091.70
636.83	27351.50
636.98	26951.27
637.13	27241.50
637.28	27021.48
637.43	27180.64
637.57	27482.57
637.72	26974.67
637.87	27426.40
638.02	27264.90
638.17	27019.14
638.32	26864.67
638.46	26981.70
638.61	26747.64
638.76	26340.39
638.91	26314.64
639.06	26782.75
639.20	27103.40
639.35	26902.12
639.50	27112.77
639.65	26944.25
639.80	27398.31
639.94	26977.01
640.09	26955.95
640.24	26836.58
640.39	26742.96
640.54	26544.02
640.68	26356.77
640.83	26539.33
640.98	26536.99
641.13	26450.39
641.27	26597.85
641.42	26497.20
641.57	26682.11
641.72	26520.61
641.86	26347.41
642.01	26370.82
642.16	26494.86
642.31	26401.24
642.45	26382.52
642.60	26169.53
642.75	26326.35
642.90	26267.83
643.04	26204.64
643.19	26230.38
643.34	26384.86
643.48	26150.81
643.63	26518.27
643.78	26331.03
643.93	26419.97
644.07	26471.46
644.22	26309.96
644.37	26506.57
644.51	26143.78
644.66	26291.24
644.81	26073.57
644.95	26419.97
645.10	25937.82
645.25	25949.52
645.39	26078.25
645.54	26181.23
645.69	25823.13
645.83	26164.85
645.98	25912.07
646.13	26586.15
646.27	26082.93
646.42	26195.28
646.57	26108.68
646.71	25993.99
646.86	25757.60
647.00	26171.87
647.15	25912.07
647.30	25656.95
647.44	26064.21
647.59	26300.60
647.74	26038.46
647.88	25706.10
648.03	25900.37
648.17	26082.93
648.32	26108.68
648.47	26085.27
648.61	25507.16
648.76	26176.55
648.90	26141.44
649.05	26099.31
649.20	26267.83
649.34	25479.07
649.49	25682.70
649.63	25530.56
649.78	25619.50
649.92	25781.00
650.07	25701.42
650.21	25497.80
650.36	25663.97
650.51	25647.59
650.65	26033.78
650.80	25570.35
650.94	25724.83
651.09	25654.61
651.23	25383.11
651.38	25582.06
651.52	25242.68
651.67	25378.43
651.81	25544.61
651.96	25603.12
652.10	25273.10
652.25	25413.54
652.39	25221.61
652.54	25488.43
652.68	25708.44
652.83	25336.30
652.97	25589.08
653.12	25586.74
653.26	25078.84
653.41	25261.40
653.55	25467.37
653.70	24964.15
653.84	25324.60
653.99	24952.45
654.13	25095.22
654.27	25092.88
654.42	25348.00
654.56	25301.19
654.71	25268.42
654.85	25261.40
655.00	25455.67
655.14	25333.96
655.29	25090.54
655.43	25127.99
655.57	25006.28
655.72	25032.03
655.86	25216.93
656.01	24840.11
656.15	24917.34
656.30	24889.26
656.44	24620.10
656.58	24985.22
656.73	24587.33
656.87	24917.34
657.01	24734.78
657.16	24910.32
657.30	25144.38
657.45	24903.30
657.59	25083.52
657.73	24687.97
657.88	24741.80
658.02	24727.76
658.16	24367.32
658.31	24538.18
658.45	24725.42
658.60	24402.43
658.74	24402.43
658.88	24493.71
659.03	24671.59
659.17	24439.87
659.31	24615.41
659.46	24865.85
659.60	24542.86
659.74	24669.25
659.89	24472.64
660.03	24163.69
660.17	24357.96
660.32	24112.20
660.46	24395.40
660.60	24053.69
660.74	24166.03
660.89	24432.85
661.03	23941.34
661.17	24346.25
661.32	24163.69
661.46	24568.60
661.60	24126.24
661.74	24137.94
661.89	24081.77
662.03	24189.44
662.17	24346.25
662.31	23709.63
662.46	24432.85
662.60	23899.21
662.74	23866.44
662.88	23487.28
663.03	23740.05
663.17	23653.45
663.31	23316.42
663.45	23438.12
663.60	23503.66
663.74	23449.83
663.88	23585.58
664.02	23784.52
664.17	23688.56
664.31	23569.19
664.45	23300.03
664.59	23564.51
664.73	23611.32
664.88	23391.31
665.02	23206.41
665.16	23250.88
665.30	23180.67
665.44	23255.56
665.59	23318.76
665.73	23147.90
665.87	22888.10
666.01	23278.97
666.15	23339.82
666.29	22871.72
666.44	23080.02
666.58	22977.04
666.72	22593.19
666.86	23016.83
667.00	22785.12
667.14	22955.97
667.28	22881.08
667.43	22665.75
667.57	23084.70
667.71	22581.49
667.85	22899.80
667.99	22534.68
668.13	22628.30
668.27	22422.33
668.41	22328.71
668.56	22520.63
668.70	22808.52
668.84	22799.16
668.98	22628.30
669.12	22572.13
669.26	22450.42
669.40	22494.89
669.54	22258.49
669.68	22541.70
669.82	22277.22
669.96	22270.20
670.10	22225.73
670.25	22408.29
670.39	21986.99
670.53	21685.06
670.67	21781.03
670.81	22097.00
670.95	22078.27
671.09	22246.79
671.23	21781.03
671.37	22176.58
671.51	21848.90
671.65	21853.58
671.79	21717.83
671.93	21614.85
672.07	21748.26
672.21	21577.40
672.35	21301.22
672.49	21390.16
672.63	21029.71
672.77	21273.13
672.91	21568.04
673.05	21153.76
673.19	21081.21
673.33	21432.29
673.47	21242.70
673.61	21212.28
673.75	21282.49
673.89	21130.36
674.03	21081.21
674.17	21172.49
674.31	21223.98
674.45	20823.75
674.59	21074.18
674.73	21137.38
674.87	20659.91
675.01	20886.94
675.15	20915.03
675.29	20533.52
675.43	20613.10
675.56	20615.44
675.70	20718.42
675.84	20357.98
675.98	19913.28
676.12	20547.56
676.26	20882.26
676.40	20556.93
676.54	20524.16
676.68	20175.42
676.82	19742.42
676.96	20395.43
677.10	19639.44
677.23	20262.02
677.37	19744.76
677.51	19995.20
677.65	19969.45
677.79	19709.65
677.93	19726.04
678.07	19761.14
678.21	19630.07
678.34	19573.90
678.48	19709.65
678.62	19431.13
678.76	19353.89
678.90	19278.99
679.04	19337.51
679.18	19360.91
679.31	19143.24
679.45	19007.49
679.59	19241.54
679.73	19073.03
679.87	18806.20
680.00	18614.28
680.14	18696.20
680.28	18836.63
680.42	18661.09
680.56	18916.21
680.70	18806.20
680.83	18408.31
680.97	18436.40
681.11	18611.94
681.25	18675.13
681.39	18305.33
681.52	18174.26
681.66	18412.99
681.80	18384.91
681.94	18160.22
682.07	18441.08
682.21	17893.40
682.35	17919.14
682.49	18071.28
682.62	17914.46
682.76	17699.13
682.90	17891.06
683.04	17795.09
683.17	18050.21
683.31	17846.58
683.45	17902.76
683.59	17692.11
683.72	17511.89
683.86	17558.70
684.00	17511.89
684.13	17394.86
684.27	17483.80
684.41	17235.70
684.55	16854.20
684.68	16924.41
684.82	17139.74
684.96	16891.65
685.09	16966.54
685.23	17216.98
685.37	17149.11
685.50	17085.91
685.64	16980.59
685.78	16732.49
685.91	16627.17
686.05	17001.65
686.19	16493.76
686.32	16830.79
686.46	16320.56
686.60	16336.94
686.73	16088.84
686.87	16430.56
687.01	16222.25
687.14	16161.40
687.28	15983.52
687.42	16009.26
687.55	15845.43
687.69	16123.95
687.82	16121.61
687.96	15997.56
688.10	15999.90
688.23	15843.09
688.37	15564.56
688.50	15742.44
688.64	15854.79
688.78	15632.44
688.91	15590.31
689.05	15585.63
689.18	15288.38
689.32	15192.42
689.46	15190.08
689.59	15213.48
689.73	15482.64
689.86	15194.76
690.00	15159.65
690.13	15204.12
690.27	15037.94
690.41	15178.37
690.54	14930.28
690.68	15234.55
690.81	14897.51
690.95	15047.30
691.08	15171.35
691.22	14593.24
691.35	14553.45
691.49	14487.92
691.62	14782.82
691.76	14408.34
691.89	14375.57
692.03	14235.14
692.16	14263.22
692.30	13933.21
692.43	14019.81
692.57	14127.47
692.70	14363.87
692.84	14188.33
692.97	13909.80
693.11	13919.17
693.24	14099.39
693.38	13930.87
693.51	13540.00
693.65	13748.31
693.78	13727.24
693.92	13584.47
694.05	13572.77
694.19	13687.45
694.32	13551.70
694.45	13319.99
694.59	13268.50
694.72	13114.02
694.86	13137.43
694.99	12950.18
695.13	13179.56
695.26	13020.40
695.39	12966.57
695.53	13022.74
695.66	12966.57
695.80	12982.95
695.93	12877.63
696.07	12849.54
696.20	12863.58
696.33	12802.73
696.47	12674.00
696.60	12727.83
696.73	12594.42
696.87	12362.71
697.00	12578.04
697.14	12435.27
697.27	12273.77
697.40	12212.92
697.54	12070.14
697.67	12374.41
697.80	12208.23
697.94	11927.37
698.07	12121.63
698.21	11845.45
698.34	11936.73
698.47	11969.50
698.61	12245.68
698.74	12091.21
698.87	11817.36
699.01	11829.07
699.14	11810.34
699.27	11779.92
699.40	11583.31
699.54	11550.54
699.67	11620.76
699.80	11358.62
699.94	11337.56
700.07	11169.04
700.20	11253.30
700.34	11040.31
700.47	11070.73
700.60	11246.27
700.73	11157.33
700.87	11124.57
701.00	10967.75
701.13	11021.58
701.26	11014.56
701.40	10888.17
701.53	11070.73
701.66	10815.62
701.79	10848.38
701.93	10619.01
702.06	10630.71
702.19	10469.22
702.32	10567.52
702.46	10431.77
702.59	10307.72
702.72	10513.69
702.85	10600.29
702.99	10277.29
703.12	10450.49
703.25	10300.70
703.38	10038.56
703.51	10113.45
703.65	10029.20
703.78	10017.49
703.91	10195.37
704.04	10071.33
704.17	10031.54
704.31	10169.63
704.44	9909.83
704.57	9795.14
704.70	9619.60
704.83	9605.56
704.96	9591.52
705.10	9605.56
705.23	9348.10
>>>>>End Processed Spectral Data<<<<<
