SpectraSuite Data File
++++++++++++++++++++++++++++++++++++
Date: Fri Oct 18 13:58:13 GMT-05:00 2013
User: bianchi
Dark Spectrum Present: No
Reference Spectrum Present: No
Number of Sampled Component Spectra: 1
Spectrometers: USB2+H05261
Integration Time (usec): 50000 (USB2+H05261)
Spectra Averaged: 1 (USB2+H05261)
Boxcar Smoothing: 0 (USB2+H05261)
Correct for Electrical Dark: No (USB2+H05261)
Strobe/Lamp Enabled: No (USB2+H05261)
Correct for Detector Non-linearity: No (USB2+H05261)
Correct for Stray Light: No (USB2+H05261)
Number of Pixels in Processed Spectrum: 2048
>>>>>Begin Processed Spectral Data<<<<<
365.73	0.00
365.92	0.00
366.12	0.00
366.32	0.00
366.52	0.00
366.72	0.00
366.91	0.00
367.11	0.00
367.31	0.00
367.51	0.00
367.70	0.00
367.90	0.00
368.10	0.00
368.30	0.00
368.49	0.00
368.69	0.00
368.89	0.00
369.09	0.00
369.28	0.00
369.48	0.00
369.68	0.00
369.87	0.00
370.07	0.00
370.27	0.00
370.47	0.00
370.66	112.35
370.86	126.39
371.06	173.20
371.25	145.11
371.45	105.32
371.65	131.07
371.84	84.26
372.04	168.52
372.24	173.20
372.44	217.67
372.63	234.05
372.83	229.37
373.03	121.71
373.22	224.69
373.42	266.82
373.62	243.42
373.81	245.76
374.01	224.69
374.21	294.91
374.40	234.05
374.60	325.33
374.79	262.14
374.99	194.26
375.19	201.29
375.38	285.55
375.58	278.52
375.78	245.76
375.97	285.55
376.17	276.18
376.37	257.46
376.56	299.59
376.76	189.58
376.95	292.57
377.15	224.69
377.35	252.78
377.54	341.72
377.74	299.59
377.93	299.59
378.13	245.76
378.33	243.42
378.52	325.33
378.72	241.08
378.91	283.20
379.11	252.78
379.31	320.65
379.50	322.99
379.70	259.80
379.89	322.99
380.09	330.02
380.28	381.51
380.48	362.78
380.68	285.55
380.87	280.86
381.07	278.52
381.26	306.61
381.46	269.16
381.65	287.89
381.85	362.78
382.04	320.65
382.24	381.51
382.43	290.23
382.63	344.06
382.83	465.77
383.02	320.65
383.22	400.23
383.41	374.49
383.61	339.38
383.80	337.04
384.00	390.87
384.19	386.19
384.39	367.46
384.58	348.74
384.78	372.15
384.97	327.68
385.17	379.17
385.36	428.32
385.56	430.66
385.75	447.04
385.95	381.51
386.14	463.43
386.34	393.21
386.53	351.08
386.72	367.46
386.92	428.32
387.11	423.64
387.31	430.66
387.50	402.57
387.70	365.12
387.89	500.87
388.09	418.96
388.28	418.96
388.48	482.15
388.67	416.62
388.86	484.49
389.06	449.38
389.25	430.66
389.45	388.53
389.64	512.58
389.84	521.94
390.03	477.47
390.22	484.49
390.42	433.00
390.61	528.96
390.81	440.02
391.00	482.15
391.19	512.58
391.39	531.30
391.58	458.74
391.78	447.04
391.97	554.71
392.16	568.75
392.36	514.92
392.55	596.84
392.75	568.75
392.94	545.34
393.13	533.64
393.33	442.36
393.52	550.03
393.71	662.37
393.91	585.13
394.10	561.73
394.29	653.01
394.49	575.77
394.68	592.16
394.88	650.67
395.07	578.11
395.26	617.90
395.46	702.16
395.65	606.20
395.84	636.63
396.04	730.25
396.23	667.05
396.42	699.82
396.62	685.78
396.81	765.36
397.00	744.29
397.19	662.37
397.39	627.26
397.58	702.16
397.77	610.88
397.97	641.31
398.16	617.90
398.35	690.46
398.55	697.48
398.74	678.76
398.93	725.57
399.12	720.88
399.32	779.40
399.51	741.95
399.70	732.59
399.90	723.23
400.09	821.53
400.28	840.25
400.47	840.25
400.67	795.78
400.86	835.57
401.05	823.87
401.24	786.42
401.44	784.08
401.63	786.42
401.82	889.40
402.01	746.63
402.21	779.40
402.40	781.74
402.59	858.98
402.78	973.66
402.97	901.11
403.17	945.58
403.36	926.85
403.55	898.77
403.74	947.92
403.93	945.58
404.13	990.05
404.32	849.61
404.51	943.24
404.70	875.36
404.89	866.00
405.09	983.02
405.28	887.06
405.47	971.32
405.66	954.94
405.85	1008.77
406.05	992.39
406.24	1011.11
406.43	1142.18
406.62	1013.45
406.81	1086.01
407.00	980.68
407.20	1036.86
407.39	1090.69
407.58	1095.37
407.77	1039.20
407.96	1184.31
408.15	1032.18
408.34	1179.63
408.54	1102.39
408.73	1252.19
408.92	1172.61
409.11	1104.73
409.30	1156.22
409.49	1210.06
409.68	1093.03
409.87	1107.07
410.07	1177.29
410.26	1224.10
410.45	1200.69
410.64	1277.93
410.83	1245.16
411.02	1247.51
411.21	1343.47
411.40	1224.10
411.59	1247.51
411.78	1308.36
411.98	1242.82
412.17	1362.19
412.36	1366.87
412.55	1308.36
412.74	1476.88
412.93	1334.11
413.12	1299.00
413.31	1467.52
413.50	1425.39
413.69	1406.66
413.88	1425.39
414.07	1448.79
414.26	1514.33
414.45	1504.96
414.64	1504.96
414.83	1483.90
415.02	1451.13
415.22	1678.16
415.41	1647.74
415.60	1603.27
415.79	1668.80
415.98	1673.48
416.17	1528.37
416.36	1664.12
416.55	1678.16
416.74	1713.27
416.93	1586.88
417.12	1600.93
417.31	1802.21
417.50	1851.36
417.69	1717.95
417.88	1769.44
418.07	1682.85
418.26	1792.85
418.45	1877.11
418.64	1837.32
418.83	1891.15
419.02	1781.15
419.21	1856.04
419.39	1858.39
419.58	1839.66
419.77	1888.81
419.96	1860.73
420.15	1923.92
420.34	1966.05
420.53	1954.35
420.72	1977.75
420.91	1886.47
421.10	2005.84
421.29	1916.90
421.48	1968.39
421.67	2017.54
421.86	2073.71
422.05	2132.23
422.24	1998.82
422.43	2057.33
422.61	2092.44
422.80	2022.22
422.99	2113.50
423.18	1959.03
423.37	2069.03
423.56	2024.56
423.75	2066.69
423.94	2024.56
424.13	1947.33
424.32	1956.69
424.50	2181.38
424.69	2120.53
424.88	2122.87
425.07	2033.93
425.26	2092.44
425.45	2090.10
425.64	2179.04
425.83	2024.56
426.01	2211.81
426.20	2064.35
426.39	2111.16
426.58	2029.24
426.77	2174.36
426.96	2120.53
427.15	2073.71
427.33	2090.10
427.52	2157.97
427.71	2050.31
427.90	2090.10
428.09	2279.68
428.28	2242.23
428.46	2277.34
428.65	2291.38
428.84	2232.87
429.03	2258.62
429.22	2202.44
429.40	2293.72
429.59	2375.64
429.78	2162.66
429.97	2190.74
430.16	2263.30
430.34	2314.79
430.53	2429.48
430.72	2347.56
430.91	2413.09
431.10	2317.13
431.28	2469.27
431.47	2406.07
431.66	2513.74
431.85	2452.88
432.03	2518.42
432.22	2572.25
432.41	2443.52
432.60	2485.65
432.79	2532.46
432.97	2382.67
433.16	2644.81
433.35	2551.18
433.54	2574.59
433.72	2546.50
433.91	2595.65
434.10	2527.78
434.28	2548.84
434.47	2551.18
434.66	2616.72
434.85	2612.04
435.03	2649.49
435.22	2586.29
435.41	2825.03
435.59	2745.45
435.78	2745.45
435.97	2686.94
436.16	2745.45
436.34	2773.53
436.53	2693.96
436.72	2815.66
436.90	2738.43
437.09	2796.94
437.28	2740.77
437.46	2853.11
437.65	2853.11
437.84	2846.09
438.02	2846.09
438.21	2944.39
438.40	2710.34
438.58	2988.86
438.77	2860.13
438.96	2810.98
439.14	2984.18
439.33	2923.33
439.52	3030.99
439.70	3091.85
439.89	3232.28
440.08	3049.72
440.26	3000.57
440.45	3126.96
440.63	3059.08
440.82	3173.77
441.01	3117.59
441.19	3304.84
441.38	3211.22
441.57	3150.36
441.75	3211.22
441.94	3318.88
442.12	3272.07
442.31	3370.37
442.50	3349.31
442.68	3342.28
442.87	3323.56
443.05	3433.57
443.24	3356.33
443.43	3407.82
443.61	3393.78
443.80	3616.13
443.98	3363.35
444.17	3300.16
444.35	3548.25
444.54	3508.46
444.73	3506.12
444.91	3461.65
445.10	3475.70
445.28	3508.46
445.47	3487.40
445.65	3475.70
445.84	3478.04
446.02	3508.46
446.21	3588.04
446.39	3520.17
446.58	3613.79
446.77	3543.57
446.95	3463.99
447.14	3494.42
447.32	3550.59
447.51	3555.27
447.69	3452.29
447.88	3571.66
448.06	3705.07
448.25	3517.83
448.43	3611.45
448.62	3611.45
448.80	3648.90
448.99	3655.92
449.17	3655.92
449.36	3714.43
449.54	3808.05
449.73	3723.79
449.91	3831.46
450.10	3669.96
450.28	3791.67
450.46	3805.71
450.65	3936.78
450.83	3960.19
451.02	3824.44
451.20	3794.01
451.39	3899.33
451.57	3817.41
451.76	3721.45
451.94	3742.52
452.13	3908.69
452.31	3932.10
452.49	3784.65
452.68	3770.60
452.86	3955.51
453.05	3920.40
453.23	4021.04
453.42	3920.40
453.60	4002.32
453.78	4002.32
453.97	3950.82
454.15	4063.17
454.34	4135.73
454.52	4140.41
454.70	4140.41
454.89	4259.78
455.07	4095.94
455.26	3971.89
455.44	4119.34
455.62	4077.21
455.81	4266.80
455.99	4245.73
456.17	4208.28
456.36	4241.05
456.54	4311.27
456.73	4306.59
456.91	4372.12
457.09	4505.53
457.28	4430.63
457.46	4313.61
457.64	4533.62
457.83	4430.63
458.01	4402.55
458.19	4538.30
458.38	4575.75
458.56	4631.92
458.74	4554.68
458.93	4475.10
459.11	4496.17
459.29	4461.06
459.48	4648.30
459.66	4587.45
459.84	4587.45
460.03	4617.88
460.21	4870.65
460.39	4582.77
460.57	4723.20
460.76	4540.64
460.94	4711.50
461.12	4720.86
461.31	4685.75
461.49	4627.24
461.67	4690.43
461.85	4758.31
462.04	4858.95
462.22	4983.00
462.40	4788.74
462.59	5006.41
462.77	4807.46
462.95	4992.36
463.13	4774.69
463.32	4908.10
463.50	4863.63
463.68	5107.05
463.86	4945.55
464.05	4870.65
464.23	4983.00
464.41	5076.62
464.59	4858.95
464.78	5069.60
464.96	4877.68
465.14	5020.45
465.32	5027.47
465.50	5151.52
465.69	5188.97
465.87	5186.63
466.05	5153.86
466.23	5060.24
466.41	5249.82
466.60	5195.99
466.78	5008.75
466.96	5102.37
467.14	5177.26
467.32	5219.39
467.51	5146.84
467.69	5207.69
467.87	5177.26
468.05	5156.20
468.23	5261.52
468.41	5165.56
468.60	5252.16
468.78	5432.38
468.96	5235.78
469.14	5334.08
469.32	5446.43
469.50	5217.05
469.69	5472.17
469.87	5579.84
470.05	5577.50
470.23	5434.72
470.41	5530.69
470.59	5460.47
470.77	5530.69
470.95	5570.48
471.14	5486.22
471.32	5572.82
471.50	5921.56
471.68	5738.99
471.86	5582.18
472.04	5975.39
472.22	5893.47
472.40	5982.41
472.58	5856.02
472.77	5839.64
472.95	5895.81
473.13	6232.85
473.31	6061.99
473.49	5935.60
473.67	5940.28
473.85	5977.73
474.03	6069.01
474.21	6129.86
474.39	6160.29
474.57	6167.31
474.75	6363.92
474.93	6466.90
475.12	6207.10
475.30	6122.84
475.48	6218.80
475.66	6523.07
475.84	6448.18
476.02	6452.86
476.20	6464.56
476.38	6560.52
476.56	6602.65
476.74	6656.48
476.92	6569.88
477.10	6778.19
477.28	6801.60
477.46	6984.16
477.64	7005.22
477.82	6897.56
478.00	7049.69
478.18	7133.95
478.36	7262.68
478.54	7176.08
478.72	7070.76
478.90	7335.24
479.08	7318.86
479.26	7674.62
479.44	7466.31
479.62	7398.43
479.80	7501.42
479.98	7545.89
480.16	7744.83
480.34	7747.17
480.52	7726.11
480.70	7929.74
480.88	7941.44
481.06	7721.43
481.24	7995.27
481.41	7936.76
481.59	8065.49
481.77	8243.37
481.95	8304.22
482.13	8222.30
482.31	8266.77
482.49	8266.77
482.67	8510.19
482.85	8491.46
483.03	8718.50
483.21	8716.16
483.39	8924.46
483.57	8779.35
483.74	8908.08
483.92	8894.04
484.10	8856.59
484.28	9198.31
484.46	9282.56
484.64	9444.06
484.82	9291.93
485.00	9310.65
485.18	9320.01
485.35	9533.00
485.53	9701.52
485.71	9647.69
485.89	9734.29
486.07	9813.87
486.25	9760.03
486.43	9961.32
486.61	10080.69
486.78	10148.56
486.96	10204.74
487.14	10244.52
487.32	10195.37
487.50	10326.44
487.68	10555.82
487.85	10609.65
488.03	10789.87
488.21	10747.74
488.39	10799.23
488.57	11030.94
488.75	10913.92
488.92	11250.96
489.10	11255.64
489.28	11265.00
489.46	11349.26
489.64	11314.15
489.81	11590.33
489.99	11545.86
490.17	11548.20
490.35	11852.47
490.53	11777.58
490.70	11791.62
490.88	11850.13
491.06	12098.23
491.24	12072.48
491.41	12128.66
491.59	12269.09
491.77	12210.57
491.95	12664.64
492.13	12287.81
492.30	12615.49
492.48	12442.29
492.66	12681.02
492.84	12727.83
493.01	13064.87
493.19	13149.13
493.37	12905.71
493.54	13231.05
493.72	13099.98
493.90	13095.30
494.08	13235.73
494.25	13678.09
494.43	13476.80
494.61	13675.75
494.79	13715.54
494.96	13741.29
495.14	13797.46
495.32	13760.01
495.49	13942.57
495.67	14221.10
495.85	14033.85
496.02	14083.00
496.20	14305.35
496.38	14134.50
496.55	14347.48
496.73	14455.15
496.91	14710.27
497.09	15047.30
497.26	14785.16
497.44	14518.34
497.62	14827.29
497.79	14906.87
497.97	14745.38
498.14	15328.17
498.32	15360.94
498.50	15255.61
498.67	15234.55
498.85	15183.06
499.03	15475.62
499.20	15431.15
499.38	15459.24
499.56	15672.23
499.73	15627.76
499.91	15758.83
500.08	15611.37
500.26	15459.24
500.44	15676.91
500.61	15784.57
500.79	15868.83
500.97	16233.96
501.14	16313.53
501.32	16491.41
501.49	15763.51
501.67	16266.72
501.84	16142.67
502.02	16428.22
502.20	16416.52
502.37	16629.51
502.55	16650.57
502.72	16482.05
502.90	16535.88
503.07	16498.44
503.25	16638.87
503.43	16711.42
503.60	16989.95
503.78	16980.59
503.95	16842.50
504.13	17195.92
504.30	17025.06
504.48	17025.06
504.65	17336.35
504.83	17137.40
505.01	17455.72
505.18	17277.83
505.36	17626.57
505.53	17266.13
505.71	17334.01
505.88	17781.05
506.06	17504.87
506.23	17582.10
506.41	17701.47
506.58	17722.54
506.76	17694.45
506.93	17891.06
507.11	17949.57
507.28	18082.98
507.46	18024.47
507.63	18118.09
507.81	18160.22
507.98	18277.24
508.16	18267.88
508.33	18539.38
508.50	18623.64
508.68	18506.62
508.85	18689.18
509.03	18422.36
509.20	18590.88
509.38	18813.23
509.55	18787.48
509.73	18824.93
509.90	18862.38
510.08	19131.54
510.25	19152.60
510.42	19110.47
510.60	19115.16
510.77	19073.03
510.95	19173.67
511.12	19161.97
511.30	19433.47
511.47	19304.74
511.64	19379.64
511.82	19445.17
511.99	19307.08
512.17	19592.62
512.34	19857.10
512.51	19721.35
512.69	19499.00
512.86	19655.82
513.04	19775.19
513.21	20196.48
513.38	19878.17
513.56	20168.40
513.73	19981.15
513.90	20023.28
514.08	19894.55
514.25	19964.77
514.43	20084.14
514.60	19999.88
514.77	20606.08
514.95	20615.44
515.12	20376.70
515.29	20107.54
515.47	20563.95
515.64	20664.59
515.81	20498.41
515.99	20819.07
516.16	20879.92
516.33	20540.54
516.51	21106.95
516.68	20868.22
516.85	20545.22
517.03	20776.94
517.20	21226.32
517.37	20858.85
517.54	20926.73
517.72	21027.37
517.89	20940.77
518.06	21310.58
518.24	21116.31
518.41	21146.74
518.58	21446.33
518.75	21319.94
518.93	21528.25
519.10	21488.46
519.27	21523.57
519.45	21649.96
519.62	21724.85
519.79	21420.58
519.96	21642.93
520.14	21942.52
520.31	21664.00
520.48	21516.54
520.65	21493.14
520.83	21928.48
521.00	22022.10
521.17	22211.68
521.34	21736.56
521.52	22010.40
521.69	22375.52
521.86	22263.18
522.03	22504.25
522.20	22307.65
522.38	22504.25
522.55	22235.09
522.72	22586.17
522.89	22391.91
523.07	22930.23
523.24	22871.72
523.41	22740.64
523.58	22569.79
523.75	22548.72
523.92	22869.37
524.10	22766.39
524.27	22911.50
524.44	23276.63
524.61	23426.42
524.78	23438.12
524.96	22909.16
525.13	23194.71
525.30	22934.91
525.47	23243.86
525.64	22707.88
525.81	23187.69
525.98	23396.00
526.16	23077.68
526.33	23805.59
526.50	23480.25
526.67	23426.42
526.84	23414.72
527.01	23388.97
527.18	23744.73
527.36	23665.16
527.53	23522.38
527.70	24088.79
527.87	23634.73
528.04	23880.49
528.21	23864.10
528.38	23913.25
528.55	24350.93
528.72	23850.06
528.89	23840.70
529.07	24077.09
529.24	24116.88
529.41	24098.16
529.58	24315.83
529.75	24182.42
529.92	24545.20
530.09	24254.97
530.26	24308.80
530.43	24472.64
530.60	24273.70
530.77	24121.56
530.94	24463.28
531.11	24603.71
531.28	24339.23
531.46	24386.04
531.63	24570.94
531.80	24524.13
531.97	24711.38
532.14	24912.66
532.31	24737.12
532.48	24673.93
532.65	24833.08
532.82	24896.28
532.99	24982.88
533.16	25006.28
533.33	24936.07
533.50	25523.54
533.67	25336.30
533.84	24893.94
534.01	24905.64
534.18	24912.66
534.35	24959.47
534.52	24847.13
534.69	25139.69
534.86	25350.34
535.03	25603.12
535.20	25221.61
535.37	25343.32
535.54	25221.61
535.71	24996.92
535.88	25284.81
536.05	25322.26
536.22	25572.69
536.38	25628.87
536.55	25373.75
536.72	25373.75
536.89	25792.70
537.06	25502.48
537.23	25874.62
537.40	25944.84
537.57	25589.08
537.74	25727.17
537.91	26164.85
538.08	26331.03
538.25	25905.05
538.42	26050.16
538.59	26221.02
538.75	25975.27
538.92	25804.41
539.09	26230.38
539.26	26139.10
539.43	26239.75
539.60	26047.82
539.77	26237.41
539.94	26590.83
540.11	26506.57
540.28	26122.72
540.44	26024.42
540.61	26101.65
540.78	26113.36
540.95	26424.65
541.12	26316.98
541.29	26113.36
541.46	26438.69
541.62	26401.24
541.79	26787.43
541.96	26150.81
542.13	26536.99
542.30	26590.83
542.47	26848.29
542.63	26586.15
542.80	27077.66
542.97	27047.23
543.14	27103.40
543.31	27119.79
543.48	26867.01
543.64	27250.86
543.81	26984.04
543.98	26977.01
544.15	27475.55
544.32	27124.47
544.48	27557.47
544.65	26967.65
544.82	27264.90
544.99	27110.43
545.16	27786.84
545.32	27309.37
545.49	27351.50
545.66	27716.62
545.83	28072.39
546.00	27653.43
546.16	27613.64
546.33	27417.04
546.50	27129.15
546.67	27590.24
546.83	27241.50
547.00	27571.51
547.17	27660.45
547.34	27777.48
547.50	27831.31
547.67	28070.04
547.84	27934.29
548.00	28079.41
548.17	27917.91
548.34	27828.97
548.51	27606.62
548.67	27915.57
548.84	28264.31
549.01	28119.20
549.18	27707.26
549.34	27938.97
549.51	27981.10
549.68	27915.57
549.84	28353.25
550.01	28229.20
550.18	28191.75
550.34	28304.10
550.51	28643.48
550.68	28659.86
550.84	27873.44
551.01	28687.95
551.18	28130.90
551.34	28072.39
551.51	28278.35
551.68	28697.31
551.84	28896.25
552.01	28709.01
552.18	28573.26
552.34	28545.17
552.51	28601.35
552.68	28456.23
552.84	28907.96
553.01	28734.76
553.18	28364.95
553.34	28709.01
553.51	29083.50
553.67	28657.52
553.84	29153.71
554.01	28914.98
554.17	28559.22
554.34	28683.27
554.51	28725.39
554.67	28704.33
554.84	28285.37
555.00	28809.65
555.17	28833.06
555.33	28933.70
555.50	29130.31
555.67	29450.96
555.83	29008.60
556.00	28957.11
556.16	29170.10
556.33	29305.85
556.50	29113.92
556.66	29163.08
556.83	28849.44
556.99	29373.72
557.16	29443.94
557.32	29331.59
557.49	29455.64
557.65	29125.63
557.82	29081.16
557.98	29392.45
558.15	29296.49
558.32	29558.63
558.48	29586.71
558.65	29355.00
558.81	29759.91
558.98	29228.61
559.14	29282.44
559.31	29432.24
559.47	29434.58
559.64	29757.57
559.80	29645.23
559.97	29490.75
560.13	29228.61
560.30	29479.05
560.46	29338.62
560.63	30033.75
560.79	29296.49
560.96	29535.22
561.12	29788.00
561.29	29603.10
561.45	29607.78
561.61	29397.13
561.78	29937.79
561.94	29841.83
562.11	29832.47
562.27	29593.73
562.44	29177.12
562.60	29703.74
562.77	29738.85
562.93	29764.59
563.10	29638.20
563.26	29755.23
563.42	29551.60
563.59	29869.92
563.75	29977.58
563.92	29928.43
564.08	29677.99
564.24	29755.23
564.41	30118.01
564.57	29287.12
564.74	29958.86
564.90	29783.32
565.07	30326.32
565.23	30099.29
565.39	30050.14
565.56	30256.11
565.72	30087.59
565.88	30040.78
566.05	29848.85
566.21	30192.91
566.38	30106.31
566.54	29858.21
566.70	30122.69
566.87	30068.86
567.03	30092.27
567.19	30293.55
567.36	30228.02
567.52	30183.55
567.68	30426.96
567.85	29949.50
568.01	30085.25
568.17	30199.93
568.34	30342.70
568.50	30352.07
568.66	30171.85
568.83	30618.89
568.99	30204.61
569.15	30244.40
569.32	30206.95
569.48	29883.96
569.64	30375.47
569.81	30366.11
569.97	30127.38
570.13	30396.54
570.30	30050.14
570.46	30293.55
570.62	29916.73
570.78	30384.83
570.95	30064.18
571.11	29986.94
571.27	29708.42
571.43	30143.76
571.60	30597.82
571.76	30450.37
571.92	30705.49
572.09	30607.19
572.25	30583.78
572.41	30185.89
572.57	30665.70
572.74	30438.67
572.90	30008.01
573.06	30260.79
573.22	30244.40
573.38	30239.72
573.55	30396.54
573.71	30490.16
573.87	30806.13
574.03	30433.99
574.20	30672.72
574.36	30597.82
574.52	30333.34
574.68	30541.65
574.84	30574.42
575.01	30590.80
575.17	30815.49
575.33	30551.01
575.49	30635.27
575.65	30785.07
575.82	30782.73
575.98	30190.57
576.14	30569.74
576.30	30426.96
576.46	30543.99
576.62	30766.34
576.79	30333.34
576.95	30300.58
577.11	30794.43
577.27	30869.33
577.43	30792.09
577.59	30506.54
577.75	30962.95
577.92	30363.77
578.08	30675.06
578.24	30492.50
578.40	30529.95
578.56	30979.33
578.72	30497.18
578.88	30986.35
579.04	31054.23
579.21	30600.16
579.37	30958.27
579.53	30602.50
579.69	30291.21
579.85	30551.01
580.01	30801.45
580.17	30361.43
580.33	30415.26
580.49	30576.76
580.65	31131.47
580.82	30733.57
580.98	30609.53
581.14	31014.44
581.30	30581.44
581.46	30448.03
581.62	30628.25
581.78	30487.82
581.94	31007.42
582.10	30707.83
582.26	30548.67
582.42	30731.23
582.58	30827.20
582.74	31122.10
582.90	31152.53
583.06	30801.45
583.22	30478.46
583.38	30696.13
583.54	30607.19
583.70	30536.97
583.86	30316.96
584.02	30733.57
584.18	31044.87
584.34	31180.62
584.50	31180.62
584.66	30787.41
584.82	30979.33
584.98	30754.64
585.14	30728.89
585.30	30527.61
585.46	30419.94
585.62	30452.71
585.78	31047.21
585.94	30333.34
586.10	30911.46
586.26	30768.68
586.42	31108.06
586.58	31096.36
586.74	30904.43
586.90	30546.33
587.06	30747.62
587.22	30813.15
587.38	30579.10
587.54	31014.44
587.70	31250.83
587.86	31077.63
588.02	30661.02
588.18	31606.59
588.34	31063.59
588.49	31182.96
588.65	31335.09
588.81	30810.81
588.97	31122.10
589.13	30618.89
589.29	30602.50
589.45	31274.24
589.61	31433.39
589.77	31222.75
589.93	31187.64
590.08	31178.28
590.24	31187.64
590.40	31159.55
590.56	30876.35
590.72	30955.93
590.88	30923.16
591.04	31414.67
591.20	31199.34
591.35	31454.46
591.51	31854.69
591.67	31452.12
591.83	31257.85
591.99	31096.36
592.15	31098.70
592.31	30946.56
592.46	31316.37
592.62	31030.82
592.78	30941.88
592.94	30885.71
593.10	30946.56
593.26	31395.95
593.41	31489.57
593.57	31321.05
593.73	31269.56
593.89	31655.75
594.05	31454.46
594.20	30991.03
594.36	31325.73
594.52	31122.10
594.68	31189.98
594.84	31192.32
594.99	31290.62
595.15	31477.86
595.31	31639.36
595.47	31564.46
595.62	31194.66
595.78	31278.92
595.94	31297.64
596.10	31330.41
596.25	31002.74
596.41	31314.03
596.57	31292.96
596.73	31461.48
596.88	31438.08
597.04	31620.64
597.20	31763.41
597.36	31445.10
597.51	31842.99
597.67	31199.34
597.83	31466.16
597.99	31393.61
598.14	31276.58
598.30	31173.60
598.46	31477.86
598.61	31246.15
598.77	31197.00
598.93	31580.85
599.09	31622.98
599.24	31592.55
599.40	31388.92
599.56	31688.51
599.71	31257.85
599.87	31435.74
600.03	31372.54
600.18	31211.04
600.34	31398.29
600.50	31758.73
600.65	31356.16
600.81	31812.56
600.97	31866.39
601.12	31676.81
601.28	31686.17
601.44	31702.56
601.59	31789.16
601.75	31562.12
601.91	31585.53
602.06	31409.99
602.22	31281.26
602.37	31096.36
602.53	31222.75
602.69	31433.39
602.84	31674.47
603.00	31859.37
603.16	31365.52
603.31	31278.92
603.47	31274.24
603.62	31189.98
603.78	31367.86
603.94	31274.24
604.09	31578.51
604.25	31632.34
604.40	31166.57
604.56	31531.70
604.71	31732.98
604.87	31536.38
605.03	31807.88
605.18	31763.41
605.34	31409.99
605.49	31590.21
605.65	31491.91
605.80	31236.79
605.96	31363.18
606.12	30885.71
606.27	31728.30
606.43	31079.97
606.58	31630.00
606.74	31290.62
606.89	31611.28
607.05	31363.18
607.20	31700.22
607.36	31346.79
607.51	31363.18
607.67	30888.05
607.82	30920.82
607.98	31379.56
608.13	31505.95
608.29	31257.85
608.44	31351.48
608.60	31688.51
608.75	31402.97
608.91	31309.35
609.06	31150.19
609.22	31473.18
609.37	30621.23
609.53	30991.03
609.68	31330.41
609.84	31346.79
609.99	30993.37
610.15	31161.89
610.30	31302.32
610.46	31129.12
610.61	31538.72
610.76	31503.61
610.92	31482.55
611.07	31367.86
611.23	31194.66
611.38	30866.98
611.54	31234.45
611.69	30913.80
611.84	31044.87
612.00	30902.09
612.15	30745.28
612.31	31180.62
612.46	30951.24
612.62	31021.46
612.77	31201.68
612.92	31288.28
613.08	30745.28
613.23	31475.52
613.39	30834.22
613.54	30642.29
613.69	31054.23
613.85	30852.94
614.00	31136.15
614.15	30834.22
614.31	31005.08
614.46	31150.19
614.62	30780.39
614.77	31068.27
614.92	31009.76
615.08	30483.14
615.23	31115.08
615.38	30857.62
615.54	30511.22
615.69	30483.14
615.84	30895.07
616.00	30518.25
616.15	30934.86
616.30	30705.49
616.46	30864.64
616.61	30387.18
616.76	31087.00
616.92	30806.13
617.07	30817.83
617.22	30761.66
617.37	30005.67
617.53	30462.07
617.68	30391.86
617.83	30677.40
617.99	30654.00
618.14	30602.50
618.29	30373.13
618.45	30642.29
618.60	30424.62
618.75	30293.55
618.90	30904.43
619.06	30799.11
619.21	30445.69
619.36	30478.46
619.51	30061.84
619.67	29633.52
619.82	30462.07
619.97	30249.08
620.12	30005.67
620.28	29914.39
620.43	30335.68
620.58	30459.73
620.73	30553.35
620.89	30347.39
621.04	30478.46
621.19	30501.86
621.34	30579.10
621.49	29804.38
621.65	30342.70
621.80	30225.68
621.95	29638.20
622.10	29795.02
622.25	30202.27
622.41	29926.09
622.56	29958.86
622.71	30045.46
622.86	30171.85
623.01	30265.47
623.16	29972.90
623.32	29982.26
623.47	30054.82
623.62	29989.28
623.77	29996.31
623.92	29926.09
624.07	29502.45
624.23	29858.21
624.38	30136.74
624.53	30155.46
624.68	29839.49
624.83	29851.19
624.98	30164.82
625.13	29996.31
625.29	29813.74
625.44	29935.45
625.59	29752.89
625.74	29429.90
625.89	29579.69
626.04	29479.05
626.19	29296.49
626.34	29450.96
626.49	29172.44
626.65	29483.73
626.80	29467.34
626.95	29102.22
627.10	29439.26
627.25	29436.92
627.40	29441.60
627.55	29406.49
627.70	29301.17
627.85	28954.77
628.00	29062.43
628.15	29357.34
628.30	29048.39
628.45	29661.61
628.60	29385.43
628.76	29120.95
628.91	29415.85
629.06	28992.22
629.21	29369.04
629.36	29490.75
629.51	29322.23
629.66	29287.12
629.81	29207.55
629.96	29249.67
630.11	29219.25
630.26	29127.97
630.41	28973.49
630.56	28912.64
630.71	28926.68
630.86	28954.77
631.01	29392.45
631.16	29347.98
631.31	28720.71
631.46	28940.72
631.61	28992.22
631.76	29036.69
631.91	28947.75
632.06	29034.35
632.21	28720.71
632.36	28851.78
632.51	28589.64
632.66	29167.76
632.81	28755.82
632.96	29289.46
633.10	28994.56
633.25	29195.84
633.40	28638.80
633.55	28788.59
633.70	28577.94
633.85	28547.51
634.00	28776.89
634.15	28734.76
634.30	28624.75
634.45	28634.11
634.60	28608.37
634.75	28877.53
634.90	28528.79
635.05	29008.60
635.19	28676.24
635.34	28842.42
635.49	28697.31
635.64	28826.04
635.79	28535.81
635.94	28491.34
636.09	28547.51
636.24	28830.72
636.39	28301.76
636.53	28442.19
636.68	28294.74
636.83	28065.36
636.98	28662.20
637.13	28184.73
637.28	28503.04
637.43	28573.26
637.57	28589.64
637.72	28388.36
637.87	28414.10
638.02	28325.16
638.17	28404.74
638.32	28226.86
638.46	27936.63
638.61	28032.60
638.76	27756.41
638.91	28173.03
639.06	28023.23
639.20	28194.09
639.35	28102.81
639.50	27838.33
639.65	28304.10
639.80	27964.72
639.94	28020.89
640.09	28458.57
640.24	28107.49
640.39	27711.94
640.54	27683.86
640.68	27978.76
640.83	27594.92
640.98	27470.87
641.13	27522.36
641.27	27978.76
641.42	28006.85
641.57	27981.10
641.72	27370.22
641.86	27901.53
642.01	27580.87
642.16	27824.29
642.31	27508.32
642.45	27749.39
642.60	27620.66
642.75	27321.07
642.90	27454.48
643.04	27466.19
643.19	27700.24
643.34	27384.27
643.48	27480.23
643.63	27517.68
643.78	27241.50
643.93	27707.26
644.07	27625.34
644.22	27866.42
644.37	27655.77
644.51	27524.70
644.66	27077.66
644.81	27576.19
644.95	27325.75
645.10	27442.78
645.25	27374.91
645.39	27377.25
645.54	27601.94
645.69	27197.02
645.83	27119.79
645.98	27058.93
646.13	27505.98
646.27	27487.25
646.42	27552.79
646.57	27278.94
646.71	27260.22
646.86	27056.59
647.00	27201.71
647.15	27000.42
647.30	27016.80
647.44	27030.85
647.59	27007.44
647.74	27285.97
647.88	26782.75
648.03	27124.47
648.17	27316.39
648.32	27281.28
648.47	27157.24
648.61	27236.81
648.76	27009.78
648.90	26895.10
649.05	26902.12
649.20	27044.89
649.34	26918.50
649.49	26614.23
649.63	27227.45
649.78	26359.11
649.92	26572.10
650.07	26962.97
650.21	26553.38
650.36	26768.71
650.51	26981.70
650.65	26981.70
650.80	26881.05
650.94	26913.82
651.09	26590.83
651.23	26803.82
651.38	26309.96
651.52	26434.01
651.67	26911.48
651.81	26565.08
651.96	27054.25
652.10	26494.86
652.25	26441.03
652.39	26831.90
652.54	26457.42
652.68	26590.83
652.83	26913.82
652.97	26696.15
653.12	26717.22
653.26	26499.55
653.41	26380.18
653.55	26211.66
653.70	26345.07
653.84	26455.08
653.99	26291.24
654.13	26586.15
654.27	26345.07
654.42	26663.38
654.56	26249.11
654.71	26471.46
654.85	26295.92
655.00	26518.27
655.14	26403.58
655.29	26363.79
655.43	26548.70
655.57	26274.85
655.72	26286.56
655.86	26001.01
656.01	26359.11
656.15	26089.95
656.30	26239.75
656.44	26036.12
656.58	26057.18
656.73	25654.61
656.87	25781.00
657.01	26338.05
657.16	26103.99
657.30	26080.59
657.45	26050.16
657.59	25942.50
657.73	25902.71
657.88	26333.37
658.02	25813.77
658.16	26001.01
658.31	25680.36
658.45	26008.03
658.60	25544.61
658.74	25881.64
658.88	25624.18
659.03	25621.84
659.17	25865.26
659.31	25809.09
659.46	25759.94
659.60	25692.06
659.74	25626.53
659.89	25448.64
660.03	25729.51
660.17	25521.20
660.32	25483.75
660.46	25362.04
660.60	25380.77
660.74	25326.94
660.89	25460.35
661.03	25336.30
661.17	25355.02
661.32	25050.75
661.46	25532.90
661.60	25221.61
661.74	25127.99
661.89	25507.16
662.03	25228.63
662.17	24931.39
662.31	25289.49
662.46	25137.35
662.60	25025.01
662.74	24900.96
662.88	24781.59
663.03	24769.89
663.17	24503.07
663.31	24676.27
663.45	24713.72
663.60	24599.03
663.74	24552.22
663.88	24648.18
664.02	24706.70
664.17	24753.51
664.31	24823.72
664.45	24776.91
664.59	24800.32
664.73	24423.49
664.88	24758.19
665.02	24423.49
665.16	24243.27
665.30	24315.83
665.44	24463.28
665.59	23768.14
665.73	24294.76
665.87	24023.26
666.01	24198.80
666.15	24400.08
666.29	24051.34
666.44	24203.48
666.58	24084.11
666.72	23899.21
666.86	24053.69
667.00	24233.91
667.14	23831.33
667.28	23840.70
667.43	24004.53
667.57	23702.61
667.71	23997.51
667.85	23716.65
667.99	23648.77
668.13	23672.18
668.27	23527.06
668.41	23868.78
668.56	23821.97
668.70	23721.33
668.84	23608.98
668.98	23491.96
669.12	23683.88
669.26	23653.45
669.40	23234.50
669.54	23002.78
669.68	23314.08
669.82	23293.01
669.96	23110.45
670.10	23180.67
670.25	23183.01
670.39	23145.56
670.53	23089.38
670.67	22981.72
670.81	22986.40
670.95	22941.93
671.09	22668.09
671.23	22958.31
671.37	23140.88
671.51	23049.60
671.65	22820.22
671.79	22813.20
671.93	22679.79
672.07	22661.07
672.21	22588.51
672.35	22728.94
672.49	22431.69
672.63	22427.01
672.77	22284.24
672.91	22541.70
673.05	22452.76
673.19	22422.33
673.33	22160.19
673.47	22291.26
673.61	22338.07
673.75	22686.81
673.89	22160.19
674.03	22218.71
674.17	22284.24
674.31	21741.24
674.45	22005.72
674.59	22026.78
674.73	22033.80
674.87	22094.66
675.01	21912.10
675.15	21610.17
675.29	21813.79
675.43	21511.86
675.56	21848.90
675.70	21710.81
675.84	21818.47
675.98	21092.91
676.12	21759.96
676.26	21853.58
676.40	21535.27
676.54	21577.40
676.68	21319.94
676.82	20936.09
676.96	21062.48
677.10	21113.97
677.23	20915.03
677.37	20854.17
677.51	20798.00
677.65	20879.92
677.79	20758.21
677.93	20695.02
678.07	20772.25
678.21	20327.55
678.34	20301.81
678.48	20636.50
678.62	20655.23
678.76	20383.73
678.90	20374.36
679.04	20343.94
679.18	20472.67
679.31	20175.42
679.45	19906.26
679.59	20229.25
679.73	19676.88
679.87	19784.55
680.00	19630.07
680.14	19634.75
680.28	19545.81
680.42	19749.44
680.56	19604.33
680.70	19555.18
680.83	19723.69
680.97	19641.78
681.11	19342.19
681.25	19358.57
681.39	19475.60
681.52	19145.58
681.66	19372.61
681.80	18906.85
681.94	19290.70
682.07	19096.43
682.21	18934.93
682.35	18895.14
682.49	18920.89
682.62	18771.10
682.76	18759.39
682.90	18930.25
683.04	18799.18
683.17	18789.82
683.31	18609.60
683.45	18635.35
683.59	18457.46
683.72	18335.76
683.86	18345.12
684.00	18232.77
684.13	18207.03
684.27	17879.35
684.41	18097.02
684.55	17947.23
684.68	18029.15
684.82	17785.73
684.96	17902.76
685.09	17563.38
685.23	17500.19
685.37	17792.75
685.50	17921.48
685.64	17837.22
685.78	17565.72
685.91	17724.88
686.05	17619.55
686.19	17563.38
686.32	17762.33
686.46	17249.75
686.60	17214.64
686.73	17153.79
686.87	17076.55
687.01	17053.14
687.14	16746.53
687.28	16992.29
687.42	16702.06
687.55	16769.94
687.69	16629.51
687.82	16542.91
687.96	16531.20
688.10	16554.61
688.23	16496.10
688.37	16695.04
688.50	16769.94
688.64	16493.76
688.78	16863.56
688.91	16175.44
689.05	16058.42
689.18	16229.27
689.32	15873.51
689.46	16051.39
689.59	16217.57
689.73	15887.56
689.86	15854.79
690.00	15854.79
690.13	15852.45
690.27	15672.23
690.41	15822.02
690.54	15679.25
690.68	15840.75
690.81	15555.20
690.95	15810.32
691.08	15826.70
691.22	15672.23
691.35	15293.06
691.49	15545.84
691.62	15241.57
691.76	15131.56
691.89	15019.22
692.03	14794.53
692.16	14892.83
692.30	14881.13
692.43	14785.16
692.57	14750.06
692.70	14899.85
692.84	14792.19
692.97	14558.13
693.11	14490.26
693.24	14757.08
693.38	14516.00
693.51	14317.06
693.65	14300.67
693.78	14410.68
693.92	14626.01
694.05	14303.01
694.19	14061.94
694.32	14122.79
694.45	14221.10
694.59	13832.57
694.72	14075.98
694.86	13762.35
694.99	13694.47
695.13	13483.83
695.26	13778.73
695.39	13444.04
695.53	13909.80
695.66	13696.82
695.80	13448.72
695.93	13446.38
696.07	13415.95
696.20	13324.67
696.33	13729.58
696.47	13429.99
696.60	13308.29
696.73	13060.19
696.87	13172.54
697.00	13060.19
697.14	13048.49
697.27	12690.38
697.40	12702.09
697.54	12678.68
697.67	12826.14
697.80	12652.94
697.94	12751.24
698.07	12547.61
698.21	12425.90
698.34	12678.68
698.47	12442.29
698.61	12468.03
698.74	12664.64
698.87	12381.43
699.01	12318.24
699.14	12297.17
699.27	12198.87
699.40	12123.98
699.54	12226.96
699.67	12133.34
699.80	12121.63
699.94	11583.31
700.07	11831.41
700.20	11934.39
700.34	11868.86
700.47	11686.29
700.60	11658.21
700.73	11906.31
700.87	11676.93
701.00	11391.39
701.13	11524.80
701.26	11513.10
701.40	11438.20
701.53	11634.80
701.66	11452.24
701.79	11346.92
701.93	11211.17
702.06	11157.33
702.19	11176.06
702.32	11234.57
702.46	11014.56
702.59	10815.62
702.72	10579.22
702.85	10766.46
702.99	10775.83
703.12	10771.15
703.25	10911.58
703.38	10719.65
703.51	10829.66
703.65	10808.59
703.78	10492.62
703.91	10532.41
704.04	10609.65
704.17	10717.31
704.31	10190.69
704.44	10499.64
704.57	10312.40
704.70	10333.47
704.83	10090.05
704.96	10068.98
705.10	9863.02
705.23	10164.95
>>>>>End Processed Spectral Data<<<<<
