SpectraSuite Data File
++++++++++++++++++++++++++++++++++++
Date: Fri Oct 18 13:57:56 GMT-05:00 2013
User: bianchi
Dark Spectrum Present: No
Reference Spectrum Present: No
Number of Sampled Component Spectra: 1
Spectrometers: USB2+H05261
Integration Time (usec): 50000 (USB2+H05261)
Spectra Averaged: 1 (USB2+H05261)
Boxcar Smoothing: 0 (USB2+H05261)
Correct for Electrical Dark: No (USB2+H05261)
Strobe/Lamp Enabled: No (USB2+H05261)
Correct for Detector Non-linearity: No (USB2+H05261)
Correct for Stray Light: No (USB2+H05261)
Number of Pixels in Processed Spectrum: 2048
>>>>>Begin Processed Spectral Data<<<<<
365.73	0.00
365.92	0.00
366.12	0.00
366.32	0.00
366.52	0.00
366.72	0.00
366.91	0.00
367.11	0.00
367.31	0.00
367.51	0.00
367.70	0.00
367.90	0.00
368.10	0.00
368.30	0.00
368.49	0.00
368.69	0.00
368.89	0.00
369.09	0.00
369.28	0.00
369.48	0.00
369.68	0.00
369.87	0.00
370.07	0.00
370.27	0.00
370.47	0.00
370.66	25.75
370.86	98.30
371.06	187.24
371.25	175.54
371.45	168.52
371.65	184.90
371.84	133.41
372.04	173.20
372.24	128.73
372.44	105.32
372.63	269.16
372.83	142.77
373.03	161.50
373.22	198.95
373.42	189.58
373.62	241.08
373.81	252.78
374.01	170.86
374.21	241.08
374.40	257.46
374.60	227.03
374.79	205.97
374.99	266.82
375.19	238.73
375.38	194.26
375.58	273.84
375.78	290.23
375.97	255.12
376.17	205.97
376.37	222.35
376.56	287.89
376.76	297.25
376.95	257.46
377.15	276.18
377.35	245.76
377.54	280.86
377.74	325.33
377.93	264.48
378.13	334.70
378.33	285.55
378.52	301.93
378.72	262.14
378.91	236.39
379.11	332.36
379.31	250.44
379.50	259.80
379.70	334.70
379.89	339.38
380.09	339.38
380.28	320.65
380.48	311.29
380.68	325.33
380.87	318.31
381.07	374.49
381.26	294.91
381.46	390.87
381.65	236.39
381.85	337.04
382.04	425.98
382.24	390.87
382.43	353.42
382.63	283.20
382.83	421.30
383.02	388.53
383.22	334.70
383.41	283.20
383.61	390.87
383.80	330.02
384.00	407.25
384.19	386.19
384.39	358.10
384.58	322.99
384.78	360.44
384.97	400.23
385.17	327.68
385.36	390.87
385.56	360.44
385.75	383.85
385.95	367.46
386.14	367.46
386.34	411.93
386.53	332.36
386.72	421.30
386.92	475.13
387.11	411.93
387.31	428.32
387.50	425.98
387.70	388.53
387.89	393.21
388.09	421.30
388.28	383.85
388.48	482.15
388.67	489.17
388.86	477.47
389.06	535.98
389.25	411.93
389.45	447.04
389.64	514.92
389.84	486.83
390.03	503.22
390.22	479.81
390.42	468.11
390.61	484.49
390.81	418.96
391.00	578.11
391.19	550.03
391.39	449.38
391.58	498.53
391.78	547.69
391.97	559.39
392.16	603.86
392.36	557.05
392.55	566.41
392.75	566.41
392.94	573.43
393.13	575.77
393.33	575.77
393.52	500.87
393.71	596.84
393.91	589.82
394.10	552.37
394.29	587.47
394.49	552.37
394.68	615.56
394.88	531.30
395.07	578.11
395.26	575.77
395.46	695.14
395.65	645.99
395.84	594.50
396.04	638.97
396.23	585.13
396.42	622.58
396.62	606.20
396.81	676.41
397.00	613.22
397.19	676.41
397.39	720.88
397.58	802.80
397.77	681.10
397.97	702.16
398.16	713.86
398.35	711.52
398.55	720.88
398.74	688.12
398.93	748.97
399.12	711.52
399.32	667.05
399.51	741.95
399.70	734.93
399.90	713.86
400.09	791.10
400.28	746.63
400.47	730.25
400.67	734.93
400.86	777.06
401.05	802.80
401.24	823.87
401.44	772.38
401.63	856.64
401.82	814.51
402.01	786.42
402.21	870.68
402.40	858.98
402.59	880.04
402.78	884.72
402.97	866.00
403.17	901.11
403.36	945.58
403.55	837.91
403.74	870.68
403.93	863.66
404.13	917.49
404.32	947.92
404.51	910.47
404.70	992.39
404.89	959.62
405.09	926.85
405.28	936.21
405.47	922.17
405.66	1015.79
405.85	954.94
406.05	1067.28
406.24	987.71
406.43	1025.15
406.62	1001.75
406.81	966.64
407.00	1062.60
407.20	1132.82
407.39	1100.05
407.58	1053.24
407.77	1104.73
407.96	1071.97
408.15	1160.91
408.34	1109.41
408.54	1060.26
408.73	1144.52
408.92	1125.80
409.11	1137.50
409.30	1226.44
409.49	1050.90
409.68	1160.91
409.87	1179.63
410.07	1289.64
410.26	1219.42
410.45	1214.74
410.64	1261.55
410.83	1207.72
411.02	1196.01
411.21	1299.00
411.40	1217.08
411.59	1315.38
411.78	1249.85
411.98	1294.32
412.17	1221.76
412.36	1282.61
412.55	1355.17
412.74	1376.24
412.93	1317.72
413.12	1352.83
413.31	1399.64
413.50	1441.77
413.69	1563.48
413.88	1502.62
414.07	1352.83
414.26	1490.92
414.45	1504.96
414.64	1596.25
414.83	1509.65
415.02	1472.20
415.22	1540.07
415.41	1596.25
415.60	1652.42
415.79	1547.09
415.98	1605.61
416.17	1596.25
416.36	1614.97
416.55	1659.44
416.74	1673.48
416.93	1685.19
417.12	1746.04
417.31	1750.72
417.50	1687.53
417.69	1701.57
417.88	1771.79
418.07	1858.39
418.26	1795.19
418.45	1806.89
418.64	1900.52
418.83	1818.60
419.02	1764.76
419.21	1781.15
419.39	1837.32
419.58	1825.62
419.77	1863.07
419.96	1947.33
420.15	1940.30
420.34	1825.62
420.53	1902.86
420.72	2064.35
420.91	1916.90
421.10	1902.86
421.29	2043.29
421.48	1935.62
421.67	2052.65
421.86	1944.99
422.05	2038.61
422.24	1975.41
422.43	2062.01
422.61	2066.69
422.80	2076.06
422.99	2064.35
423.18	2127.55
423.37	2115.84
423.56	2062.01
423.75	2062.01
423.94	2010.52
424.13	1863.07
424.32	2127.55
424.50	2026.90
424.69	2092.44
424.88	2118.18
425.07	2036.27
425.26	2169.68
425.45	2040.95
425.64	2099.46
425.83	2057.33
426.01	2139.25
426.20	2078.40
426.39	2087.76
426.58	2029.24
426.77	2094.78
426.96	2148.61
427.15	2169.68
427.33	2129.89
427.52	2183.72
427.71	2186.06
427.90	2115.84
428.09	2265.64
428.28	2190.74
428.46	2214.15
428.65	2289.04
428.84	2356.92
429.03	2256.28
429.22	2176.70
429.40	2333.51
429.59	2326.49
429.78	2221.17
429.97	2188.40
430.16	2244.57
430.34	2284.36
430.53	2361.60
430.72	2335.85
430.91	2354.58
431.10	2377.98
431.28	2459.90
431.47	2403.73
431.66	2347.56
431.85	2286.70
432.03	2541.82
432.22	2473.95
432.41	2619.06
432.60	2583.95
432.79	2504.37
432.97	2513.74
433.16	2560.55
433.35	2586.29
433.54	2532.46
433.72	2572.25
433.91	2516.08
434.10	2434.16
434.28	2504.37
434.47	2593.31
434.66	2562.89
434.85	2768.85
435.03	2672.89
435.22	2686.94
435.41	2731.41
435.59	2712.68
435.78	2640.12
435.97	2658.85
436.16	2658.85
436.34	2757.15
436.53	2637.78
436.72	2799.28
436.90	2796.94
437.09	2829.71
437.28	2736.09
437.46	2799.28
437.65	2803.96
437.84	2759.49
438.02	2630.76
438.21	2885.88
438.40	2829.71
438.58	2913.97
438.77	2888.22
438.96	3038.02
439.14	3042.70
439.33	3002.91
439.52	3007.59
439.70	2953.76
439.89	2932.69
440.08	2977.16
440.26	3042.70
440.45	3098.87
440.63	3192.49
440.82	3302.50
441.01	3164.40
441.19	3133.98
441.38	3281.43
441.57	3276.75
441.75	3323.56
441.94	3332.92
442.12	3342.28
442.31	3353.99
442.50	3309.52
442.68	3307.18
442.87	3377.39
443.05	3485.06
443.24	3414.84
443.43	3400.80
443.61	3382.07
443.80	3613.79
443.98	3548.25
444.17	3379.73
444.35	3442.93
444.54	3482.72
444.73	3604.42
444.91	3435.91
445.10	3454.63
445.28	3454.63
445.47	3496.76
445.65	3471.01
445.84	3499.10
446.02	3463.99
446.21	3494.42
446.39	3592.72
446.58	3669.96
446.77	3557.61
446.95	3431.23
447.14	3564.64
447.32	3574.00
447.51	3550.59
447.69	3534.21
447.88	3604.42
448.06	3693.37
448.25	3531.87
448.43	3613.79
448.62	3627.83
448.80	3679.32
448.99	3503.78
449.17	3665.28
449.36	3714.43
449.54	3651.24
449.73	3801.03
449.91	3803.37
450.10	3772.94
450.28	3810.39
450.46	3756.56
450.65	3662.94
450.83	3733.15
451.02	3763.58
451.20	3754.22
451.39	3932.10
451.57	3819.75
451.76	3747.20
451.94	3978.91
452.13	3988.27
452.31	3962.53
452.49	3904.01
452.68	4049.13
452.86	3831.46
453.05	3950.82
453.23	4044.45
453.42	4002.32
453.60	3861.88
453.78	4049.13
453.97	3964.87
454.15	4004.66
454.34	3969.55
454.52	4142.75
454.70	4109.98
454.89	3964.87
455.07	3990.61
455.26	4084.23
455.44	4299.56
455.62	4131.05
455.81	4142.75
455.99	4105.30
456.17	4245.73
456.36	4311.27
456.54	4325.31
456.73	4196.58
456.91	4376.80
457.09	4386.16
457.28	4521.92
457.46	4170.83
457.64	4402.55
457.83	4482.13
458.01	4311.27
458.19	4376.80
458.38	4386.16
458.56	4416.59
458.74	4662.35
458.93	4517.23
459.11	4559.36
459.29	4358.08
459.48	4571.07
459.66	4662.35
459.84	4655.33
460.03	4645.96
460.21	4652.98
460.39	4601.49
460.57	4685.75
460.76	4840.23
460.94	4739.58
461.12	4631.92
461.31	4681.07
461.49	4589.79
461.67	4718.52
461.85	4875.34
462.04	4805.12
462.22	5217.05
462.40	4823.84
462.59	4737.24
462.77	4880.02
462.95	4823.84
463.13	4915.12
463.32	4908.10
463.50	4947.89
463.68	5064.92
463.86	4865.97
464.05	4873.00
464.23	4936.19
464.41	5050.88
464.59	4746.61
464.78	4945.55
464.96	4959.60
465.14	5020.45
465.32	4997.04
465.50	4950.23
465.69	5067.26
465.87	5104.71
466.05	5095.35
466.23	5088.32
466.41	5123.43
466.60	5249.82
466.78	5224.08
466.96	5156.20
467.14	5125.77
467.32	5268.55
467.51	5298.97
467.69	5111.73
467.87	5137.48
468.05	5366.85
468.23	5284.93
468.41	5228.76
468.60	5249.82
468.78	5296.63
468.96	5359.83
469.14	5437.06
469.32	5472.17
469.50	5308.34
469.69	5418.34
469.87	5614.95
470.05	5472.17
470.23	5497.92
470.41	5427.70
470.59	5500.26
470.77	5439.40
470.95	5504.94
471.14	5547.07
471.32	5708.57
471.50	5832.62
471.68	5755.38
471.86	5755.38
472.04	5823.25
472.22	5792.83
472.40	5664.10
472.58	5788.14
472.77	6045.60
472.95	5949.64
473.13	6150.93
473.31	6076.03
473.49	5872.40
473.67	6080.71
473.85	5966.03
474.03	6209.44
474.21	6118.16
474.39	6188.38
474.57	6057.31
474.75	6286.68
474.93	6328.81
475.12	6207.10
475.30	6246.89
475.48	6387.32
475.66	6392.00
475.84	6235.19
476.02	6289.02
476.20	6361.58
476.38	6567.54
476.56	6644.78
476.74	6689.25
476.92	6593.29
477.10	6696.27
477.28	6766.49
477.46	6949.05
477.64	6817.98
477.82	7199.49
478.00	7155.02
478.18	7126.93
478.36	7124.59
478.54	6993.52
478.72	7185.44
478.90	7171.40
479.08	7262.68
479.26	7229.91
479.44	7468.65
479.62	7445.24
479.80	7695.68
479.98	7545.89
480.16	7627.81
480.34	7625.47
480.52	7915.69
480.70	7885.26
480.88	7784.62
481.06	7733.13
481.24	7763.56
481.41	7906.33
481.59	8224.64
481.77	8241.03
481.95	8351.03
482.13	8327.63
482.31	8353.37
482.49	8234.00
482.67	8482.10
482.85	8631.90
483.03	8606.15
483.21	8704.45
483.39	8744.24
483.57	8842.54
483.74	9029.79
483.92	9032.13
484.10	8821.48
484.28	8896.38
484.46	9210.01
484.64	9301.29
484.82	9015.74
485.00	9240.44
485.18	9240.44
485.35	9767.06
485.53	9547.05
485.71	9582.15
485.89	10015.15
486.07	10036.22
486.25	9942.60
486.43	9921.53
486.61	9961.32
486.78	9998.77
486.96	10356.87
487.14	10399.00
487.32	10314.74
487.50	10375.59
487.68	10672.84
487.85	10452.83
488.03	10906.90
488.21	10621.35
488.39	10696.25
488.57	10932.64
488.75	10939.66
488.92	11147.97
489.10	11344.58
489.28	11169.04
489.46	11215.85
489.64	11091.80
489.81	11492.03
489.99	11667.57
490.17	11440.54
490.35	11520.12
490.53	11693.32
490.70	11964.82
490.88	11740.13
491.06	12018.65
491.24	11978.86
491.41	12189.51
491.59	12243.34
491.77	12353.35
491.95	12332.28
492.13	12496.12
492.30	12311.22
492.48	12767.62
492.66	12760.60
492.84	12648.26
493.01	12835.50
493.19	12833.16
493.37	12917.42
493.54	13076.57
493.72	12994.65
493.90	13116.36
494.08	13181.90
494.25	13249.77
494.43	13586.81
494.61	13399.57
494.79	13687.45
494.96	13607.87
495.14	13755.33
495.32	13804.48
495.49	14132.15
495.67	13858.31
495.85	14235.14
496.02	14281.95
496.20	14441.11
496.38	14188.33
496.55	14029.17
496.73	14501.96
496.91	14539.41
497.09	14604.94
497.26	14647.07
497.44	14658.78
497.62	14860.06
497.79	14895.17
497.97	14668.14
498.14	15091.77
498.32	15161.99
498.50	15295.40
498.67	15309.44
498.85	15157.31
499.03	15211.14
499.20	15218.16
499.38	15534.14
499.56	15396.04
499.73	15679.25
499.91	15627.76
500.08	15815.00
500.26	15733.08
500.44	15969.48
500.61	15693.29
500.79	15686.27
500.97	15822.02
501.14	16325.24
501.32	16175.44
501.49	16137.99
501.67	16149.70
501.84	16341.62
502.02	16168.42
502.20	16629.51
502.37	16596.74
502.55	16418.86
502.72	16664.61
502.90	16514.82
503.07	16556.95
503.25	16629.51
503.43	16709.08
503.60	16896.33
503.78	17011.01
503.95	16947.82
504.13	17193.58
504.30	17008.67
504.48	17013.35
504.65	17121.02
504.83	17198.26
505.01	17280.18
505.18	17057.82
505.36	17696.79
505.53	17397.20
505.71	17706.15
505.88	17516.57
506.06	17338.69
506.23	17834.88
506.41	17589.13
506.58	17900.42
506.76	17961.27
506.93	17987.02
507.11	17827.86
507.28	17898.08
507.46	18073.62
507.63	18038.51
507.81	18335.76
507.98	18185.96
508.16	18054.89
508.33	18363.84
508.50	18270.22
508.68	18356.82
508.85	18497.25
509.03	18310.01
509.20	18518.32
509.38	18766.42
509.55	18963.02
509.73	18628.32
509.90	18700.88
510.08	18944.30
510.25	18621.30
510.42	18984.09
510.60	18867.06
510.77	18806.20
510.95	18960.68
511.12	18885.78
511.30	19005.15
511.47	19133.88
511.64	19374.95
511.82	19604.33
511.99	19655.82
512.17	19679.22
512.34	19337.51
512.51	19449.85
512.69	19681.56
512.86	19480.28
513.04	20133.29
513.21	19599.65
513.38	20168.40
513.56	20016.26
513.73	19538.79
513.90	20163.72
514.08	19875.83
514.25	20287.76
514.43	19969.45
514.60	20315.85
514.77	20231.59
514.95	20774.60
515.12	20081.80
515.29	20009.24
515.47	20184.78
515.64	20725.44
515.81	20386.07
515.99	20680.97
516.16	20692.68
516.33	20884.60
516.51	20926.73
516.68	20910.35
516.85	20664.59
517.03	20886.94
517.20	21055.46
517.37	20936.09
517.54	21399.52
517.72	20882.26
517.89	21167.80
518.06	20936.09
518.24	21420.58
518.41	21076.52
518.58	21125.68
518.75	21352.71
518.93	21516.54
519.10	21713.15
519.27	21490.80
519.45	21458.03
519.62	21556.33
519.79	21270.79
519.96	21640.59
520.14	21811.45
520.31	21724.85
520.48	21722.51
520.65	21774.00
520.83	21806.77
521.00	22139.13
521.17	22001.04
521.34	21788.05
521.52	22410.63
521.69	21708.47
521.86	22024.44
522.03	22286.58
522.20	22607.23
522.38	22621.28
522.55	22546.38
522.72	22616.60
522.89	22274.88
523.07	22785.12
523.24	22576.81
523.41	22345.09
523.58	22628.30
523.75	22714.90
523.92	22625.96
524.10	22806.18
524.27	22799.16
524.44	22951.29
524.61	23138.54
524.78	22843.63
524.96	22991.08
525.13	23185.35
525.30	23133.86
525.47	22883.42
525.64	23234.50
525.81	23019.17
525.98	23047.26
526.16	23513.02
526.33	23218.11
526.50	23669.84
526.67	23501.32
526.84	23206.41
527.01	23410.04
527.18	23583.24
527.36	23424.08
527.53	23810.27
527.70	24058.37
527.87	23718.99
528.04	23676.86
528.21	23768.14
528.38	23810.27
528.55	23681.54
528.72	23840.70
528.89	24006.87
529.07	23941.34
529.24	23908.57
529.41	24334.55
529.58	24112.20
529.75	23985.81
529.92	24376.68
530.09	24280.72
530.26	24292.42
530.43	24484.34
530.60	24257.31
530.77	24074.75
530.94	24395.40
531.11	24252.63
531.28	23953.04
531.46	24563.92
531.63	24474.98
531.80	24709.04
531.97	24610.73
532.14	24568.60
532.31	24971.18
532.48	24507.75
532.65	24671.59
532.82	24812.02
532.99	24922.02
533.16	25046.07
533.33	24563.92
533.50	24973.52
533.67	24957.13
533.84	24737.12
534.01	24861.17
534.18	24643.50
534.35	25184.16
534.52	24957.13
534.69	25750.57
534.86	25350.34
535.03	24961.81
535.20	25240.34
535.37	25434.60
535.54	25343.32
535.71	25156.08
535.88	25518.86
536.05	25523.54
536.22	25525.88
536.38	25565.67
536.55	25207.57
536.72	25486.09
536.89	25507.16
537.06	25270.76
537.23	25706.10
537.40	25750.57
537.57	25462.69
537.74	25888.67
537.91	25982.29
538.08	25898.03
538.25	26096.97
538.42	26368.48
538.59	26012.71
538.75	25720.15
538.92	26441.03
539.09	25848.88
539.26	25769.30
539.43	26059.52
539.60	26319.32
539.77	26199.96
539.94	26199.96
540.11	26096.97
540.28	26080.59
540.44	25930.80
540.61	25975.27
540.78	26242.09
540.95	26228.04
541.12	26448.05
541.29	26284.22
541.46	26349.75
541.62	26359.11
541.79	26382.52
541.96	26284.22
542.13	26291.24
542.30	26333.37
542.47	26473.80
542.63	26869.35
542.80	26635.30
542.97	27002.76
543.14	27023.83
543.31	26874.03
543.48	26642.32
543.64	27115.11
543.81	27321.07
543.98	27005.10
544.15	27157.24
544.32	27524.70
544.48	27358.52
544.65	27166.60
544.82	27126.81
544.99	27173.62
545.16	27019.14
545.32	27094.04
545.49	27700.24
545.66	27346.82
545.83	27515.34
546.00	27695.56
546.16	27281.28
546.33	26876.37
546.50	27002.76
546.67	27489.59
546.83	27122.13
547.00	27414.69
547.17	27709.60
547.34	27796.20
547.50	27623.00
547.67	28297.08
547.84	27335.12
548.00	27637.05
548.17	27740.03
548.34	27583.21
548.51	27821.95
548.67	28060.68
548.84	28205.80
549.01	28086.43
549.18	27620.66
549.34	28280.69
549.51	28273.67
549.68	27974.08
549.84	28194.09
550.01	28046.64
550.18	27910.89
550.34	28140.26
550.51	28411.76
550.68	28212.82
550.84	28056.00
551.01	28332.18
551.18	28428.15
551.34	28039.62
551.51	28350.91
551.68	28205.80
551.84	28521.77
552.01	28362.61
552.18	28535.81
552.34	28613.05
552.51	28322.82
552.68	28596.67
552.84	28699.65
553.01	28865.83
553.18	28170.69
553.34	28758.16
553.51	28676.24
553.67	28575.60
553.84	28933.70
554.01	28804.97
554.17	28601.35
554.34	28524.11
554.51	28341.55
554.67	28346.23
554.84	28800.29
555.00	28556.88
555.17	28481.98
555.33	29170.10
555.50	28760.50
555.67	28699.65
555.83	28875.19
556.00	29298.83
556.16	29092.86
556.33	29020.30
556.50	29127.97
556.66	28879.87
556.83	29029.66
556.99	29336.27
557.16	29469.69
557.32	28945.41
557.49	29584.37
557.65	29053.07
557.82	29191.16
557.98	29200.52
558.15	29144.35
558.32	29642.88
558.48	28788.59
558.65	29783.32
558.81	29160.73
558.98	29024.98
559.14	29301.17
559.31	29560.97
559.47	29046.05
559.64	29230.95
559.80	29523.52
559.97	29380.74
560.13	29261.38
560.30	29706.08
560.46	29177.12
560.63	29539.90
560.79	29493.09
560.96	29748.21
561.12	29362.02
561.29	29301.17
561.45	29507.13
561.61	29680.33
561.78	29818.42
561.94	29752.89
562.11	29912.05
562.27	29830.13
562.44	29979.92
562.60	29619.48
562.77	29549.26
562.93	29163.08
563.10	29806.72
563.26	29757.57
563.42	29989.28
563.59	29795.02
563.75	29773.95
563.92	29947.15
564.08	29670.97
564.24	29776.30
564.41	29802.04
564.57	29488.41
564.74	29788.00
564.90	29883.96
565.07	30043.12
565.23	29912.05
565.39	29979.92
565.56	30136.74
565.72	29715.44
565.88	30295.89
566.05	29738.85
566.21	30052.48
566.38	29958.86
566.54	29441.60
566.70	30213.98
566.87	30099.29
567.03	29888.64
567.19	30691.44
567.36	29942.47
567.52	29846.51
567.68	30347.39
567.85	30171.85
568.01	30188.23
568.17	30118.01
568.34	30122.69
568.50	30099.29
568.66	30129.72
568.83	30412.92
568.99	29975.24
569.15	30352.07
569.32	29921.41
569.48	29914.39
569.64	30272.49
569.81	30122.69
569.97	30188.23
570.13	30373.13
570.30	29848.85
570.46	30244.40
570.62	30174.19
570.78	30335.68
570.95	29809.06
571.11	30183.55
571.27	30010.35
571.43	30099.29
571.60	30410.58
571.76	30148.44
571.92	30347.39
572.09	30567.40
572.25	29844.17
572.41	30127.38
572.57	30213.98
572.74	30771.02
572.90	30457.39
573.06	30036.09
573.22	30033.75
573.38	30576.76
573.55	30522.93
573.71	30572.08
573.87	30291.21
574.03	30445.69
574.20	30696.13
574.36	30501.86
574.52	30249.08
574.68	30852.94
574.84	30424.62
575.01	30672.72
575.17	30618.89
575.33	30300.58
575.49	30820.17
575.65	30403.56
575.82	31267.22
575.98	30499.52
576.14	30272.49
576.30	30597.82
576.46	30204.61
576.62	30682.08
576.79	30363.77
576.95	30511.22
577.11	30756.98
577.27	30515.90
577.43	30429.30
577.59	30347.39
577.75	30906.77
577.92	29937.79
578.08	30335.68
578.24	30614.21
578.40	30600.16
578.56	30813.15
578.72	30558.03
578.88	31152.53
579.04	30820.17
579.21	30466.75
579.37	30497.18
579.53	30745.28
579.69	30562.72
579.85	30756.98
580.01	30426.96
580.17	30115.67
580.33	30827.20
580.49	30721.87
580.65	30944.22
580.82	30689.10
580.98	30579.10
581.14	30558.03
581.30	30756.98
581.46	30473.78
581.62	30747.62
581.78	30394.20
581.94	30787.41
582.10	30284.19
582.26	31122.10
582.42	30644.63
582.58	30852.94
582.74	30412.92
582.90	30838.90
583.06	31021.46
583.22	30771.02
583.38	30405.90
583.54	30504.20
583.70	30946.56
583.86	30752.30
584.02	30668.04
584.18	31047.21
584.34	30391.86
584.50	31138.49
584.66	31211.04
584.82	31009.76
584.98	30892.73
585.14	30946.56
585.30	30532.29
585.46	30796.77
585.62	30728.89
585.78	30953.58
585.94	30756.98
586.10	30920.82
586.26	30749.96
586.42	31131.47
586.58	30775.70
586.74	30960.61
586.90	30705.49
587.06	30459.73
587.22	30735.92
587.38	30883.37
587.54	30738.26
587.70	31154.87
587.86	30939.54
588.02	30899.75
588.18	31019.12
588.34	30670.38
588.49	30778.04
588.65	30991.03
588.81	30719.53
588.97	30822.51
589.13	30768.68
589.29	30934.86
589.45	31264.88
589.61	31377.22
589.77	31428.71
589.93	31620.64
590.08	31206.36
590.24	31178.28
590.40	31269.56
590.56	30747.62
590.72	31098.70
590.88	30773.36
591.04	30944.22
591.20	31501.27
591.35	31356.16
591.51	31438.08
591.67	31332.75
591.83	31182.96
591.99	31166.57
592.15	31316.37
592.31	31253.17
592.46	31232.11
592.62	30822.51
592.78	30787.41
592.94	30991.03
593.10	31161.89
593.26	31288.28
593.41	30979.33
593.57	31351.48
593.73	31604.25
593.89	31470.84
594.05	31454.46
594.20	31133.81
594.36	31578.51
594.52	31391.26
594.68	31431.05
594.84	30906.77
594.99	31463.82
595.15	31447.44
595.31	31082.31
595.47	31534.04
595.62	31552.76
595.78	31473.18
595.94	31058.91
596.10	31271.90
596.25	31770.43
596.41	31101.04
596.57	30792.09
596.73	31508.29
596.88	31180.62
597.04	31271.90
597.20	31239.13
597.36	31463.82
597.51	31307.01
597.67	31314.03
597.83	30962.95
597.99	31573.83
598.14	31328.07
598.30	31660.43
598.46	31192.32
598.61	31627.66
598.77	31342.11
598.93	31700.22
599.09	31285.94
599.24	31725.96
599.40	31056.57
599.56	31482.55
599.71	31552.76
599.87	31770.43
600.03	31522.34
600.18	31253.17
600.34	31346.79
600.50	31590.21
600.65	31171.25
600.81	31536.38
600.97	31620.64
601.12	31777.45
601.28	31573.83
601.44	31538.72
601.59	31438.08
601.75	31433.39
601.91	31470.84
602.06	31131.47
602.22	31496.59
602.37	31435.74
602.53	31695.53
602.69	31622.98
602.84	31417.01
603.00	31580.85
603.16	31599.57
603.31	31377.22
603.47	31580.85
603.62	31283.60
603.78	31498.93
603.94	31566.81
604.09	31255.51
604.25	31129.12
604.40	31246.15
604.56	31524.68
604.71	31615.96
604.87	31578.51
605.03	31522.34
605.18	31412.33
605.34	31630.00
605.49	31417.01
605.65	30974.65
605.80	30960.61
605.96	30974.65
606.12	31365.52
606.27	31358.50
606.43	31021.46
606.58	31534.04
606.74	31019.12
606.89	31512.97
607.05	31541.06
607.20	31400.63
607.36	31512.97
607.51	31297.64
607.67	31302.32
607.82	30815.49
607.98	31157.21
608.13	31311.69
608.29	31274.24
608.44	31147.85
608.60	31173.60
608.75	31908.52
608.91	31393.61
609.06	30976.99
609.22	31246.15
609.37	31398.29
609.53	30808.47
609.68	31016.78
609.84	31168.91
609.99	31009.76
610.15	31349.14
610.30	31103.38
610.46	30923.16
610.61	31278.92
610.76	31185.30
610.92	31274.24
611.07	31023.80
611.23	31007.42
611.38	31372.54
611.54	31161.89
611.69	30637.61
611.84	30881.03
612.00	30848.26
612.15	30815.49
612.31	31182.96
612.46	30665.70
612.62	31103.38
612.77	31192.32
612.92	30934.86
613.08	31042.53
613.23	30927.84
613.39	30749.96
613.54	30834.22
613.69	30857.62
613.85	30857.62
614.00	30941.88
614.15	31012.10
614.31	30909.11
614.46	30969.97
614.62	31035.50
614.77	31051.89
614.92	30693.79
615.08	31108.06
615.23	30808.47
615.38	31030.82
615.54	30696.13
615.69	30352.07
615.84	30824.86
616.00	30693.79
616.15	30630.59
616.30	31026.14
616.46	30370.79
616.61	30796.77
616.76	30597.82
616.92	30670.38
617.07	30684.42
617.22	30637.61
617.37	30387.18
617.53	30665.70
617.68	30321.64
617.83	30555.69
617.99	30558.03
618.14	30433.99
618.29	29989.28
618.45	30338.02
618.60	30401.22
618.75	30363.77
618.90	30246.74
619.06	30625.91
619.21	30345.05
619.36	30649.32
619.51	30422.28
619.67	29951.84
619.82	29776.30
619.97	30253.76
620.12	30242.06
620.28	30206.95
620.43	30602.50
620.58	30410.58
620.73	30319.30
620.89	30110.99
621.04	30527.61
621.19	30195.25
621.34	30366.11
621.49	29844.17
621.65	30071.20
621.80	30052.48
621.95	29935.45
622.10	30073.54
622.25	29947.15
622.41	29867.58
622.56	30080.56
622.71	30272.49
622.86	29963.54
623.01	30190.57
623.16	29738.85
623.32	29701.40
623.47	29645.23
623.62	29921.41
623.77	29621.82
623.92	30038.44
624.07	29867.58
624.23	29937.79
624.38	29961.20
624.53	29757.57
624.68	29937.79
624.83	29912.05
624.98	29717.78
625.13	29759.91
625.29	30110.99
625.44	29937.79
625.59	29631.18
625.74	29418.19
625.89	29509.47
626.04	29645.23
626.19	29333.93
626.34	29666.29
626.49	29504.79
626.65	29453.30
626.80	29565.65
626.95	29259.04
627.10	29612.46
627.25	29675.65
627.40	29752.89
627.55	29352.66
627.70	29212.23
627.85	29083.50
628.00	29223.93
628.15	29558.63
628.30	29053.07
628.45	29158.39
628.60	29153.71
628.76	29214.57
628.91	28922.00
629.06	29769.27
629.21	29390.11
629.36	29369.04
629.51	29151.37
629.66	29200.52
629.81	28830.72
629.96	29216.91
630.11	29134.99
630.26	28690.29
630.41	29237.97
630.56	28830.72
630.71	29008.60
630.86	28828.38
631.01	29195.84
631.16	29013.28
631.31	28905.62
631.46	28868.17
631.61	28992.22
631.76	29036.69
631.91	28922.00
632.06	28999.24
632.21	28496.02
632.36	28776.89
632.51	28596.67
632.66	28767.52
632.81	28833.06
632.96	28919.66
633.10	28802.63
633.25	29020.30
633.40	28767.52
633.55	28559.22
633.70	28809.65
633.85	28318.14
634.00	28821.36
634.15	28751.14
634.30	28154.30
634.45	28414.10
634.60	28559.22
634.75	28407.08
634.90	28187.07
635.05	29076.48
635.19	28451.55
635.34	28762.84
635.49	28636.45
635.64	29083.50
635.79	28744.12
635.94	28634.11
636.09	28610.71
636.24	28027.92
636.39	28449.21
636.53	28716.03
636.68	28168.35
636.83	28680.92
636.98	28430.49
637.13	28655.18
637.28	28474.96
637.43	28549.85
637.57	28458.57
637.72	28360.27
637.87	28297.08
638.02	27903.87
638.17	28196.43
638.32	28119.20
638.46	27915.57
638.61	27618.32
638.76	27786.84
638.91	27704.92
639.06	28247.93
639.20	27779.82
639.35	28243.24
639.50	28245.58
639.65	27997.49
639.80	28070.04
639.94	28217.50
640.09	28020.89
640.24	27943.66
640.39	27843.01
640.54	28048.98
640.68	27943.66
640.83	27442.78
640.98	27445.12
641.13	27625.34
641.27	28032.60
641.42	27885.14
641.57	27564.49
641.72	27889.82
641.86	27426.40
642.01	27517.68
642.16	27725.99
642.31	27821.95
642.45	27669.81
642.60	27590.24
642.75	27150.21
642.90	27489.59
643.04	27311.71
643.19	27597.26
643.34	27625.34
643.48	27672.15
643.63	27545.76
643.78	27655.77
643.93	27276.60
644.07	27608.96
644.22	27887.48
644.37	27358.52
644.51	27784.50
644.66	27833.65
644.81	27103.40
644.95	27201.71
645.10	27393.63
645.25	27087.02
645.39	27220.43
645.54	27445.12
645.69	27285.97
645.83	27119.79
645.98	27410.01
646.13	27393.63
646.27	27332.78
646.42	26874.03
646.57	27131.49
646.71	26932.54
646.86	27014.46
647.00	27138.51
647.15	27143.19
647.30	27208.73
647.44	26813.18
647.59	27360.86
647.74	27009.78
647.88	26759.34
648.03	27414.69
648.17	26923.18
648.32	27229.79
648.47	27297.67
648.61	27164.26
648.76	27239.15
648.90	27061.27
649.05	27068.30
649.20	27173.62
649.34	26728.92
649.49	26485.50
649.63	26625.93
649.78	26874.03
649.92	26607.21
650.07	26913.82
650.21	26747.64
650.36	26820.20
650.51	26551.04
650.65	26747.64
650.80	26515.93
650.94	26539.33
651.09	26539.33
651.23	26639.98
651.38	26754.66
651.52	26710.19
651.67	26862.33
651.81	26623.59
651.96	26309.96
652.10	26354.43
652.25	26740.62
652.39	26352.09
652.54	26670.40
652.68	26712.53
652.83	26553.38
652.97	26932.54
653.12	26663.38
653.26	26441.03
653.41	26789.77
653.55	26235.06
653.70	26022.08
653.84	26291.24
653.99	26412.95
654.13	26611.89
654.27	26202.30
654.42	26120.38
654.56	26331.03
654.71	26150.81
654.85	26354.43
655.00	26604.87
655.14	26197.62
655.29	26307.62
655.43	25998.67
655.57	25991.65
655.72	25984.63
655.86	25825.47
656.01	25905.05
656.15	26345.07
656.30	25996.33
656.44	25851.22
656.58	26008.03
656.73	26202.30
656.87	26499.55
657.01	25678.02
657.16	26270.17
657.30	25949.52
657.45	26106.34
657.59	25996.33
657.73	25809.09
657.88	25788.02
658.02	25881.64
658.16	25741.21
658.31	25605.46
658.45	25680.36
658.60	25659.29
658.74	25563.33
658.88	25839.51
659.03	25488.43
659.17	25685.04
659.31	25406.52
659.46	25759.94
659.60	25951.86
659.74	25462.69
659.89	25551.63
660.03	25486.09
660.17	25486.09
660.32	25336.30
660.46	25394.81
660.60	25113.95
660.74	25366.73
660.89	25460.35
661.03	24938.41
661.17	25095.22
661.32	25097.56
661.46	25411.20
661.60	25219.27
661.74	24985.22
661.89	25261.40
662.03	25160.76
662.17	25050.75
662.31	25158.42
662.46	24938.41
662.60	24950.11
662.74	24879.89
662.88	25116.29
663.03	24409.45
663.17	24886.92
663.31	24542.86
663.45	24355.61
663.60	24971.18
663.74	24592.01
663.88	24603.71
664.02	24175.39
664.17	24521.79
664.31	24662.22
664.45	24346.25
664.59	24442.21
664.73	24226.89
664.88	24540.52
665.02	24189.44
665.16	24250.29
665.30	24390.72
665.44	24346.25
665.59	24177.73
665.73	24205.82
665.87	24341.57
666.01	24271.36
666.15	24421.15
666.29	24013.90
666.44	24203.48
666.58	24077.09
666.72	23927.30
666.86	24041.98
667.00	24107.52
667.14	24065.39
667.28	24037.30
667.43	23964.75
667.57	23999.85
667.71	23653.45
667.85	23704.95
667.99	23496.64
668.13	23538.77
668.27	23384.29
668.41	23765.80
668.56	23522.38
668.70	23747.08
668.84	23562.17
668.98	23461.53
669.12	23295.35
669.26	23733.03
669.40	23709.63
669.54	23639.41
669.68	23323.44
669.82	23225.14
669.96	22991.08
670.10	22878.74
670.25	23271.95
670.39	23061.30
670.53	23236.84
670.67	22953.63
670.81	23112.79
670.95	22860.01
671.09	22958.31
671.23	23101.09
671.37	22740.64
671.51	22822.56
671.65	22951.29
671.79	22719.58
671.93	22761.71
672.07	22567.45
672.21	22340.41
672.35	22384.88
672.49	22216.36
672.63	22703.20
672.77	22115.72
672.91	22352.12
673.05	22169.55
673.19	22155.51
673.33	22111.04
673.47	22312.33
673.61	22548.72
673.75	22258.49
673.89	22171.89
674.03	22164.87
674.17	22087.64
674.31	21958.91
674.45	21944.86
674.59	21933.16
674.73	22120.40
674.87	21809.11
675.01	21549.31
675.15	21736.56
675.29	21589.10
675.43	21661.66
675.56	21537.61
675.70	21895.71
675.84	21607.83
675.98	21235.68
676.12	21809.11
676.26	21530.59
676.40	21596.12
676.54	21469.73
676.68	21308.24
676.82	20882.26
676.96	21120.99
677.10	21032.05
677.23	20727.78
677.37	20657.57
677.51	20645.87
677.65	20912.69
677.79	20643.52
677.93	20570.97
678.07	20524.16
678.21	20634.16
678.34	20622.46
678.48	20397.77
678.62	20589.69
678.76	20290.10
678.90	20325.21
679.04	20065.41
679.18	20479.69
679.31	19850.08
679.45	19789.23
679.59	19985.83
679.73	19754.12
679.87	19639.44
680.00	19421.77
680.14	19435.81
680.28	19590.28
680.42	19885.19
680.56	19690.93
680.70	19763.48
680.83	19702.63
680.97	19419.42
681.11	19611.35
681.25	19325.80
681.39	19302.40
681.52	19281.33
681.66	19124.52
681.80	19000.47
681.94	18941.96
682.07	18923.23
682.21	18682.16
682.35	18890.46
682.49	18925.57
682.62	18480.87
682.76	18602.58
682.90	18726.63
683.04	18483.21
683.17	18590.88
683.31	18640.03
683.45	18506.62
683.59	18515.98
683.72	18274.90
683.86	18024.47
684.00	18132.13
684.13	18197.67
684.27	18195.32
684.41	17914.46
684.55	17771.69
684.68	17717.86
684.82	17687.43
684.96	17699.13
685.09	17661.68
685.23	17551.68
685.37	17638.28
685.50	17902.76
685.64	17289.54
685.78	17621.89
685.91	17504.87
686.05	17509.55
686.19	17385.50
686.32	17493.16
686.46	17310.60
686.60	16936.12
686.73	17343.37
686.87	17083.57
687.01	17039.10
687.14	16833.13
687.28	16769.94
687.42	16737.17
687.55	16800.37
687.69	16718.45
687.82	16493.76
687.96	16800.37
688.10	16617.80
688.23	16582.70
688.37	16561.63
688.50	16566.31
688.64	16482.05
688.78	16376.73
688.91	15927.35
689.05	16128.63
689.18	16072.46
689.32	15864.15
689.46	15997.56
689.59	16121.61
689.73	15988.20
689.86	15831.38
690.00	15733.08
690.13	15712.02
690.27	15747.12
690.41	15815.00
690.54	15712.02
690.68	15840.75
690.81	15531.80
690.95	15454.56
691.08	15494.35
691.22	15538.82
691.35	15112.84
691.49	15374.98
691.62	15396.04
691.76	15187.74
691.89	15110.50
692.03	15005.17
692.16	14743.03
692.30	14583.88
692.43	14780.48
692.57	14546.43
692.70	14558.13
692.84	14661.12
692.97	14455.15
693.11	14583.88
693.24	14476.21
693.38	14562.81
693.51	14485.58
693.65	14490.26
693.78	14314.72
693.92	14462.17
694.05	14143.86
694.19	14167.26
694.32	13839.59
694.45	14333.44
694.59	13668.73
694.72	14097.05
694.86	13717.88
694.99	13647.66
695.13	13429.99
695.26	13853.63
695.39	13586.81
695.53	13841.93
695.66	13650.00
695.80	13420.63
695.93	13502.55
696.07	13752.99
696.20	13907.46
696.33	13280.20
696.47	13467.44
696.60	13261.48
696.73	13167.85
696.87	13004.02
697.00	13252.11
697.14	12861.24
697.27	12786.35
697.40	12662.30
697.54	12823.80
697.67	12891.67
697.80	12538.25
697.94	12568.68
698.07	12627.19
698.21	12362.71
698.34	12489.10
698.47	12407.18
698.61	12629.53
698.74	12372.07
698.87	12554.63
699.01	12245.68
699.14	12332.28
699.27	12138.02
699.40	12095.89
699.54	12044.40
699.67	12229.30
699.80	11793.96
699.94	12079.50
700.07	11983.54
700.20	11763.53
700.34	11548.20
700.47	11941.41
700.60	11728.42
700.73	11707.36
700.87	11571.61
701.00	11604.38
701.13	11405.43
701.26	11272.02
701.40	11520.12
701.53	11557.57
701.66	11375.00
701.79	11150.31
701.93	11360.96
702.06	11112.86
702.19	11201.80
702.32	11052.01
702.46	10651.78
702.59	11002.86
702.72	10504.32
702.85	10551.14
702.99	10766.46
703.12	10623.69
703.25	10801.57
703.38	10464.54
703.51	10539.43
703.65	10579.22
703.78	10565.18
703.91	10452.83
704.04	10352.19
704.17	10668.16
704.31	10663.48
704.44	10246.87
704.57	10129.84
704.70	10225.80
704.83	10059.62
704.96	10139.20
705.10	10080.69
705.23	9909.83
>>>>>End Processed Spectral Data<<<<<
