SpectraSuite Data File
++++++++++++++++++++++++++++++++++++
Date: Fri Oct 18 13:57:59 GMT-05:00 2013
User: bianchi
Dark Spectrum Present: No
Reference Spectrum Present: No
Number of Sampled Component Spectra: 1
Spectrometers: USB2+H05261
Integration Time (usec): 50000 (USB2+H05261)
Spectra Averaged: 1 (USB2+H05261)
Boxcar Smoothing: 0 (USB2+H05261)
Correct for Electrical Dark: No (USB2+H05261)
Strobe/Lamp Enabled: No (USB2+H05261)
Correct for Detector Non-linearity: No (USB2+H05261)
Correct for Stray Light: No (USB2+H05261)
Number of Pixels in Processed Spectrum: 2048
>>>>>Begin Processed Spectral Data<<<<<
365.73	0.00
365.92	0.00
366.12	0.00
366.32	0.00
366.52	0.00
366.72	0.00
366.91	0.00
367.11	0.00
367.31	0.00
367.51	0.00
367.70	0.00
367.90	0.00
368.10	0.00
368.30	0.00
368.49	0.00
368.69	0.00
368.89	0.00
369.09	0.00
369.28	0.00
369.48	0.00
369.68	0.00
369.87	0.00
370.07	0.00
370.27	0.00
370.47	0.00
370.66	102.98
370.86	49.15
371.06	198.95
371.25	156.82
371.45	140.43
371.65	107.66
371.84	133.41
372.04	140.43
372.24	196.60
372.44	170.86
372.63	117.03
372.83	177.88
373.03	220.01
373.22	203.63
373.42	166.18
373.62	264.48
373.81	147.45
374.01	252.78
374.21	318.31
374.40	252.78
374.60	271.50
374.79	318.31
374.99	257.46
375.19	231.71
375.38	259.80
375.58	264.48
375.78	294.91
375.97	266.82
376.17	252.78
376.37	210.65
376.56	198.95
376.76	252.78
376.95	269.16
377.15	301.93
377.35	311.29
377.54	306.61
377.74	320.65
377.93	243.42
378.13	269.16
378.33	318.31
378.52	278.52
378.72	278.52
378.91	334.70
379.11	315.97
379.31	215.33
379.50	266.82
379.70	351.08
379.89	287.89
380.09	264.48
380.28	257.46
380.48	332.36
380.68	276.18
380.87	255.12
381.07	283.20
381.26	250.44
381.46	332.36
381.65	348.74
381.85	332.36
382.04	322.99
382.24	407.25
382.43	292.57
382.63	402.57
382.83	351.08
383.02	341.72
383.22	327.68
383.41	299.59
383.61	358.10
383.80	379.17
384.00	386.19
384.19	379.17
384.39	372.15
384.58	409.59
384.78	421.30
384.97	447.04
385.17	409.59
385.36	290.23
385.56	348.74
385.75	395.55
385.95	423.64
386.14	470.45
386.34	365.12
386.53	381.51
386.72	388.53
386.92	477.47
387.11	440.02
387.31	449.38
387.50	409.59
387.70	463.43
387.89	397.89
388.09	418.96
388.28	479.81
388.48	461.09
388.67	475.13
388.86	433.00
389.06	449.38
389.25	430.66
389.45	486.83
389.64	348.74
389.84	543.00
390.03	449.38
390.22	472.79
390.42	484.49
390.61	461.09
390.81	528.96
391.00	603.86
391.19	521.94
391.39	538.32
391.58	493.85
391.78	575.77
391.97	580.45
392.16	535.98
392.36	599.18
392.55	585.13
392.75	547.69
392.94	592.16
393.13	477.47
393.33	496.19
393.52	587.47
393.71	650.67
393.91	631.94
394.10	528.96
394.29	507.90
394.49	688.12
394.68	589.82
394.88	592.16
395.07	599.18
395.26	552.37
395.46	578.11
395.65	622.58
395.84	718.54
396.04	620.24
396.23	704.50
396.42	683.44
396.62	697.48
396.81	615.56
397.00	669.39
397.19	683.44
397.39	706.84
397.58	664.71
397.77	678.76
397.97	683.44
398.16	730.25
398.35	720.88
398.55	784.08
398.74	657.69
398.93	730.25
399.12	681.10
399.32	734.93
399.51	711.52
399.70	777.06
399.90	669.39
400.09	760.67
400.28	739.61
400.47	800.46
400.67	844.93
400.86	784.08
401.05	777.06
401.24	812.17
401.44	847.27
401.63	807.48
401.82	840.25
402.01	777.06
402.21	835.57
402.40	858.98
402.59	866.00
402.78	858.98
402.97	945.58
403.17	849.61
403.36	912.81
403.55	922.17
403.74	898.77
403.93	828.55
404.13	940.90
404.32	896.43
404.51	889.40
404.70	924.51
404.89	994.73
405.09	901.11
405.28	1008.77
405.47	987.71
405.66	926.85
405.85	1107.07
406.05	1001.75
406.24	1055.58
406.43	1076.65
406.62	936.21
406.81	1039.20
407.00	1043.88
407.20	1015.79
407.39	1057.92
407.58	1034.52
407.77	1041.54
407.96	1067.28
408.15	1149.20
408.34	1006.43
408.54	1104.73
408.73	1172.61
408.92	1097.71
409.11	1149.20
409.30	1151.54
409.49	1095.37
409.68	1177.29
409.87	1165.59
410.07	1224.10
410.26	1193.67
410.45	1191.33
410.64	1144.52
410.83	1256.87
411.02	1240.48
411.21	1245.16
411.40	1299.00
411.59	1289.64
411.78	1320.06
411.98	1343.47
412.17	1348.15
412.36	1320.06
412.55	1315.38
412.74	1423.05
412.93	1434.75
413.12	1483.90
413.31	1472.20
413.50	1373.89
413.69	1409.00
413.88	1486.24
414.07	1479.22
414.26	1427.73
414.45	1474.54
414.64	1547.09
414.83	1565.82
415.02	1490.92
415.22	1586.88
415.41	1621.99
415.60	1568.16
415.79	1577.52
415.98	1605.61
416.17	1617.31
416.36	1631.35
416.55	1624.33
416.74	1666.46
416.93	1699.23
417.12	1696.89
417.31	1689.87
417.50	1629.01
417.69	1767.10
417.88	1710.93
418.07	1785.83
418.26	1657.10
418.45	1792.85
418.64	1895.83
418.83	1877.11
419.02	1757.74
419.21	1937.96
419.39	1940.30
419.58	1748.38
419.77	1877.11
419.96	2010.52
420.15	1867.75
420.34	1895.83
420.53	1909.88
420.72	2043.29
420.91	1858.39
421.10	1928.60
421.29	1856.04
421.48	2019.88
421.67	1968.39
421.86	2022.22
422.05	2078.40
422.24	2064.35
422.43	2136.91
422.61	2087.76
422.80	2031.58
422.99	1989.46
423.18	1989.46
423.37	2010.52
423.56	2062.01
423.75	2066.69
423.94	2010.52
424.13	1851.36
424.32	1987.11
424.50	2183.72
424.69	2239.89
424.88	2155.63
425.07	2038.61
425.26	2141.59
425.45	2190.74
425.64	2008.18
425.83	1982.43
426.01	2087.76
426.20	2157.97
426.39	2197.76
426.58	2090.10
426.77	2129.89
426.96	2115.84
427.15	2090.10
427.33	2225.85
427.52	2204.78
427.71	2179.04
427.90	2286.70
428.09	2232.87
428.28	2242.23
428.46	2284.36
428.65	2286.70
428.84	2389.69
429.03	2359.26
429.22	2253.94
429.40	2296.07
429.59	2284.36
429.78	2129.89
429.97	2291.38
430.16	2310.11
430.34	2340.54
430.53	2340.54
430.72	2401.39
430.91	2450.54
431.10	2385.01
431.28	2394.37
431.47	2504.37
431.66	2452.88
431.85	2406.07
432.03	2434.16
432.22	2495.01
432.41	2497.35
432.60	2424.80
432.79	2459.90
432.97	2541.82
433.16	2607.36
433.35	2602.68
433.54	2406.07
433.72	2614.38
433.91	2548.84
434.10	2483.31
434.28	2544.16
434.47	2612.04
434.66	2654.17
434.85	2656.51
435.03	2581.61
435.22	2672.89
435.41	2780.56
435.59	2541.82
435.78	2738.43
435.97	2649.49
436.16	2642.46
436.34	2724.38
436.53	2729.06
436.72	2808.64
436.90	2761.83
437.09	2724.38
437.28	2661.19
437.46	2768.85
437.65	2747.79
437.84	2729.06
438.02	2876.52
438.21	2862.48
438.40	2785.24
438.58	2850.77
438.77	3143.34
438.96	3077.80
439.14	3000.57
439.33	3035.67
439.52	3056.74
439.70	3077.80
439.89	3061.42
440.08	3063.76
440.26	3183.13
440.45	3171.43
440.63	3056.74
440.82	3206.53
441.01	3190.15
441.19	3318.88
441.38	3368.03
441.57	3372.71
441.75	3358.67
441.94	3281.43
442.12	3372.71
442.31	3478.04
442.50	3386.76
442.68	3468.67
442.87	3471.01
443.05	3431.23
443.24	3342.28
443.43	3545.91
443.61	3393.78
443.80	3515.48
443.98	3398.46
444.17	3342.28
444.35	3456.97
444.54	3499.10
444.73	3576.34
444.91	3384.41
445.10	3545.91
445.28	3529.53
445.47	3583.36
445.65	3494.42
445.84	3534.21
446.02	3499.10
446.21	3606.77
446.39	3559.95
446.58	3459.31
446.77	3545.91
446.95	3630.17
447.14	3688.68
447.32	3644.21
447.51	3676.98
447.69	3644.21
447.88	3611.45
448.06	3616.13
448.25	3714.43
448.43	3588.04
448.62	3669.96
448.80	3719.11
448.99	3648.90
449.17	3583.36
449.36	3592.72
449.54	3571.66
449.73	3786.99
449.91	3709.75
450.10	3803.37
450.28	3810.39
450.46	3843.16
450.65	3784.65
450.83	3782.31
451.02	3836.14
451.20	3857.20
451.39	3786.99
451.57	3782.31
451.76	3824.44
451.94	3854.86
452.13	3808.05
452.31	4009.34
452.49	3873.59
452.68	3964.87
452.86	3920.40
453.05	4105.30
453.23	4081.89
453.42	3971.89
453.60	3957.85
453.78	3953.16
453.97	3892.31
454.15	4039.76
454.34	4053.81
454.52	4109.98
454.70	4079.55
454.89	4109.98
455.07	4042.11
455.26	4168.49
455.44	4168.49
455.62	4098.28
455.81	4109.98
455.99	4131.05
456.17	4198.92
456.36	4329.99
456.54	4423.61
456.73	4337.01
456.91	4404.89
457.09	4337.01
457.28	4344.03
457.46	4397.87
457.64	4397.87
457.83	4367.44
458.01	4344.03
458.19	4564.04
458.38	4615.54
458.56	4636.60
458.74	4674.05
458.93	4634.26
459.11	4542.98
459.29	4542.98
459.48	4615.54
459.66	4535.96
459.84	4503.19
460.03	4737.24
460.21	4734.90
460.39	4610.86
460.57	4631.92
460.76	4608.51
460.94	4704.48
461.12	4727.88
461.31	4734.90
461.49	4748.95
461.67	4664.69
461.85	4835.55
462.04	4652.98
462.22	5210.03
462.40	4933.85
462.59	4774.69
462.77	4819.16
462.95	4849.59
463.13	4926.83
463.32	4744.27
463.50	5085.98
463.68	4875.34
463.86	4891.72
464.05	4924.49
464.23	4931.51
464.41	5039.17
464.59	4828.53
464.78	5081.30
464.96	5011.09
465.14	4957.25
465.32	5071.94
465.50	5163.22
465.69	5226.42
465.87	5088.32
466.05	5177.26
466.23	5151.52
466.41	5170.24
466.60	5320.04
466.78	5132.79
466.96	5355.15
467.14	5151.52
467.32	5151.52
467.51	5313.02
467.69	5034.49
467.87	5214.71
468.05	5380.89
468.23	5186.63
468.41	5224.08
468.60	5284.93
468.78	5416.00
468.96	5366.85
469.14	5376.21
469.32	5607.92
469.50	5266.21
469.69	5516.64
469.87	5469.83
470.05	5448.77
470.23	5530.69
470.41	5540.05
470.59	5748.36
470.77	5521.32
470.95	5738.99
471.14	5703.89
471.32	5643.03
471.50	5734.31
471.68	5746.02
471.86	5724.95
472.04	5640.69
472.22	5996.45
472.40	5856.02
472.58	5785.80
472.77	5860.70
472.95	5879.43
473.13	6202.42
473.31	5867.72
473.49	5937.94
473.67	6017.52
473.85	5942.62
474.03	6099.44
474.21	6069.01
474.39	6296.04
474.57	6279.66
474.75	6239.87
474.93	6258.59
475.12	6277.32
475.30	6431.79
475.48	6342.85
475.66	6628.40
475.84	6352.21
476.02	6628.40
476.20	6485.62
476.38	6726.70
476.56	6595.63
476.74	6703.29
476.92	6665.85
477.10	6864.79
477.28	6761.81
477.46	6747.76
477.64	6717.34
477.82	6878.83
478.00	7012.24
478.18	7190.13
478.36	7152.68
478.54	7351.62
478.72	7194.81
478.90	7206.51
479.08	7421.84
479.26	7492.05
479.44	7386.73
479.62	7548.23
479.80	7639.51
479.98	7712.07
480.16	7709.72
480.34	7686.32
480.52	7742.49
480.70	7798.66
480.88	7698.02
481.06	7913.35
481.24	7992.93
481.41	7936.76
481.59	8161.45
481.77	8189.53
481.95	8177.83
482.13	8346.35
482.31	8376.78
482.49	8376.78
482.67	8315.92
482.85	8351.03
483.03	8688.07
483.21	8847.22
483.39	8908.08
483.57	8608.49
483.74	8877.65
483.92	8961.91
484.10	8929.14
484.28	9205.33
484.46	9362.14
484.64	9472.15
484.82	9282.56
485.00	9462.79
485.18	9352.78
485.35	9579.81
485.53	9495.55
485.71	9586.83
485.89	10019.83
486.07	9816.21
486.25	9738.97
486.43	10001.11
486.61	9811.53
486.78	10139.20
486.96	10274.95
487.14	10373.25
487.32	10188.35
487.50	10331.12
487.68	10450.49
487.85	10736.04
488.03	10967.75
488.21	10731.36
488.39	10731.36
488.57	10869.45
488.75	10930.30
488.92	11103.50
489.10	10958.39
489.28	11295.43
489.46	11447.56
489.64	11185.42
489.81	11557.57
489.99	11695.66
490.17	11550.54
490.35	12004.61
490.53	11693.32
490.70	12035.03
490.88	11756.51
491.06	12128.66
491.24	12231.64
491.41	12093.55
491.59	12121.63
491.77	12196.53
491.95	12432.93
492.13	12428.24
492.30	12699.75
492.48	12594.42
492.66	12901.03
492.84	12795.71
493.01	12886.99
493.19	12945.50
493.37	12922.10
493.54	13055.51
493.72	13329.35
493.90	12931.46
494.08	13177.22
494.25	13341.05
494.43	13495.53
494.61	13521.27
494.79	13687.45
494.96	13734.26
495.14	13675.75
495.32	13708.52
495.49	13973.00
495.67	14185.99
495.85	14075.98
496.02	14398.98
496.20	14178.97
496.38	14176.62
496.55	14324.08
496.73	14621.33
496.91	14607.28
497.09	14752.40
497.26	14473.87
497.44	14808.57
497.62	14689.20
497.79	15197.10
497.97	14670.48
498.14	15236.89
498.32	15236.89
498.50	15246.25
498.67	15152.63
498.85	15417.11
499.03	15449.88
499.20	15541.16
499.38	15477.96
499.56	15613.71
499.73	15566.90
499.91	15679.25
500.08	15784.57
500.26	15735.42
500.44	15882.88
500.61	16102.89
500.79	15768.19
500.97	16030.33
501.14	16294.81
501.32	16177.78
501.49	16177.78
501.67	16128.63
501.84	16308.85
502.02	15999.90
502.20	16386.09
502.37	16802.71
502.55	16624.83
502.72	16400.13
502.90	16699.72
503.07	16556.95
503.25	16929.09
503.43	16423.54
503.60	16952.50
503.78	17106.98
503.95	16978.25
504.13	17029.74
504.30	17181.87
504.48	17111.66
504.65	17142.08
504.83	17275.49
505.01	17509.55
505.18	17451.03
505.36	17657.00
505.53	17371.46
505.71	17507.21
505.88	17497.84
506.06	17792.75
506.23	17752.96
506.41	17851.27
506.58	17727.22
506.76	17790.41
506.93	17862.97
507.11	17708.49
507.28	18160.22
507.46	18050.21
507.63	18216.39
507.81	18239.79
507.98	18223.41
508.16	18293.63
508.33	18333.42
508.50	18375.55
508.68	18705.56
508.85	18410.65
509.03	18387.25
509.20	18747.69
509.38	18925.57
509.55	18817.91
509.73	18850.67
509.90	18754.71
510.08	19070.68
510.25	18890.46
510.42	18970.04
510.60	19227.50
510.77	19194.73
510.95	19262.61
511.12	19351.55
511.30	19384.32
511.47	18988.77
511.64	19274.31
511.82	19604.33
511.99	19761.14
512.17	19524.75
512.34	19604.33
512.51	19370.27
512.69	19709.65
512.86	19658.16
513.04	20053.71
513.21	20144.99
513.38	20081.80
513.56	19990.52
513.73	19831.36
513.90	19711.99
514.08	19686.25
514.25	19969.45
514.43	20180.10
514.60	20107.54
514.77	20336.91
514.95	20327.55
515.12	20580.33
515.29	20376.70
515.47	20343.94
515.64	20828.43
515.81	20641.18
515.99	20872.90
516.16	21010.99
516.33	20884.60
516.51	20809.70
516.68	20821.41
516.85	20458.62
517.03	20872.90
517.20	21053.12
517.37	20634.16
517.54	21151.42
517.72	21373.77
517.89	20840.13
518.06	21266.11
518.24	21046.10
518.41	21088.23
518.58	21102.27
518.75	21352.71
518.93	21359.73
519.10	21317.60
519.27	21568.04
519.45	21549.31
519.62	21642.93
519.79	21521.23
519.96	21568.04
520.14	21724.85
520.31	21645.27
520.48	21582.08
520.65	21916.78
520.83	21853.58
521.00	22134.45
521.17	22146.15
521.34	22319.35
521.52	22363.82
521.69	22099.34
521.86	22251.47
522.03	22377.86
522.20	22338.07
522.38	22462.12
522.55	22207.00
522.72	22497.23
522.89	22485.53
523.07	22473.82
523.24	22597.87
523.41	22771.07
523.58	22565.10
523.75	22707.88
523.92	22370.84
524.10	22597.87
524.27	22831.93
524.44	23150.24
524.61	23087.04
524.78	22913.84
524.96	23407.70
525.13	22981.72
525.30	23255.56
525.47	23330.46
525.64	23227.48
525.81	23180.67
525.98	23328.12
526.16	23328.12
526.33	23400.68
526.50	23283.65
526.67	22998.10
526.84	23377.27
527.01	23255.56
527.18	23557.49
527.36	23562.17
527.53	23711.97
527.70	24027.94
527.87	23639.41
528.04	23718.99
528.21	23646.43
528.38	23887.51
528.55	23826.65
528.72	23875.80
528.89	23690.90
529.07	24112.20
529.24	23845.38
529.41	24175.39
529.58	24030.28
529.75	24114.54
529.92	24166.03
530.09	24233.91
530.26	24208.16
530.43	24315.83
530.60	24294.76
530.77	24240.93
530.94	24346.25
531.11	24479.66
531.28	24037.30
531.46	24498.39
531.63	24629.46
531.80	24613.07
531.97	24540.52
532.14	24720.74
532.31	24435.19
532.48	24533.50
532.65	25055.43
532.82	24458.60
532.99	24545.20
533.16	24861.17
533.33	24996.92
533.50	25209.91
533.67	25233.32
533.84	24814.36
534.01	24690.31
534.18	24905.64
534.35	25369.07
534.52	25336.30
534.69	25413.54
534.86	25371.41
535.03	25160.76
535.20	25102.25
535.37	25111.61
535.54	25340.98
535.71	24856.49
535.88	25245.02
536.05	25406.52
536.22	25752.91
536.38	25565.67
536.55	25497.80
536.72	25734.19
536.89	25596.10
537.06	25759.94
537.23	25593.76
537.40	25860.58
537.57	25582.06
537.74	25666.31
537.91	26324.01
538.08	25855.90
538.25	25984.63
538.42	25809.09
538.59	25961.22
538.75	25776.32
538.92	25958.88
539.09	26019.74
539.26	25804.41
539.43	25809.09
539.60	26178.89
539.77	26356.77
539.94	26419.97
540.11	26607.21
540.28	25883.98
540.44	26230.38
540.61	26040.80
540.78	26319.32
540.95	26157.83
541.12	26089.95
541.29	26316.98
541.46	26581.46
541.62	26368.48
541.79	26508.91
541.96	26345.07
542.13	26534.65
542.30	26478.48
542.47	26562.74
542.63	26836.58
542.80	27089.36
542.97	26867.01
543.14	27143.19
543.31	27147.87
543.48	27061.27
543.64	27271.92
543.81	27267.24
543.98	27175.96
544.15	26984.04
544.32	27580.87
544.48	27517.68
544.65	26972.33
544.82	27239.15
544.99	26927.86
545.16	27185.32
545.32	26829.56
545.49	27297.67
545.66	27814.93
545.83	27665.13
546.00	27580.87
546.16	27395.97
546.33	26944.25
546.50	27447.46
546.67	27576.19
546.83	27131.49
547.00	27630.02
547.17	27679.18
547.34	27625.34
547.50	27658.11
547.67	27782.16
547.84	28114.52
548.00	27651.09
548.17	27828.97
548.34	27660.45
548.51	27887.48
548.67	28182.39
548.84	28107.49
549.01	27960.04
549.18	27716.62
549.34	28037.28
549.51	27969.40
549.68	28140.26
549.84	27969.40
550.01	28067.70
550.18	27990.47
550.34	28343.89
550.51	28147.28
550.68	28140.26
550.84	28133.24
551.01	28308.78
551.18	28161.33
551.34	27946.00
551.51	27976.42
551.68	28273.67
551.84	28524.11
552.01	28364.95
552.18	28306.44
552.34	28741.78
552.51	28484.32
552.68	28563.90
552.84	28673.90
553.01	28727.74
553.18	28388.36
553.34	28783.91
553.51	28570.92
553.67	28727.74
553.84	28814.34
554.01	28662.20
554.17	28779.23
554.34	28741.78
554.51	28716.03
554.67	28985.19
554.84	28795.61
555.00	28884.55
555.17	28865.83
555.33	28966.47
555.50	28617.73
555.67	29102.22
555.83	29010.94
556.00	29116.26
556.16	29237.97
556.33	28907.96
556.50	29310.53
556.66	29027.32
556.83	29345.64
556.99	29268.40
557.16	29603.10
557.32	29404.15
557.49	29067.11
557.65	29113.92
557.82	29184.14
557.98	29247.33
558.15	28999.24
558.32	29252.02
558.48	29039.03
558.65	29619.48
558.81	29160.73
558.98	29490.75
559.14	29483.73
559.31	29518.84
559.47	29380.74
559.64	29582.03
559.80	29589.05
559.97	29532.88
560.13	29523.52
560.30	29233.29
560.46	29565.65
560.63	29661.61
560.79	29296.49
560.96	29795.02
561.12	29366.70
561.29	29586.71
561.45	29268.40
561.61	29427.56
561.78	29799.70
561.94	29710.76
562.11	29788.00
562.27	29818.42
562.44	29535.22
562.60	29926.09
562.77	29827.79
562.93	29837.15
563.10	29797.36
563.26	29933.11
563.42	29895.66
563.59	29745.87
563.75	29483.73
563.92	30176.53
564.08	29577.35
564.24	30092.27
564.41	29926.09
564.57	29912.05
564.74	29890.98
564.90	30101.63
565.07	29722.46
565.23	30087.59
565.39	30174.19
565.56	30054.82
565.72	30171.85
565.88	30118.01
566.05	29813.74
566.21	29912.05
566.38	29921.41
566.54	29975.24
566.70	30286.53
566.87	30558.03
567.03	30038.44
567.19	30354.41
567.36	30228.02
567.52	30263.13
567.68	30450.37
567.85	29914.39
568.01	30272.49
568.17	29893.32
568.34	30267.81
568.50	30003.33
568.66	30345.05
568.83	30340.36
568.99	30052.48
569.15	30373.13
569.32	30312.28
569.48	30089.93
569.64	30305.26
569.81	30176.53
569.97	30438.67
570.13	30277.17
570.30	30061.84
570.46	30654.00
570.62	30183.55
570.78	29900.34
570.95	30176.53
571.11	30328.66
571.27	30129.72
571.43	29907.37
571.60	30646.97
571.76	30466.75
571.92	30675.06
572.09	30380.15
572.25	30450.37
572.41	30401.22
572.57	30206.95
572.74	30574.42
572.90	30045.46
573.06	29916.73
573.22	30342.70
573.38	30352.07
573.55	30548.67
573.71	30913.80
573.87	30590.80
574.03	30649.32
574.20	30672.72
574.36	30375.47
574.52	30478.46
574.68	30665.70
574.84	30520.59
575.01	30052.48
575.17	30256.11
575.33	30178.87
575.49	30143.76
575.65	30651.66
575.82	30597.82
575.98	30644.63
576.14	30483.14
576.30	30721.87
576.46	30504.20
576.62	30396.54
576.79	30948.90
576.95	30342.70
577.11	30628.25
577.27	30789.75
577.43	30742.94
577.59	30579.10
577.75	30555.69
577.92	30408.24
578.08	30536.97
578.24	30405.90
578.40	30562.72
578.56	30623.57
578.72	30909.11
578.88	31431.05
579.04	30731.23
579.21	30747.62
579.37	31094.02
579.53	30677.40
579.69	30780.39
579.85	30677.40
580.01	30567.40
580.17	30408.24
580.33	30256.11
580.49	30560.37
580.65	30548.67
580.82	30838.90
580.98	30637.61
581.14	30799.11
581.30	31077.63
581.46	30602.50
581.62	30443.35
581.78	30408.24
581.94	30965.29
582.10	30808.47
582.26	30401.22
582.42	30604.84
582.58	30855.28
582.74	30925.50
582.90	30696.13
583.06	30932.52
583.22	30569.74
583.38	30529.95
583.54	30717.19
583.70	30686.76
583.86	30782.73
584.02	30572.08
584.18	31150.19
584.34	31222.75
584.50	31028.48
584.66	30958.27
584.82	30621.23
584.98	31042.53
585.14	30691.44
585.30	31044.87
585.46	30476.12
585.62	30623.57
585.78	30684.42
585.94	30703.15
586.10	30773.36
586.26	30920.82
586.42	31304.67
586.58	31068.27
586.74	30703.15
586.90	30995.71
587.06	30567.40
587.22	30686.76
587.38	30656.34
587.54	31005.08
587.70	30857.62
587.86	31496.59
588.02	31358.50
588.18	31248.49
588.34	30742.94
588.49	30693.79
588.65	30476.12
588.81	30583.78
588.97	31164.23
589.13	31475.52
589.29	31304.67
589.45	31133.81
589.61	31014.44
589.77	31197.00
589.93	31201.68
590.08	31388.92
590.24	31311.69
590.40	31482.55
590.56	31309.35
590.72	31367.86
590.88	30874.01
591.04	30890.39
591.20	30855.28
591.35	31477.86
591.51	31625.32
591.67	31377.22
591.83	31431.05
591.99	30993.37
592.15	31339.77
592.31	31215.72
592.46	31517.65
592.62	30969.97
592.78	30719.53
592.94	31248.49
593.10	31215.72
593.26	31491.91
593.41	31236.79
593.57	31353.82
593.73	31377.22
593.89	31716.60
594.05	31222.75
594.20	31070.61
594.36	31056.57
594.52	31208.70
594.68	31250.83
594.84	30962.95
594.99	31161.89
595.15	31377.22
595.31	31468.50
595.47	31136.15
595.62	31679.15
595.78	31400.63
595.94	31470.84
596.10	31227.43
596.25	31372.54
596.41	31173.60
596.57	30969.97
596.73	31206.36
596.88	31517.65
597.04	31484.89
597.20	31365.52
597.36	31545.74
597.51	31508.29
597.67	31304.67
597.83	31215.72
597.99	31302.32
598.14	30958.27
598.30	31276.58
598.46	31236.79
598.61	31405.31
598.77	31374.88
598.93	31150.19
599.09	31550.42
599.24	31608.93
599.40	31950.65
599.56	31548.08
599.71	31452.12
599.87	31646.38
600.03	31669.79
600.18	31524.68
600.34	31049.55
600.50	31461.48
600.65	31051.89
600.81	31538.72
600.97	31761.07
601.12	31674.47
601.28	31845.33
601.44	31920.23
601.59	31917.89
601.75	31278.92
601.91	31557.44
602.06	31468.50
602.22	31321.05
602.37	31735.32
602.53	31218.07
602.69	31428.71
602.84	31630.00
603.00	31756.39
603.16	31896.82
603.31	31356.16
603.47	31660.43
603.62	31332.75
603.78	31307.01
603.94	31445.10
604.09	31409.99
604.25	31220.41
604.40	31400.63
604.56	31424.03
604.71	31529.36
604.87	31641.70
605.03	31508.29
605.18	31496.59
605.34	31491.91
605.49	31409.99
605.65	31751.71
605.80	31044.87
605.96	31239.13
606.12	31318.71
606.27	31765.75
606.43	31194.66
606.58	31501.27
606.74	31197.00
606.89	31826.60
607.05	31182.96
607.20	31644.04
607.36	31243.81
607.51	31604.25
607.67	31398.29
607.82	31152.53
607.98	31138.49
608.13	31082.31
608.29	31409.99
608.44	31592.55
608.60	31690.85
608.75	31206.36
608.91	31206.36
609.06	31173.60
609.22	31578.51
609.37	31044.87
609.53	31126.78
609.68	30855.28
609.84	30993.37
609.99	31054.23
610.15	30962.95
610.30	31030.82
610.46	31079.97
610.61	30986.35
610.76	31391.26
610.92	31232.11
611.07	31218.07
611.23	31264.88
611.38	30909.11
611.54	31328.07
611.69	30866.98
611.84	30939.54
612.00	31159.55
612.15	30698.47
612.31	31213.38
612.46	31129.12
612.62	31063.59
612.77	31054.23
612.92	31311.69
613.08	31117.42
613.23	31281.26
613.39	30958.27
613.54	30895.07
613.69	30565.06
613.85	30756.98
614.00	30955.93
614.15	30904.43
614.31	30962.95
614.46	31297.64
614.62	30881.03
614.77	31065.93
614.92	30778.04
615.08	30775.70
615.23	31033.16
615.38	30668.04
615.54	30916.14
615.69	30876.35
615.84	30855.28
616.00	30635.27
616.15	30698.47
616.30	31147.85
616.46	30710.17
616.61	30761.66
616.76	30785.07
616.92	30902.09
617.07	30602.50
617.22	30284.19
617.37	30473.78
617.53	30752.30
617.68	30778.04
617.83	30429.30
617.99	30314.62
618.14	30281.85
618.29	30532.29
618.45	30384.83
618.60	30448.03
618.75	30361.43
618.90	30562.72
619.06	30167.16
619.21	30340.36
619.36	30433.99
619.51	30323.98
619.67	29947.15
619.82	30064.18
619.97	29937.79
620.12	30354.41
620.28	30160.14
620.43	30319.30
620.58	30340.36
620.73	30225.68
620.89	30115.67
621.04	30574.42
621.19	30096.95
621.34	30213.98
621.49	29745.87
621.65	29839.49
621.80	30408.24
621.95	30085.25
622.10	29724.80
622.25	29673.31
622.41	30085.25
622.56	30160.14
622.71	30015.03
622.86	30213.98
623.01	30211.64
623.16	29745.87
623.32	29673.31
623.47	29972.90
623.62	30038.44
623.77	29865.24
623.92	30146.10
624.07	29612.46
624.23	29724.80
624.38	30101.63
624.53	29944.81
624.68	29895.66
624.83	30015.03
624.98	30178.87
625.13	29598.41
625.29	29916.73
625.44	30045.46
625.59	29708.42
625.74	29598.41
625.89	29357.34
626.04	29776.30
626.19	29259.04
626.34	29773.95
626.49	29275.42
626.65	29490.75
626.80	29940.13
626.95	29441.60
627.10	29397.13
627.25	29654.59
627.40	29263.72
627.55	29153.71
627.70	29254.36
627.85	29401.81
628.00	29558.63
628.15	28952.43
628.30	29085.84
628.45	29233.29
628.60	29415.85
628.76	29273.08
628.91	29525.86
629.06	29113.92
629.21	29647.57
629.36	28959.45
629.51	28952.43
629.66	29111.58
629.81	29249.67
629.96	29013.28
630.11	28819.02
630.26	29090.52
630.41	28856.46
630.56	28964.13
630.71	29053.07
630.86	29228.61
631.01	29263.72
631.16	29324.57
631.31	29062.43
631.46	28978.17
631.61	28697.31
631.76	28912.64
631.91	28978.17
632.06	28922.00
632.21	28570.92
632.36	28657.52
632.51	28350.91
632.66	28917.32
632.81	28467.94
632.96	28861.15
633.10	28982.85
633.25	28933.70
633.40	28861.15
633.55	28786.25
633.70	28423.47
633.85	28706.67
634.00	28276.01
634.15	28566.24
634.30	28163.67
634.45	28638.80
634.60	28507.72
634.75	28449.21
634.90	28404.74
635.05	28807.31
635.19	28655.18
635.34	28727.74
635.49	28889.23
635.64	28512.41
635.79	28826.04
635.94	28547.51
636.09	28694.97
636.24	28201.11
636.39	28507.72
636.53	28308.78
636.68	28606.03
636.83	28304.10
636.98	28318.14
637.13	28271.33
637.28	28048.98
637.43	28580.28
637.57	28704.33
637.72	28416.44
637.87	28582.62
638.02	28259.63
638.17	28137.92
638.32	28044.30
638.46	28011.53
638.61	28245.58
638.76	27810.25
638.91	28060.68
639.06	28400.06
639.20	27838.33
639.35	28257.29
639.50	28095.79
639.65	28107.49
639.80	27983.44
639.94	27957.70
640.09	28315.80
640.24	28065.36
640.39	28039.62
640.54	27910.89
640.68	27646.41
640.83	27871.10
640.98	27831.31
641.13	27412.35
641.27	27742.37
641.42	27615.98
641.57	27655.77
641.72	27936.63
641.86	27555.13
642.01	27480.23
642.16	27634.71
642.31	27508.32
642.45	28114.52
642.60	27330.44
642.75	27175.96
642.90	27388.95
643.04	27552.79
643.19	27384.27
643.34	27466.19
643.48	27386.61
643.63	27517.68
643.78	27503.64
643.93	27590.24
644.07	27335.12
644.22	27510.66
644.37	27339.80
644.51	27482.57
644.66	27435.76
644.81	27171.28
644.95	27374.91
645.10	27459.16
645.25	27541.08
645.39	27475.55
645.54	27211.07
645.69	27342.14
645.83	27304.69
645.98	27377.25
646.13	27063.61
646.27	27349.16
646.42	27143.19
646.57	27044.89
646.71	27187.66
646.86	27377.25
647.00	27489.59
647.15	27400.65
647.30	27520.02
647.44	27080.00
647.59	27108.08
647.74	27091.70
647.88	27166.60
648.03	27520.02
648.17	27133.83
648.32	27351.50
648.47	26988.72
648.61	26916.16
648.76	27044.89
648.90	27353.84
649.05	27075.32
649.20	27117.45
649.34	27154.90
649.49	26487.84
649.63	26838.92
649.78	26639.98
649.92	26672.74
650.07	26845.94
650.21	26843.60
650.36	26843.60
650.51	26639.98
650.65	26749.98
650.80	26897.44
650.94	26649.34
651.09	26529.97
651.23	26457.42
651.38	26590.83
651.52	26501.89
651.67	26569.76
651.81	26565.08
651.96	26473.80
652.10	26539.33
652.25	26611.89
652.39	26787.43
652.54	26644.66
652.68	26522.95
652.83	26888.07
652.97	26712.53
653.12	26778.07
653.26	26476.14
653.41	26415.29
653.55	26874.03
653.70	26326.35
653.84	26438.69
653.99	26436.35
654.13	26412.95
654.27	25996.33
654.42	26340.39
654.56	26244.43
654.71	26810.84
654.85	26237.41
655.00	26459.76
655.14	26281.88
655.29	26111.02
655.43	26583.80
655.57	26171.87
655.72	25759.94
655.86	26157.83
656.01	26565.08
656.15	25888.67
656.30	26080.59
656.44	26015.05
656.58	26010.37
656.73	25865.26
656.87	26115.70
657.01	26270.17
657.16	26286.56
657.30	26270.17
657.45	25914.41
657.59	26125.06
657.73	25792.70
657.88	25942.50
658.02	25654.61
658.16	26022.08
658.31	25507.16
658.45	25930.80
658.60	25198.21
658.74	25720.15
658.88	25619.50
659.03	25654.61
659.17	25731.85
659.31	25860.58
659.46	26057.18
659.60	25612.48
659.74	25546.95
659.89	25329.28
660.03	25558.65
660.17	25680.36
660.32	25280.13
660.46	25219.27
660.60	25333.96
660.74	25589.08
660.89	25453.33
661.03	25156.08
661.17	25202.89
661.32	25249.70
661.46	25696.74
661.60	25357.36
661.74	25130.33
661.89	25202.89
662.03	24788.61
662.17	25090.54
662.31	24851.81
662.46	24994.58
662.60	25324.60
662.74	24966.49
662.88	24634.14
663.03	24645.84
663.17	24985.22
663.31	24769.89
663.45	24636.48
663.60	24690.31
663.74	24554.56
663.88	24601.37
664.02	24947.77
664.17	24805.00
664.31	24430.51
664.45	24547.54
664.59	24648.18
664.73	24739.46
664.88	24498.39
665.02	24180.07
665.16	24091.13
665.30	24343.91
665.44	24144.97
665.59	24133.26
665.73	23988.15
665.87	24063.05
666.01	24617.75
666.15	24355.61
666.29	24070.07
666.44	24233.91
666.58	24058.37
666.72	23761.12
666.86	24294.76
667.00	24421.15
667.14	23756.44
667.28	23939.00
667.43	23852.40
667.57	24081.77
667.71	23325.78
667.85	23578.56
667.99	23473.23
668.13	23407.70
668.27	23599.62
668.41	23772.82
668.56	23447.49
668.70	23814.95
668.84	23435.78
668.98	23782.18
669.12	23262.58
669.26	23351.52
669.40	23522.38
669.54	23388.97
669.68	23239.18
669.82	23255.56
669.96	23143.22
670.10	23108.11
670.25	23197.05
670.39	23194.71
670.53	22998.10
670.67	23007.47
670.81	22782.77
670.95	22913.84
671.09	22899.80
671.23	22796.82
671.37	23140.88
671.51	22925.55
671.65	22977.04
671.79	22558.08
671.93	22565.10
672.07	22771.07
672.21	22742.99
672.35	22698.52
672.49	22415.31
672.63	22265.52
672.77	22342.75
672.91	22309.99
673.05	22654.05
673.19	22298.28
673.33	22375.52
673.47	22183.60
673.61	22363.82
673.75	22129.77
673.89	22122.74
674.03	22174.24
674.17	21944.86
674.31	22101.68
674.45	21898.05
674.59	21731.87
674.73	22279.56
674.87	21631.23
675.01	22038.48
675.15	21956.57
675.29	21745.92
675.43	21778.68
675.56	21329.30
675.70	21776.34
675.84	21656.98
675.98	20952.48
676.12	21546.97
676.26	21614.85
676.40	21530.59
676.54	21333.98
676.68	21359.73
676.82	20725.44
676.96	20903.32
677.10	21116.31
677.23	21118.65
677.37	20849.49
677.51	20772.25
677.65	20711.40
677.79	20325.21
677.93	20603.74
678.07	20662.25
678.21	20624.80
678.34	20465.64
678.48	20336.91
678.62	20425.86
678.76	20299.47
678.90	20294.79
679.04	20262.02
679.18	20418.83
679.31	19889.87
679.45	19908.60
679.59	19686.25
679.73	20023.28
679.87	19981.15
680.00	19618.37
680.14	19770.51
680.28	19496.66
680.42	19669.86
680.56	19676.88
680.70	19234.52
680.83	19864.13
680.97	19814.98
681.11	19229.84
681.25	19311.76
681.39	19491.98
681.52	19115.16
681.66	19168.99
681.80	19082.39
681.94	18787.48
682.07	18937.27
682.21	18981.74
682.35	18714.92
682.49	18583.85
682.62	18576.83
682.76	18780.46
682.90	18513.64
683.04	18841.31
683.17	18436.40
683.31	18665.77
683.45	18527.68
683.59	18525.34
683.72	18192.98
683.86	18253.84
684.00	18164.90
684.13	18122.77
684.27	18111.07
684.41	18012.76
684.55	17607.85
684.68	17589.13
684.82	17731.90
684.96	17764.67
685.09	17537.63
685.23	17446.35
685.37	17827.86
685.50	17944.89
685.64	17998.72
685.78	17776.37
685.91	17888.71
686.05	17668.70
686.19	17357.41
686.32	17694.45
686.46	17060.16
686.60	17310.60
686.73	17202.94
686.87	16912.71
687.01	17067.19
687.14	17071.87
687.28	16835.47
687.42	16901.01
687.55	16767.60
687.69	16779.30
687.82	16198.85
687.96	16620.14
688.10	16512.48
688.23	16507.80
688.37	16505.46
688.50	16334.60
688.64	16315.87
688.78	16215.23
688.91	16210.55
689.05	16053.73
689.18	16013.95
689.32	15948.41
689.46	15775.21
689.59	15899.26
689.73	15543.50
689.86	15777.55
690.00	15770.53
690.13	15763.51
690.27	15611.37
690.41	15859.47
690.54	15522.43
690.68	15648.82
690.81	15641.80
690.95	15805.64
691.08	15541.16
691.22	15428.81
691.35	15281.36
691.49	15492.01
691.62	15412.43
691.76	15012.20
691.89	15054.33
692.03	14993.47
692.16	14881.13
692.30	14726.65
692.43	14897.51
692.57	14857.72
692.70	14904.53
692.84	14373.23
692.97	14586.22
693.11	14705.59
693.24	14626.01
693.38	14623.67
693.51	14478.55
693.65	14267.91
693.78	14092.37
693.92	14171.94
694.05	14359.19
694.19	14071.30
694.32	14094.71
694.45	14094.71
694.59	13963.64
694.72	14167.26
694.86	13811.50
694.99	13605.53
695.13	13722.56
695.26	13621.92
695.39	13633.62
695.53	13575.11
695.66	13532.98
695.80	13376.16
695.93	13338.71
696.07	13767.03
696.20	13422.97
696.33	13287.22
696.47	13240.41
696.60	13184.24
696.73	13188.92
696.87	13118.70
697.00	12945.50
697.14	12779.32
697.27	12828.48
697.40	12751.24
697.54	12674.00
697.67	12985.29
697.80	12863.58
697.94	12648.26
698.07	12327.60
698.21	12650.60
698.34	12528.89
698.47	12578.04
698.61	12531.23
698.74	12695.07
698.87	12372.07
699.01	12409.52
699.14	12182.49
699.27	12077.16
699.40	12411.86
699.54	11953.12
699.67	12051.42
699.80	11929.71
699.94	11705.02
700.07	12030.35
700.20	11690.98
700.34	11655.87
700.47	11784.60
700.60	11805.66
700.73	11700.34
700.87	11438.20
701.00	11592.67
701.13	11527.14
701.26	11606.72
701.40	11482.67
701.53	11597.35
701.66	11569.27
701.79	11185.42
701.93	11400.75
702.06	11215.85
702.19	10972.43
702.32	10944.34
702.46	10883.49
702.59	10850.72
702.72	10876.47
702.85	10897.53
702.99	10684.55
703.12	10846.04
703.25	10761.78
703.38	10775.83
703.51	10574.54
703.65	10710.29
703.78	10817.96
703.91	10487.94
704.04	10473.90
704.17	10544.11
704.31	10366.23
704.44	10480.92
704.57	10326.44
704.70	10064.30
704.83	9996.43
704.96	10036.22
705.10	10031.54
705.23	10068.98
>>>>>End Processed Spectral Data<<<<<
