SpectraSuite Data File
++++++++++++++++++++++++++++++++++++
Date: Fri Oct 18 13:58:34 GMT-05:00 2013
User: bianchi
Dark Spectrum Present: No
Reference Spectrum Present: No
Number of Sampled Component Spectra: 1
Spectrometers: USB2+H05261
Integration Time (usec): 50000 (USB2+H05261)
Spectra Averaged: 1 (USB2+H05261)
Boxcar Smoothing: 0 (USB2+H05261)
Correct for Electrical Dark: No (USB2+H05261)
Strobe/Lamp Enabled: No (USB2+H05261)
Correct for Detector Non-linearity: No (USB2+H05261)
Correct for Stray Light: No (USB2+H05261)
Number of Pixels in Processed Spectrum: 2048
>>>>>Begin Processed Spectral Data<<<<<
365.73	0.00
365.92	0.00
366.12	0.00
366.32	0.00
366.52	0.00
366.72	0.00
366.91	0.00
367.11	0.00
367.31	0.00
367.51	0.00
367.70	0.00
367.90	0.00
368.10	0.00
368.30	0.00
368.49	0.00
368.69	0.00
368.89	0.00
369.09	0.00
369.28	0.00
369.48	0.00
369.68	0.00
369.87	0.00
370.07	0.00
370.27	0.00
370.47	0.00
370.66	49.15
370.86	86.60
371.06	182.56
371.25	140.43
371.45	14.04
371.65	135.75
371.84	135.75
372.04	152.13
372.24	154.48
372.44	142.77
372.63	156.82
372.83	255.12
373.03	212.99
373.22	126.39
373.42	175.54
373.62	259.80
373.81	252.78
374.01	224.69
374.21	266.82
374.40	245.76
374.60	208.31
374.79	250.44
374.99	252.78
375.19	156.82
375.38	262.14
375.58	198.95
375.78	264.48
375.97	229.37
376.17	271.50
376.37	222.35
376.56	315.97
376.76	269.16
376.95	170.86
377.15	311.29
377.35	290.23
377.54	276.18
377.74	238.73
377.93	306.61
378.13	264.48
378.33	257.46
378.52	241.08
378.72	245.76
378.91	285.55
379.11	292.57
379.31	273.84
379.50	276.18
379.70	290.23
379.89	322.99
380.09	315.97
380.28	301.93
380.48	269.16
380.68	330.02
380.87	292.57
381.07	318.31
381.26	313.63
381.46	381.51
381.65	325.33
381.85	353.42
382.04	299.59
382.24	395.55
382.43	337.04
382.63	318.31
382.83	374.49
383.02	283.20
383.22	376.83
383.41	376.83
383.61	332.36
383.80	339.38
384.00	416.62
384.19	442.36
384.39	386.19
384.58	367.46
384.78	381.51
384.97	402.57
385.17	411.93
385.36	365.12
385.56	433.00
385.75	367.46
385.95	353.42
386.14	388.53
386.34	390.87
386.53	484.49
386.72	362.78
386.92	411.93
387.11	351.08
387.31	435.34
387.50	341.72
387.70	407.25
387.89	458.74
388.09	425.98
388.28	428.32
388.48	381.51
388.67	468.11
388.86	531.30
389.06	430.66
389.25	526.62
389.45	379.17
389.64	449.38
389.84	493.85
390.03	395.55
390.22	498.53
390.42	512.58
390.61	486.83
390.81	479.81
391.00	496.19
391.19	486.83
391.39	557.05
391.58	514.92
391.78	461.09
391.97	571.09
392.16	510.24
392.36	580.45
392.55	503.22
392.75	545.34
392.94	479.81
393.13	517.26
393.33	554.71
393.52	472.79
393.71	472.79
393.91	592.16
394.10	547.69
394.29	676.41
394.49	561.73
394.68	585.13
394.88	582.79
395.07	613.22
395.26	575.77
395.46	585.13
395.65	634.29
395.84	650.67
396.04	627.26
396.23	634.29
396.42	636.63
396.62	580.45
396.81	667.05
397.00	606.20
397.19	575.77
397.39	657.69
397.58	608.54
397.77	624.92
397.97	732.59
398.16	631.94
398.35	713.86
398.55	805.14
398.74	723.23
398.93	737.27
399.12	688.12
399.32	734.93
399.51	812.17
399.70	681.10
399.90	711.52
400.09	641.31
400.28	732.59
400.47	741.95
400.67	685.78
400.86	823.87
401.05	758.33
401.24	793.44
401.44	786.42
401.63	774.72
401.82	748.97
402.01	765.36
402.21	828.55
402.40	781.74
402.59	800.46
402.78	821.53
402.97	830.89
403.17	882.38
403.36	805.14
403.55	933.87
403.74	896.43
403.93	842.59
404.13	917.49
404.32	954.94
404.51	898.77
404.70	926.85
404.89	823.87
405.09	849.61
405.28	919.83
405.47	961.96
405.66	1055.58
405.85	936.21
406.05	1022.81
406.24	940.90
406.43	1020.47
406.62	1008.77
406.81	1095.37
407.00	957.28
407.20	1074.31
407.39	1006.43
407.58	990.05
407.77	983.02
407.96	1048.56
408.15	1006.43
408.34	1083.67
408.54	1053.24
408.73	1071.97
408.92	1102.39
409.11	1174.95
409.30	1139.84
409.49	1226.44
409.68	1128.14
409.87	1093.03
410.07	1210.06
410.26	1174.95
410.45	1132.82
410.64	1142.18
410.83	1235.80
411.02	1174.95
411.21	1233.46
411.40	1247.51
411.59	1210.06
411.78	1299.00
411.98	1242.82
412.17	1296.66
412.36	1399.64
412.55	1291.98
412.74	1320.06
412.93	1352.83
413.12	1399.64
413.31	1479.22
413.50	1320.06
413.69	1362.19
413.88	1455.81
414.07	1394.96
414.26	1399.64
414.45	1357.51
414.64	1406.66
414.83	1432.41
415.02	1458.15
415.22	1526.03
415.41	1549.43
415.60	1570.50
415.79	1533.05
415.98	1652.42
416.17	1657.10
416.36	1591.56
416.55	1689.87
416.74	1668.80
416.93	1673.48
417.12	1671.14
417.31	1652.42
417.50	1764.76
417.69	1729.66
417.88	1750.72
418.07	1762.42
418.26	1746.04
418.45	1732.00
418.64	1790.51
418.83	1774.13
419.02	1806.89
419.21	1757.74
419.39	1825.62
419.58	1795.19
419.77	1757.74
419.96	1858.39
420.15	1907.54
420.34	1825.62
420.53	1825.62
420.72	1923.92
420.91	1830.30
421.10	1952.01
421.29	2022.22
421.48	1818.60
421.67	1961.37
421.86	1984.77
422.05	1879.45
422.24	1923.92
422.43	1994.14
422.61	1930.94
422.80	2026.90
422.99	2015.20
423.18	1956.69
423.37	2047.97
423.56	2015.20
423.75	1989.46
423.94	1923.92
424.13	2062.01
424.32	1846.68
424.50	2069.03
424.69	1961.37
424.88	2120.53
425.07	2073.71
425.26	1952.01
425.45	2036.27
425.64	1919.24
425.83	2008.18
426.01	2204.78
426.20	2050.31
426.39	1984.77
426.58	1987.11
426.77	2115.84
426.96	2136.91
427.15	1975.41
427.33	2179.04
427.52	2076.06
427.71	2090.10
427.90	2127.55
428.09	2188.40
428.28	2167.34
428.46	2162.66
428.65	2214.15
428.84	2296.07
429.03	2223.51
429.22	2221.17
429.40	2312.45
429.59	2263.30
429.78	2242.23
429.97	2216.49
430.16	2167.34
430.34	2188.40
430.53	2347.56
430.72	2293.72
430.91	2277.34
431.10	2207.13
431.28	2328.83
431.47	2289.04
431.66	2450.54
431.85	2342.88
432.03	2471.61
432.22	2630.76
432.41	2415.43
432.60	2459.90
432.79	2396.71
432.97	2487.99
433.16	2495.01
433.35	2490.33
433.54	2459.90
433.72	2530.12
433.91	2438.84
434.10	2509.05
434.28	2506.71
434.47	2462.24
434.66	2612.04
434.85	2619.06
435.03	2487.99
435.22	2619.06
435.41	2719.70
435.59	2656.51
435.78	2616.72
435.97	2619.06
436.16	2537.14
436.34	2665.87
436.53	2682.25
436.72	2708.00
436.90	2642.46
437.09	2665.87
437.28	2733.75
437.46	2808.64
437.65	2715.02
437.84	2761.83
438.02	2789.92
438.21	2738.43
438.40	2738.43
438.58	2836.73
438.77	2881.20
438.96	2768.85
439.14	2972.48
439.33	2995.89
439.52	2974.82
439.70	3091.85
439.89	2892.90
440.08	2991.20
440.26	3059.08
440.45	3028.65
440.63	3138.66
440.82	3091.85
441.01	3124.62
441.19	3035.67
441.38	3262.71
441.57	3164.40
441.75	3185.47
441.94	3180.79
442.12	3253.34
442.31	3211.22
442.50	3138.66
442.68	3398.46
442.87	3323.56
443.05	3269.73
443.24	3356.33
443.43	3407.82
443.61	3365.69
443.80	3534.21
443.98	3325.90
444.17	3276.75
444.35	3283.77
444.54	3496.76
444.73	3309.52
444.91	3330.58
445.10	3363.35
445.28	3382.07
445.47	3442.93
445.65	3311.86
445.84	3407.82
446.02	3515.48
446.21	3410.16
446.39	3417.18
446.58	3405.48
446.77	3452.29
446.95	3304.84
447.14	3508.46
447.32	3550.59
447.51	3445.27
447.69	3520.17
447.88	3400.80
448.06	3552.93
448.25	3506.12
448.43	3520.17
448.62	3463.99
448.80	3520.17
448.99	3597.40
449.17	3756.56
449.36	3613.79
449.54	3506.12
449.73	3606.77
449.91	3604.42
450.10	3803.37
450.28	3662.94
450.46	3840.82
450.65	3763.58
450.83	3648.90
451.02	3625.49
451.20	3831.46
451.39	3777.62
451.57	3817.41
451.76	3700.39
451.94	3660.60
452.13	3833.80
452.31	3836.14
452.49	3623.15
452.68	3861.88
452.86	3833.80
453.05	3873.59
453.23	4018.70
453.42	3906.35
453.60	3894.65
453.78	3899.33
453.97	3836.14
454.15	3964.87
454.34	3967.21
454.52	3988.27
454.70	3908.69
454.89	4070.19
455.07	4058.49
455.26	4070.19
455.44	3981.25
455.62	4131.05
455.81	4112.32
455.99	4191.90
456.17	4140.41
456.36	4135.73
456.54	4163.81
456.73	4285.52
456.91	4227.01
457.09	4278.50
457.28	4400.21
457.46	4180.20
457.64	4308.93
457.83	4388.50
458.01	4257.43
458.19	4346.37
458.38	4463.40
458.56	4322.97
458.74	4430.63
458.93	4505.53
459.11	4461.06
459.29	4592.13
459.48	4477.44
459.66	4400.21
459.84	4528.94
460.03	4557.02
460.21	4631.92
460.39	4428.29
460.57	4507.87
460.76	4578.09
460.94	4603.83
461.12	4629.58
461.31	4617.88
461.49	4767.67
461.67	4624.90
461.85	4875.34
462.04	4671.71
462.22	4833.21
462.40	4823.84
462.59	4615.54
462.77	4795.76
462.95	4702.14
463.13	4669.37
463.32	4802.78
463.50	4884.70
463.68	4854.27
463.86	4873.00
464.05	4798.10
464.23	4978.32
464.41	5041.51
464.59	4758.31
464.78	5043.85
464.96	4980.66
465.14	4985.34
465.32	4870.65
465.50	5041.51
465.69	5046.20
465.87	4880.02
466.05	4924.49
466.23	5029.81
466.41	4945.55
466.60	5245.14
466.78	5076.62
466.96	5135.14
467.14	5114.07
467.32	5055.56
467.51	5139.82
467.69	5104.71
467.87	5174.92
468.05	5277.91
468.23	5123.43
468.41	5036.83
468.60	5203.01
468.78	5203.01
468.96	5343.44
469.14	5315.36
469.32	5149.18
469.50	5221.74
469.69	5380.89
469.87	5320.04
470.05	5425.36
470.23	5343.44
470.41	5458.13
470.59	5298.97
470.77	5481.53
470.95	5528.35
471.14	5511.96
471.32	5324.72
471.50	5603.24
471.68	5706.23
471.86	5596.22
472.04	5643.03
472.22	5774.10
472.40	5561.11
472.58	5729.63
472.77	5596.22
472.95	5783.46
473.13	5996.45
473.31	5811.55
473.49	5860.70
473.67	5760.06
473.85	5839.64
474.03	6019.86
474.21	5923.90
474.39	6181.35
474.57	6127.52
474.75	6150.93
474.93	6375.62
475.12	6160.29
475.30	6284.34
475.48	6160.29
475.66	6399.02
475.84	6272.64
476.02	6384.98
476.20	6218.80
476.38	6499.67
476.56	6399.02
476.74	6511.37
476.92	6651.80
477.10	6473.92
477.28	6764.15
477.46	6415.41
477.64	6438.81
477.82	6651.80
478.00	7089.48
478.18	6722.02
478.36	6813.30
478.54	6878.83
478.72	7075.44
478.90	7211.19
479.08	7077.78
479.26	7353.96
479.44	7276.73
479.62	7234.60
479.80	7208.85
479.98	7506.10
480.16	7660.57
480.34	7438.22
480.52	7597.38
480.70	7698.02
480.88	7653.55
481.06	7531.84
481.24	7557.59
481.41	7831.43
481.59	7873.56
481.77	8002.29
481.95	8049.10
482.13	8119.32
482.31	8116.98
482.49	8161.45
482.67	8248.05
482.85	8547.64
483.03	8404.86
483.21	8526.57
483.39	8685.73
483.57	8472.74
483.74	8519.55
483.92	8737.22
484.10	8795.73
484.28	9071.92
484.46	9015.74
484.64	9160.86
484.82	8985.32
485.00	9149.15
485.18	9217.03
485.35	9418.32
485.53	9554.07
485.71	9275.54
485.89	9694.50
486.07	9497.89
486.25	9451.08
486.43	9678.12
486.61	9523.64
486.78	9858.34
486.96	9811.53
487.14	9912.17
487.32	9977.70
487.50	10218.78
487.68	10380.28
487.85	10363.89
488.03	10525.39
488.21	10567.52
488.39	10494.96
488.57	10644.76
488.75	10782.85
488.92	10799.23
489.10	10874.13
489.28	10960.73
489.46	10960.73
489.64	10984.13
489.81	11091.80
489.99	11056.69
490.17	11194.78
490.35	11587.99
490.53	11449.90
490.70	11562.25
490.88	11674.59
491.06	11618.42
491.24	11712.04
491.41	11913.33
491.59	11850.13
491.77	11995.25
491.95	12142.70
492.13	12051.42
492.30	12191.85
492.48	12042.06
492.66	12315.90
492.84	12311.22
493.01	12617.83
493.19	12479.74
493.37	12678.68
493.54	12681.02
493.72	12737.20
493.90	12711.45
494.08	12922.10
494.25	13022.74
494.43	13039.12
494.61	13308.29
494.79	13429.99
494.96	13308.29
495.14	13378.50
495.32	13245.09
495.49	13589.15
495.67	13376.16
495.85	13944.91
496.02	13834.91
496.20	14033.85
496.38	13823.20
496.55	13790.44
496.73	14356.85
496.91	14190.67
497.09	14080.66
497.26	14352.16
497.44	14024.49
497.62	14328.76
497.79	14675.16
497.97	14408.34
498.14	14656.43
498.32	14633.03
498.50	14855.38
498.67	14932.62
498.85	14808.57
499.03	14839.00
499.20	14998.15
499.38	15023.90
499.56	15042.62
499.73	15286.04
499.91	15274.34
500.08	15470.94
500.26	15400.72
500.44	15414.77
500.61	15389.02
500.79	15267.31
500.97	15482.64
501.14	15719.04
501.32	15686.27
501.49	15679.25
501.67	15875.85
501.84	15922.66
502.02	15925.00
502.20	16016.29
502.37	16116.93
502.55	16294.81
502.72	16032.67
502.90	16168.42
503.07	15946.07
503.25	16397.79
503.43	16386.09
503.60	16826.11
503.78	16521.84
503.95	16552.27
504.13	16573.33
504.30	16772.28
504.48	16776.96
504.65	16901.01
504.83	16868.24
505.01	17146.76
505.18	17174.85
505.36	16898.67
505.53	16931.44
505.71	16692.70
505.88	17238.05
506.06	17315.28
506.23	17322.30
506.41	16926.75
506.58	17476.78
506.76	17366.78
506.93	17579.76
507.11	17334.01
507.28	17528.27
507.46	17532.95
507.63	17628.92
507.81	17869.99
507.98	17376.14
508.16	17961.27
508.33	17701.47
508.50	17610.19
508.68	18146.17
508.85	18010.42
509.03	18092.34
509.20	17884.03
509.38	18586.19
509.55	18188.30
509.73	18497.25
509.90	18478.53
510.08	18302.99
510.25	18581.51
510.42	18691.52
510.60	18780.46
510.77	18654.07
510.95	18478.53
511.12	18544.06
511.30	18787.48
511.47	18719.60
511.64	18726.63
511.82	18993.45
511.99	18888.12
512.17	19037.92
512.34	18789.82
512.51	18876.42
512.69	19281.33
512.86	19260.27
513.04	19489.64
513.21	19372.61
513.38	19627.73
513.56	19704.97
513.73	19484.96
513.90	19861.79
514.08	19520.07
514.25	19702.63
514.43	19763.48
514.60	19709.65
514.77	19939.02
514.95	19906.26
515.12	19747.10
515.29	19644.12
515.47	20034.99
515.64	20025.62
515.81	20098.18
515.99	20107.54
516.16	20547.56
516.33	20236.27
516.51	20507.77
516.68	20255.00
516.85	20259.68
517.03	20416.49
517.20	20554.58
517.37	20304.15
517.54	20659.91
517.72	20383.73
517.89	20587.35
518.06	20465.64
518.24	20627.14
518.41	20819.07
518.58	20716.08
518.75	20482.03
518.93	21097.59
519.10	21022.69
519.27	20828.43
519.45	20709.06
519.62	21055.46
519.79	21003.97
519.96	20926.73
520.14	21184.19
520.31	21284.83
520.48	21301.22
520.65	21020.35
520.83	21383.13
521.00	21404.20
521.17	21425.26
521.34	21371.43
521.52	21282.49
521.69	21394.84
521.86	21511.86
522.03	21717.83
522.20	21570.38
522.38	21895.71
522.55	21748.26
522.72	21680.38
522.89	22075.93
523.07	21940.18
523.24	22059.55
523.41	22153.17
523.58	21893.37
523.75	21982.31
523.92	22066.57
524.10	22094.66
524.27	22211.68
524.44	22246.79
524.61	22391.91
524.78	22764.05
524.96	22431.69
525.13	22434.03
525.30	22827.24
525.47	22567.45
525.64	22459.78
525.81	22539.36
525.98	22848.31
526.16	22869.37
526.33	22625.96
526.50	22955.97
526.67	23129.17
526.84	23117.47
527.01	22789.80
527.18	22888.10
527.36	23047.26
527.53	23316.42
527.70	23351.52
527.87	23140.88
528.04	23213.43
528.21	23243.86
528.38	23293.01
528.55	23276.63
528.72	23358.55
528.89	23435.78
529.07	23009.81
529.24	23349.18
529.41	23613.66
529.58	23412.38
529.75	23452.17
529.92	23489.62
530.09	23435.78
530.26	23716.65
530.43	23470.89
530.60	23587.92
530.77	23735.37
530.94	23857.08
531.11	23740.05
531.28	23847.72
531.46	23681.54
531.63	23456.85
531.80	23812.61
531.97	24147.31
532.14	24245.61
532.31	23861.76
532.48	23964.75
532.65	24151.99
532.82	24137.94
532.99	23943.68
533.16	24177.73
533.33	24198.80
533.50	24514.77
533.67	24355.61
533.84	24367.32
534.01	24540.52
534.18	24191.78
534.35	24215.18
534.52	24320.51
534.69	24503.07
534.86	24739.46
535.03	24369.66
535.20	24671.59
535.37	25001.60
535.54	24690.31
535.71	24474.98
535.88	24556.90
536.05	24851.81
536.22	25085.86
536.38	25046.07
536.55	24968.84
536.72	25151.40
536.89	24982.88
537.06	24992.24
537.23	25151.40
537.40	24814.36
537.57	24987.56
537.74	25238.00
537.91	25322.26
538.08	25282.47
538.25	24762.87
538.42	25025.01
538.59	25198.21
538.75	24900.96
538.92	25282.47
539.09	25593.76
539.26	25568.01
539.43	25362.04
539.60	25336.30
539.77	25680.36
539.94	25385.45
540.11	25462.69
540.28	25823.13
540.44	25607.80
540.61	25422.90
540.78	25392.47
540.95	25399.49
541.12	25692.06
541.29	25867.60
541.46	25853.56
541.62	25652.27
541.79	26019.74
541.96	25701.42
542.13	25666.31
542.30	25689.72
542.47	26139.10
542.63	26024.42
542.80	26239.75
542.97	26253.79
543.14	26441.03
543.31	26368.48
543.48	25881.64
543.64	26082.93
543.81	26328.69
543.98	26309.96
544.15	26419.97
544.32	26733.60
544.48	26551.04
544.65	26642.32
544.82	26569.76
544.99	26384.86
545.16	26558.06
545.32	26565.08
545.49	26759.34
545.66	26885.73
545.83	26930.20
546.00	26845.94
546.16	27070.64
546.33	26632.96
546.50	26492.52
546.67	26417.63
546.83	26455.08
547.00	26824.88
547.17	26953.61
547.34	26773.39
547.50	26972.33
547.67	27300.01
547.84	26834.24
548.00	27072.98
548.17	27164.26
548.34	27292.99
548.51	27211.07
548.67	27527.04
548.84	27264.90
549.01	27178.30
549.18	27262.56
549.34	27398.31
549.51	27360.86
549.68	27164.26
549.84	27117.45
550.01	27271.92
550.18	27358.52
550.34	27070.64
550.51	27297.67
550.68	27419.38
550.84	27185.32
551.01	27892.16
551.18	27456.82
551.34	27206.39
551.51	27648.75
551.68	27550.45
551.84	27473.21
552.01	27484.91
552.18	27653.43
552.34	28025.57
552.51	27688.54
552.68	27314.05
552.84	27302.35
553.01	27749.39
553.18	27662.79
553.34	28025.57
553.51	27913.23
553.67	28163.67
553.84	27721.30
554.01	28168.35
554.17	28313.46
554.34	28180.05
554.51	27784.50
554.67	27943.66
554.84	28013.87
555.00	27793.86
555.17	27908.55
555.33	28325.16
555.50	27765.78
555.67	27910.89
555.83	27850.03
556.00	27957.70
556.16	28161.33
556.33	28304.10
556.50	27964.72
556.66	28280.69
556.83	28395.38
556.99	28608.37
557.16	28355.59
557.32	28687.95
557.49	28432.83
557.65	28320.48
557.82	28355.59
557.98	28144.94
558.15	28456.23
558.32	28493.68
558.48	28776.89
558.65	28790.93
558.81	28449.21
558.98	28531.13
559.14	28507.72
559.31	28783.91
559.47	28638.80
559.64	28739.44
559.80	28622.41
559.97	28809.65
560.13	28673.90
560.30	28704.33
560.46	28650.50
560.63	28898.59
560.79	28680.92
560.96	28711.35
561.12	28760.50
561.29	28528.79
561.45	28760.50
561.61	29226.27
561.78	28900.94
561.94	29235.63
562.11	28779.23
562.27	29191.16
562.44	28781.57
562.60	28720.71
562.77	28599.01
562.93	28891.57
563.10	29067.11
563.26	29083.50
563.42	28940.72
563.59	28811.99
563.75	28849.44
563.92	29193.50
564.08	28737.10
564.24	28947.75
564.41	28643.48
564.57	28903.28
564.74	29256.70
564.90	29369.04
565.07	29048.39
565.23	29352.66
565.39	29104.56
565.56	29214.57
565.72	29088.18
565.88	28943.06
566.05	29029.66
566.21	29275.42
566.38	28723.05
566.54	28992.22
566.70	29476.71
566.87	29399.47
567.03	28718.37
567.19	29359.68
567.36	29326.91
567.52	29221.59
567.68	29425.22
567.85	29078.82
568.01	29474.37
568.17	28823.70
568.34	29462.66
568.50	29331.59
568.66	29479.05
568.83	30047.80
568.99	29282.44
569.15	29289.46
569.32	29521.18
569.48	29275.42
569.64	29235.63
569.81	29193.50
569.97	29479.05
570.13	29652.25
570.30	29291.80
570.46	29818.42
570.62	29851.19
570.78	29226.27
570.95	29502.45
571.11	29495.43
571.27	29390.11
571.43	29151.37
571.60	29376.06
571.76	29453.30
571.92	29518.84
572.09	29553.94
572.25	29649.91
572.41	29596.07
572.57	29523.52
572.74	29453.30
572.90	29270.74
573.06	29233.29
573.22	29490.75
573.38	29364.36
573.55	29207.55
573.71	29542.24
573.87	29806.72
574.03	29516.50
574.20	29741.19
574.36	29259.04
574.52	29668.63
574.68	29841.83
574.84	29694.38
575.01	29874.60
575.17	29621.82
575.33	29633.52
575.49	29509.47
575.65	29862.90
575.82	29860.55
575.98	29469.69
576.14	29465.00
576.30	29954.18
576.46	29670.97
576.62	29392.45
576.79	29518.84
576.95	29586.71
577.11	29631.18
577.27	29661.61
577.43	29785.66
577.59	29902.68
577.75	29734.17
577.92	29472.03
578.08	29252.02
578.24	29422.87
578.40	29446.28
578.56	29659.27
578.72	29549.26
578.88	29972.90
579.04	30197.59
579.21	29633.52
579.37	29806.72
579.53	29832.47
579.69	29500.11
579.85	29619.48
580.01	29577.35
580.17	29668.63
580.33	29488.41
580.49	29865.24
580.65	30029.07
580.82	29986.94
580.98	29806.72
581.14	29788.00
581.30	30148.44
581.46	29818.42
581.62	29703.74
581.78	29450.96
581.94	29729.48
582.10	29605.44
582.26	29682.67
582.42	30316.96
582.58	30103.97
582.74	29612.46
582.90	29982.26
583.06	29818.42
583.22	29806.72
583.38	30064.18
583.54	29879.28
583.70	29883.96
583.86	29893.32
584.02	29631.18
584.18	30129.72
584.34	30017.37
584.50	30319.30
584.66	30008.01
584.82	29853.53
584.98	29762.25
585.14	30000.99
585.30	29900.34
585.46	30295.89
585.62	29748.21
585.78	29895.66
585.94	29575.01
586.10	29624.16
586.26	30110.99
586.42	30513.56
586.58	30366.11
586.74	30270.15
586.90	29881.62
587.06	29596.07
587.22	30008.01
587.38	29806.72
587.54	30125.04
587.70	30064.18
587.86	30223.34
588.02	30108.65
588.18	29855.87
588.34	29888.64
588.49	30113.33
588.65	29916.73
588.81	29982.26
588.97	29923.75
589.13	30321.64
589.29	30068.86
589.45	30136.74
589.61	30286.53
589.77	30015.03
589.93	30211.64
590.08	30246.74
590.24	30281.85
590.40	30314.62
590.56	29977.58
590.72	29713.10
590.88	30096.95
591.04	30054.82
591.20	30466.75
591.35	30309.94
591.51	30663.36
591.67	30185.89
591.83	30749.96
591.99	30260.79
592.15	30164.82
592.31	30469.09
592.46	29930.77
592.62	30033.75
592.78	29780.98
592.94	30127.38
593.10	30237.38
593.26	30162.48
593.41	30349.73
593.57	30270.15
593.73	30237.38
593.89	30611.87
594.05	30583.78
594.20	30333.34
594.36	30391.86
594.52	29930.77
594.68	30026.73
594.84	29865.24
594.99	30525.27
595.15	30307.60
595.31	30279.51
595.47	30799.11
595.62	30569.74
595.78	30321.64
595.94	30410.58
596.10	30323.98
596.25	30038.44
596.41	30249.08
596.57	29851.19
596.73	30031.41
596.88	30368.45
597.04	30499.52
597.20	30843.58
597.36	30375.47
597.51	31026.14
597.67	30508.88
597.83	30391.86
597.99	30595.48
598.14	30178.87
598.30	30251.42
598.46	30237.38
598.61	30391.86
598.77	30127.38
598.93	30391.86
599.09	30616.55
599.24	30630.59
599.40	30902.09
599.56	30459.73
599.71	30513.56
599.87	30551.01
600.03	30628.25
600.18	30628.25
600.34	30347.39
600.50	30572.08
600.65	30754.64
600.81	30679.74
600.97	30782.73
601.12	30876.35
601.28	30445.69
601.44	30555.69
601.59	30211.64
601.75	30274.83
601.91	30775.70
602.06	30143.76
602.22	30562.72
602.37	30040.78
602.53	30490.16
602.69	30593.14
602.84	30696.13
603.00	30415.26
603.16	30731.23
603.31	30888.05
603.47	30366.11
603.62	30646.97
603.78	30539.31
603.94	30223.34
604.09	30323.98
604.25	30492.50
604.40	30782.73
604.56	30588.46
604.71	30712.51
604.87	30370.79
605.03	30459.73
605.18	30979.33
605.34	30422.28
605.49	30567.40
605.65	30661.02
605.80	30113.33
605.96	30190.57
606.12	30359.09
606.27	30309.94
606.43	30228.02
606.58	30546.33
606.74	30398.88
606.89	30562.72
607.05	30661.02
607.20	30590.80
607.36	30504.20
607.51	30125.04
607.67	30085.25
607.82	30487.82
607.98	30473.78
608.13	30153.12
608.29	30115.67
608.44	30338.02
608.60	30190.57
608.75	30565.06
608.91	30579.10
609.06	30235.04
609.22	30396.54
609.37	29820.77
609.53	30113.33
609.68	30132.06
609.84	30061.84
609.99	30354.41
610.15	30073.54
610.30	30078.22
610.46	30162.48
610.61	30333.34
610.76	30178.87
610.92	30125.04
611.07	30230.36
611.23	29905.02
611.38	30277.17
611.54	30054.82
611.69	30008.01
611.84	29944.81
612.00	29979.92
612.15	29788.00
612.31	30066.52
612.46	29762.25
612.62	29692.04
612.77	30047.80
612.92	29895.66
613.08	30008.01
613.23	29947.15
613.39	29689.70
613.54	29715.44
613.69	29727.14
613.85	29848.85
614.00	29788.00
614.15	29867.58
614.31	29654.59
614.46	29858.21
614.62	29773.95
614.77	29949.50
614.92	30260.79
615.08	29825.45
615.23	29874.60
615.38	30115.67
615.54	29432.24
615.69	29429.90
615.84	29546.92
616.00	29720.12
616.15	29837.15
616.30	29652.25
616.46	29511.81
616.61	29523.52
616.76	29783.32
616.92	29333.93
617.07	30211.64
617.22	29500.11
617.37	29635.86
617.53	29713.10
617.68	29589.05
617.83	29493.09
617.99	29722.46
618.14	29415.85
618.29	29385.43
618.45	29724.80
618.60	29631.18
618.75	29628.84
618.90	29598.41
619.06	29472.03
619.21	29460.32
619.36	29312.87
619.51	29511.81
619.67	29015.62
619.82	29081.16
619.97	29404.15
620.12	29338.62
620.28	29312.87
620.43	29195.84
620.58	29497.77
620.73	29198.18
620.89	29516.50
621.04	29106.90
621.19	29163.08
621.34	29174.78
621.49	29223.93
621.65	29139.67
621.80	29102.22
621.95	29139.67
622.10	29125.63
622.25	28989.88
622.41	28889.23
622.56	28994.56
622.71	29219.25
622.86	28945.41
623.01	29024.98
623.16	29024.98
623.32	28933.70
623.47	28526.45
623.62	29027.32
623.77	28957.11
623.92	28900.94
624.07	28762.84
624.23	28903.28
624.38	28879.87
624.53	28758.16
624.68	28957.11
624.83	29195.84
624.98	29039.03
625.13	29144.35
625.29	28886.89
625.44	29432.24
625.59	28811.99
625.74	28945.41
625.89	28687.95
626.04	28797.95
626.19	28840.08
626.34	28507.72
626.49	28498.36
626.65	28570.92
626.80	28664.54
626.95	28671.56
627.10	28507.72
627.25	28893.91
627.40	28577.94
627.55	28170.69
627.70	28371.97
627.85	28149.62
628.00	28442.19
628.15	28346.23
628.30	28493.68
628.45	28395.38
628.60	28189.41
628.76	28718.37
628.91	28053.66
629.06	28334.53
629.21	28437.51
629.36	28460.91
629.51	28308.78
629.66	28133.24
629.81	28198.77
629.96	28114.52
630.11	28187.07
630.26	27831.31
630.41	27765.78
630.56	28072.39
630.71	28290.06
630.86	28135.58
631.01	28231.54
631.16	28051.32
631.31	28175.37
631.46	27765.78
631.61	28130.90
631.76	28046.64
631.91	27828.97
632.06	27440.44
632.21	27644.07
632.36	27838.33
632.51	27866.42
632.66	28107.49
632.81	27634.71
632.96	28058.34
633.10	27857.06
633.25	27997.49
633.40	27718.96
633.55	27828.97
633.70	27346.82
633.85	27702.58
634.00	27384.27
634.15	27353.84
634.30	27580.87
634.45	27393.63
634.60	27501.29
634.75	27688.54
634.90	27515.34
635.05	27725.99
635.19	27894.50
635.34	28151.96
635.49	27648.75
635.64	27721.30
635.79	27599.60
635.94	27339.80
636.09	27283.62
636.24	27541.08
636.39	27262.56
636.53	27307.03
636.68	27510.66
636.83	27288.31
636.98	27498.95
637.13	27400.65
637.28	27302.35
637.43	27665.13
637.57	27358.52
637.72	27026.17
637.87	27182.98
638.02	27707.26
638.17	27522.36
638.32	26813.18
638.46	27199.37
638.61	27171.28
638.76	26778.07
638.91	27080.00
639.06	26974.67
639.20	27225.11
639.35	27108.08
639.50	26969.99
639.65	27278.94
639.80	27314.05
639.94	27608.96
640.09	27229.79
640.24	27037.87
640.39	26782.75
640.54	27037.87
640.68	26754.66
640.83	26953.61
640.98	26977.01
641.13	26696.15
641.27	26986.38
641.42	26874.03
641.57	26768.71
641.72	26993.40
641.86	26424.65
642.01	26483.16
642.16	26698.49
642.31	26707.85
642.45	26808.50
642.60	26445.71
642.75	26576.78
642.90	26686.79
643.04	27075.32
643.19	26616.57
643.34	26859.99
643.48	26806.16
643.63	26609.55
643.78	26684.45
643.93	26855.31
644.07	26555.72
644.22	26518.27
644.37	26295.92
644.51	26366.13
644.66	26546.36
644.81	26253.79
644.95	26422.31
645.10	26312.30
645.25	26483.16
645.39	26670.40
645.54	26403.58
645.69	26422.31
645.83	26424.65
645.98	26544.02
646.13	26438.69
646.27	26417.63
646.42	26466.78
646.57	26490.18
646.71	26281.88
646.86	26244.43
647.00	26457.42
647.15	26206.98
647.30	26068.89
647.44	26312.30
647.59	25970.58
647.74	26270.17
647.88	26356.77
648.03	26085.27
648.17	26544.02
648.32	26256.13
648.47	26375.50
648.61	26178.89
648.76	26274.85
648.90	26471.46
649.05	26012.71
649.20	25940.16
649.34	25860.58
649.49	25659.29
649.63	25984.63
649.78	25944.84
649.92	26059.52
650.07	25862.92
650.21	26015.05
650.36	25624.18
650.51	25748.23
650.65	25919.09
650.80	25926.11
650.94	25919.09
651.09	25853.56
651.23	25591.42
651.38	25509.50
651.52	25673.34
651.67	25689.72
651.81	25916.75
651.96	26054.84
652.10	25673.34
652.25	25944.84
652.39	25811.43
652.54	25663.97
652.68	25535.24
652.83	25825.47
652.97	26101.65
653.12	25734.19
653.26	25607.80
653.41	25869.94
653.55	25687.38
653.70	25450.99
653.84	25656.95
653.99	25390.13
654.13	25537.59
654.27	25390.13
654.42	25663.97
654.56	25528.22
654.71	25535.24
654.85	25406.52
655.00	25441.62
655.14	25640.57
655.29	25394.81
655.43	25530.56
655.57	25469.71
655.72	25294.17
655.86	25165.44
656.01	25268.42
656.15	25046.07
656.30	25127.99
656.44	25144.38
656.58	24924.36
656.73	24566.26
656.87	24610.73
657.01	25177.14
657.16	25371.41
657.30	25163.10
657.45	25181.82
657.59	25027.35
657.73	24954.79
657.88	24835.42
658.02	25067.14
658.16	24943.09
658.31	24989.90
658.45	24877.55
658.60	25010.96
658.74	24769.89
658.88	24774.57
659.03	24631.80
659.17	25132.67
659.31	24781.59
659.46	24905.64
659.60	24886.92
659.74	24716.06
659.89	24622.44
660.03	25064.80
660.17	24613.07
660.32	24510.09
660.46	24561.58
660.60	24472.64
660.74	24472.64
660.89	24414.13
661.03	24409.45
661.17	24631.80
661.32	24432.85
661.46	24411.79
661.60	24386.04
661.74	24493.71
661.89	24662.22
662.03	24379.02
662.17	24196.46
662.31	24163.69
662.46	24252.63
662.60	23992.83
662.74	23688.56
662.88	23620.69
663.03	23704.95
663.17	23906.23
663.31	23901.55
663.45	23777.50
663.60	23772.82
663.74	23550.47
663.88	23917.93
664.02	23634.73
664.17	24013.90
664.31	23611.32
664.45	23747.08
664.59	23716.65
664.73	23632.39
664.88	23686.22
665.02	23424.08
665.16	23344.50
665.30	23002.78
665.44	23522.38
665.59	23047.26
665.73	23428.76
665.87	23096.41
666.01	23410.04
666.15	23325.78
666.29	23534.09
666.44	22960.66
666.58	23131.51
666.72	22848.31
666.86	23337.48
667.00	23335.14
667.14	22857.67
667.28	23000.44
667.43	22890.44
667.57	22878.74
667.71	22888.10
667.85	23274.29
667.99	22862.35
668.13	22934.91
668.27	22810.86
668.41	23030.87
668.56	22445.74
668.70	22581.49
668.84	22979.38
668.98	22286.58
669.12	22740.64
669.26	22721.92
669.40	22878.74
669.54	22579.15
669.68	22836.61
669.82	22459.78
669.96	22417.65
670.10	22001.04
670.25	22389.56
670.39	22256.15
670.53	22199.98
670.67	22176.58
670.81	22277.22
670.95	22312.33
671.09	22024.44
671.23	22089.98
671.37	22274.88
671.51	21895.71
671.65	22302.96
671.79	21994.01
671.93	22120.40
672.07	21961.25
672.21	21818.47
672.35	21544.63
672.49	21827.84
672.63	21656.98
672.77	21640.59
672.91	21659.32
673.05	21394.84
673.19	21664.00
673.33	21483.78
673.47	21755.28
673.61	21586.76
673.75	21376.11
673.89	21591.44
674.03	21500.16
674.17	21261.43
674.31	21149.08
674.45	21076.52
674.59	20809.70
674.73	21104.61
674.87	21135.04
675.01	20987.58
675.15	20671.61
675.29	20573.31
675.43	21270.79
675.56	20814.38
675.70	21085.89
675.84	21053.12
675.98	20414.15
676.12	20666.93
676.26	20950.14
676.40	20587.35
676.54	20505.43
676.68	20498.41
676.82	19892.21
676.96	20224.57
677.10	20086.48
677.23	20074.77
677.37	20269.04
677.51	19939.02
677.65	20119.24
677.79	19779.87
677.93	19688.59
678.07	19704.97
678.21	19707.31
678.34	19978.81
678.48	19484.96
678.62	19833.70
678.76	19616.03
678.90	19662.84
679.04	19695.61
679.18	19765.82
679.31	19611.35
679.45	19398.36
679.59	19033.24
679.73	19419.42
679.87	19091.75
680.00	18792.16
680.14	19014.51
680.28	18965.36
680.42	18775.78
680.56	18958.34
680.70	19007.49
680.83	18855.36
680.97	18792.16
681.11	18778.12
681.25	18909.19
681.39	18654.07
681.52	18448.10
681.66	18396.61
681.80	18492.57
681.94	18452.78
682.07	18326.39
682.21	18249.16
682.35	17933.18
682.49	18223.41
682.62	17858.29
682.76	18073.62
682.90	17724.88
683.04	17970.63
683.17	17795.09
683.31	18026.81
683.45	17790.41
683.59	17860.63
683.72	17654.66
683.86	17575.08
684.00	17369.12
684.13	17621.89
684.27	17319.96
684.41	17376.14
684.55	17235.70
684.68	17207.62
684.82	16896.33
684.96	17170.17
685.09	17114.00
685.23	17046.12
685.37	16992.29
685.50	17139.74
685.64	16744.19
685.78	16947.82
685.91	17022.72
686.05	16943.14
686.19	16891.65
686.32	16774.62
686.46	16580.36
686.60	16460.99
686.73	16643.55
686.87	16393.11
687.01	16240.98
687.14	16402.47
687.28	16215.23
687.42	16325.24
687.55	16163.74
687.69	16114.59
687.82	15899.26
687.96	15992.88
688.10	15932.03
688.23	16025.65
688.37	15878.19
688.50	15726.06
688.64	15878.19
688.78	16051.39
688.91	15943.73
689.05	15627.76
689.18	15644.14
689.32	15379.66
689.46	15463.92
689.59	15358.60
689.73	15171.35
689.86	15543.50
690.00	15222.84
690.13	15349.23
690.27	14927.94
690.41	15026.24
690.54	14981.77
690.68	15108.16
690.81	15211.14
690.95	15021.56
691.08	15026.24
691.22	14684.52
691.35	14855.38
691.49	14719.63
691.62	14941.98
691.76	14457.49
691.89	14492.60
692.03	14024.49
692.16	14391.95
692.30	14356.85
692.43	14230.46
692.57	14164.92
692.70	14162.58
692.84	14209.39
692.97	14099.39
693.11	13973.00
693.24	13926.19
693.38	13996.40
693.51	13942.57
693.65	14008.11
693.78	13825.54
693.92	13647.66
694.05	13640.64
694.19	13598.51
694.32	13556.38
694.45	13418.29
694.59	13116.36
694.72	13043.81
694.86	13303.60
694.99	12861.24
695.13	13041.46
695.26	13048.49
695.39	12975.93
695.53	13186.58
695.66	13125.72
695.80	13027.42
695.93	13020.40
696.07	12959.55
696.20	12996.99
696.33	13088.28
696.47	12772.30
696.60	12723.15
696.73	12982.95
696.87	12517.18
697.00	12564.00
697.14	12613.15
697.27	12449.31
697.40	12147.38
697.54	12283.13
697.67	12170.79
697.80	12138.02
697.94	12156.74
698.07	12191.85
698.21	12035.03
698.34	12203.55
698.47	11950.78
698.61	11934.39
698.74	12180.15
698.87	12016.31
699.01	11690.98
699.14	11908.65
699.27	11864.18
699.40	11705.02
699.54	11676.93
699.67	11445.22
699.80	11683.95
699.94	11363.30
700.07	11683.95
700.20	11084.78
700.34	11162.01
700.47	11073.07
700.60	11375.00
700.73	11351.60
700.87	11133.93
701.00	11183.08
701.13	11061.37
701.26	10965.41
701.40	11129.25
701.53	11075.42
701.66	10871.79
701.79	10944.34
701.93	10878.81
702.06	10829.66
702.19	10485.60
702.32	10452.83
702.46	10579.22
702.59	10244.52
702.72	10579.22
702.85	10244.52
702.99	10469.22
703.12	10270.27
703.25	10270.27
703.38	10410.70
703.51	10186.01
703.65	10331.12
703.78	10190.69
703.91	9963.66
704.04	10326.44
704.17	10303.04
704.31	10050.26
704.44	9954.30
704.57	9900.47
704.70	9935.57
704.83	9940.26
704.96	9673.43
705.10	9792.80
705.23	9577.47
>>>>>End Processed Spectral Data<<<<<
