SpectraSuite Data File
++++++++++++++++++++++++++++++++++++
Date: Fri Oct 18 13:57:53 GMT-05:00 2013
User: bianchi
Dark Spectrum Present: No
Reference Spectrum Present: No
Number of Sampled Component Spectra: 1
Spectrometers: USB2+H05261
Integration Time (usec): 50000 (USB2+H05261)
Spectra Averaged: 1 (USB2+H05261)
Boxcar Smoothing: 0 (USB2+H05261)
Correct for Electrical Dark: No (USB2+H05261)
Strobe/Lamp Enabled: No (USB2+H05261)
Correct for Detector Non-linearity: No (USB2+H05261)
Correct for Stray Light: No (USB2+H05261)
Number of Pixels in Processed Spectrum: 2048
>>>>>Begin Processed Spectral Data<<<<<
365.73	32.77
365.92	32.77
366.12	32.77
366.32	0.00
366.52	0.00
366.72	0.00
366.91	0.00
367.11	0.00
367.31	0.00
367.51	0.00
367.70	0.00
367.90	0.00
368.10	0.00
368.30	0.00
368.49	0.00
368.69	0.00
368.89	0.00
369.09	0.00
369.28	0.00
369.48	0.00
369.68	0.00
369.87	0.00
370.07	0.00
370.27	0.00
370.47	0.00
370.66	51.49
370.86	205.97
371.06	84.26
371.25	182.56
371.45	121.71
371.65	198.95
371.84	86.60
372.04	98.30
372.24	140.43
372.44	208.31
372.63	194.26
372.83	250.44
373.03	245.76
373.22	212.99
373.42	138.09
373.62	201.29
373.81	142.77
374.01	215.33
374.21	243.42
374.40	245.76
374.60	231.71
374.79	152.13
374.99	187.24
375.19	306.61
375.38	252.78
375.58	262.14
375.78	266.82
375.97	217.67
376.17	248.10
376.37	180.22
376.56	294.91
376.76	255.12
376.95	290.23
377.15	220.01
377.35	203.63
377.54	287.89
377.74	308.95
377.93	299.59
378.13	273.84
378.33	297.25
378.52	215.33
378.72	257.46
378.91	273.84
379.11	252.78
379.31	220.01
379.50	220.01
379.70	346.40
379.89	276.18
380.09	301.93
380.28	362.78
380.48	376.83
380.68	294.91
380.87	266.82
381.07	322.99
381.26	325.33
381.46	266.82
381.65	330.02
381.85	325.33
382.04	264.48
382.24	297.25
382.43	311.29
382.63	358.10
382.83	353.42
383.02	353.42
383.22	365.12
383.41	369.80
383.61	344.06
383.80	353.42
384.00	369.80
384.19	358.10
384.39	341.72
384.58	297.25
384.78	454.06
384.97	393.21
385.17	351.08
385.36	402.57
385.56	362.78
385.75	451.72
385.95	372.15
386.14	428.32
386.34	444.70
386.53	374.49
386.72	383.85
386.92	465.77
387.11	402.57
387.31	402.57
387.50	348.74
387.70	479.81
387.89	512.58
388.09	348.74
388.28	458.74
388.48	451.72
388.67	526.62
388.86	404.91
389.06	461.09
389.25	482.15
389.45	475.13
389.64	400.23
389.84	418.96
390.03	461.09
390.22	500.87
390.42	468.11
390.61	486.83
390.81	465.77
391.00	414.27
391.19	411.93
391.39	561.73
391.58	505.56
391.78	524.28
391.97	500.87
392.16	477.47
392.36	543.00
392.55	535.98
392.75	507.90
392.94	578.11
393.13	550.03
393.33	627.26
393.52	568.75
393.71	533.64
393.91	521.94
394.10	582.79
394.29	540.66
394.49	655.35
394.68	547.69
394.88	596.84
395.07	636.63
395.26	667.05
395.46	615.56
395.65	566.41
395.84	681.10
396.04	594.50
396.23	657.69
396.42	631.94
396.62	582.79
396.81	685.78
397.00	566.41
397.19	688.12
397.39	697.48
397.58	664.71
397.77	669.39
397.97	683.44
398.16	725.57
398.35	634.29
398.55	702.16
398.74	648.33
398.93	767.70
399.12	746.63
399.32	767.70
399.51	716.20
399.70	858.98
399.90	725.57
400.09	732.59
400.28	692.80
400.47	779.40
400.67	765.36
400.86	767.70
401.05	826.21
401.24	807.48
401.44	770.04
401.63	720.88
401.82	748.97
402.01	821.53
402.21	924.51
402.40	870.68
402.59	873.02
402.78	809.83
402.97	819.19
403.17	943.24
403.36	819.19
403.55	1011.11
403.74	919.83
403.93	795.78
404.13	868.34
404.32	837.91
404.51	873.02
404.70	873.02
404.89	863.66
405.09	976.00
405.28	910.47
405.47	882.38
405.66	1020.47
405.85	1013.45
406.05	1032.18
406.24	1039.20
406.43	912.81
406.62	980.68
406.81	994.73
407.00	1032.18
407.20	1041.54
407.39	987.71
407.58	1055.58
407.77	1083.67
407.96	1046.22
408.15	1039.20
408.34	999.41
408.54	1181.97
408.73	1205.38
408.92	1048.56
409.11	1146.86
409.30	1116.44
409.49	1207.72
409.68	1191.33
409.87	1181.97
410.07	1165.59
410.26	1160.91
410.45	1137.50
410.64	1259.21
410.83	1144.52
411.02	1181.97
411.21	1186.65
411.40	1184.31
411.59	1268.57
411.78	1296.66
411.98	1287.29
412.17	1254.53
412.36	1275.59
412.55	1336.45
412.74	1324.74
412.93	1460.49
413.12	1352.83
413.31	1380.92
413.50	1350.49
413.69	1490.92
413.88	1441.77
414.07	1411.34
414.26	1401.98
414.45	1385.60
414.64	1444.11
414.83	1514.33
415.02	1654.76
415.22	1561.14
415.41	1479.22
415.60	1589.22
415.79	1561.14
415.98	1568.16
416.17	1561.14
416.36	1586.88
416.55	1591.56
416.74	1661.78
416.93	1621.99
417.12	1720.29
417.31	1682.85
417.50	1640.72
417.69	1748.38
417.88	1703.91
418.07	1753.06
418.26	1816.26
418.45	1703.91
418.64	1839.66
418.83	1806.89
419.02	1860.73
419.21	1919.24
419.39	1818.60
419.58	1823.28
419.77	1907.54
419.96	1839.66
420.15	1956.69
420.34	2024.56
420.53	1888.81
420.72	1797.53
420.91	1933.28
421.10	1949.67
421.29	1973.07
421.48	1886.47
421.67	1980.09
421.86	1994.14
422.05	1982.43
422.24	1984.77
422.43	2026.90
422.61	2069.03
422.80	2008.18
422.99	1935.62
423.18	2092.44
423.37	1959.03
423.56	1980.09
423.75	2012.86
423.94	1944.99
424.13	1966.05
424.32	1888.81
424.50	2134.57
424.69	2083.08
424.88	2101.80
425.07	1858.39
425.26	2033.93
425.45	1963.71
425.64	2038.61
425.83	2054.99
426.01	2134.57
426.20	2038.61
426.39	2111.16
426.58	2043.29
426.77	1977.75
426.96	2251.60
427.15	2090.10
427.33	2083.08
427.52	2134.57
427.71	2106.48
427.90	2155.63
428.09	2113.50
428.28	2155.63
428.46	2239.89
428.65	2225.85
428.84	2225.85
429.03	2239.89
429.22	2181.38
429.40	2282.02
429.59	2277.34
429.78	2125.21
429.97	2024.56
430.16	2143.93
430.34	2230.53
430.53	2373.30
430.72	2260.96
430.91	2368.62
431.10	2181.38
431.28	2338.20
431.47	2417.77
431.66	2555.86
431.85	2279.68
432.03	2427.14
432.22	2614.38
432.41	2408.41
432.60	2525.44
432.79	2485.65
432.97	2581.61
433.16	2487.99
433.35	2443.52
433.54	2555.86
433.72	2513.74
433.91	2436.50
434.10	2525.44
434.28	2518.42
434.47	2548.84
434.66	2605.02
434.85	2612.04
435.03	2581.61
435.22	2502.03
435.41	2633.10
435.59	2574.59
435.78	2647.15
435.97	2722.04
436.16	2768.85
436.34	2754.81
436.53	2698.64
436.72	2813.32
436.90	2614.38
437.09	2649.49
437.28	2658.85
437.46	2738.43
437.65	2794.60
437.84	2766.51
438.02	2759.49
438.21	2708.00
438.40	2771.19
438.58	2923.33
438.77	2928.01
438.96	2747.79
439.14	2932.69
439.33	2902.26
439.52	2897.58
439.70	3028.65
439.89	2951.42
440.08	2963.12
440.26	3014.61
440.45	3108.23
440.63	3059.08
440.82	3087.17
441.01	3066.10
441.19	3108.23
441.38	3251.00
441.57	3115.25
441.75	3204.19
441.94	3267.39
442.12	3349.31
442.31	3318.88
442.50	3300.16
442.68	3267.39
442.87	3246.32
443.05	3344.63
443.24	3311.86
443.43	3236.96
443.61	3344.63
443.80	3480.38
443.98	3293.13
444.17	3290.79
444.35	3438.25
444.54	3478.04
444.73	3515.48
444.91	3393.78
445.10	3332.92
445.28	3487.40
445.47	3496.76
445.65	3424.20
445.84	3398.46
446.02	3513.14
446.21	3356.33
446.39	3543.57
446.58	3637.19
446.77	3435.91
446.95	3510.80
447.14	3543.57
447.32	3744.86
447.51	3405.48
447.69	3482.72
447.88	3599.74
448.06	3583.36
448.25	3417.18
448.43	3419.52
448.62	3473.36
448.80	3576.34
448.99	3578.68
449.17	3681.66
449.36	3571.66
449.54	3590.38
449.73	3679.32
449.91	3730.81
450.10	3819.75
450.28	3794.01
450.46	3775.28
450.65	3772.94
450.83	3829.12
451.02	3728.47
451.20	3789.33
451.39	3808.05
451.57	3744.86
451.76	3840.82
451.94	3866.56
452.13	3988.27
452.31	3772.94
452.49	3707.41
452.68	3911.04
452.86	3850.18
453.05	3770.60
453.23	3880.61
453.42	3911.04
453.60	3925.08
453.78	3911.04
453.97	3985.93
454.15	3918.06
454.34	3915.72
454.52	3981.25
454.70	3999.98
454.89	4112.32
455.07	4025.72
455.26	4049.13
455.44	4025.72
455.62	4100.62
455.81	3962.53
455.99	4121.68
456.17	4100.62
456.36	4173.18
456.54	4215.30
456.73	4170.83
456.91	4301.90
457.09	4262.12
457.28	4400.21
457.46	4219.99
457.64	4229.35
457.83	4299.56
458.01	4273.82
458.19	4421.27
458.38	4287.86
458.56	4547.66
458.74	4456.38
458.93	4301.90
459.11	4341.69
459.29	4423.61
459.48	4603.83
459.66	4461.06
459.84	4601.49
460.03	4582.77
460.21	4573.41
460.39	4482.13
460.57	4482.13
460.76	4606.17
460.94	4550.00
461.12	4629.58
461.31	4645.96
461.49	4805.12
461.67	4720.86
461.85	4657.67
462.04	4711.50
462.22	4882.36
462.40	4821.50
462.59	4685.75
462.77	4781.71
462.95	4873.00
463.13	4634.26
463.32	4809.80
463.50	4842.57
463.68	4746.61
463.86	4858.95
464.05	4882.36
464.23	4793.42
464.41	4851.93
464.59	4933.85
464.78	4999.38
464.96	4861.29
465.14	4786.40
465.32	5064.92
465.50	4903.42
465.69	5064.92
465.87	4898.74
466.05	5142.16
466.23	4837.89
466.41	4940.87
466.60	5245.14
466.78	5046.20
466.96	4858.95
467.14	5224.08
467.32	5130.45
467.51	5331.74
467.69	5104.71
467.87	5207.69
468.05	5235.78
468.23	5167.90
468.41	5095.35
468.60	5137.48
468.78	5315.36
468.96	5121.09
469.14	5095.35
469.32	5460.47
469.50	5170.24
469.69	5329.40
469.87	5488.56
470.05	5518.98
470.23	5472.17
470.41	5394.93
470.59	5514.30
470.77	5343.44
470.95	5668.78
471.14	5575.16
471.32	5441.75
471.50	5647.71
471.68	5621.97
471.86	5495.58
472.04	5614.95
472.22	5790.49
472.40	5657.07
472.58	5738.99
472.77	5715.59
472.95	5898.15
473.13	5954.32
473.31	5900.49
473.49	5968.37
473.67	5998.79
473.85	5966.03
474.03	5954.32
474.21	5872.40
474.39	5968.37
474.57	6059.65
474.75	6183.70
474.93	6223.48
475.12	6183.70
475.30	6251.57
475.48	6171.99
475.66	6118.16
475.84	6408.39
476.02	6387.32
476.20	6445.84
476.38	6420.09
476.56	6649.46
476.74	6441.15
476.92	6445.84
477.10	6553.50
477.28	6743.08
477.46	6546.48
477.64	6775.85
477.82	6707.98
478.00	6998.20
478.18	7033.31
478.36	7138.63
478.54	7105.87
478.72	7056.72
478.90	7087.14
479.08	7131.61
479.26	7187.79
479.44	7349.28
479.62	7293.11
479.80	7440.56
479.98	7370.35
480.16	7538.87
480.34	7473.33
480.52	7588.02
480.70	7527.16
480.88	7611.42
481.06	7728.45
481.24	7709.72
481.41	7723.77
481.59	8013.99
481.77	8018.68
481.95	7990.59
482.13	8133.36
482.31	8105.28
482.49	8184.85
482.67	8266.77
482.85	8594.45
483.03	8683.39
483.21	8713.81
483.39	8465.72
483.57	8645.94
483.74	8667.00
483.92	8814.46
484.10	8538.27
484.28	8901.06
484.46	9095.32
484.64	9231.07
484.82	8994.68
485.00	9151.49
485.18	9221.71
485.35	9446.40
485.53	9231.07
485.71	9640.67
485.89	9760.03
486.07	9579.81
486.25	9549.39
486.43	9736.63
486.61	9680.46
486.78	9877.06
486.96	10113.45
487.14	10176.65
487.32	10284.31
487.50	10281.97
487.68	10251.55
487.85	10324.10
488.03	10424.75
488.21	10860.09
488.39	10675.18
488.57	10679.86
488.75	10665.82
488.92	10736.04
489.10	10946.69
489.28	10949.03
489.46	11267.34
489.64	11080.10
489.81	11599.70
489.99	11262.66
490.17	11138.61
490.35	11459.26
490.53	11775.24
490.70	11632.46
490.88	11496.71
491.06	11887.58
491.24	11812.68
491.41	11915.67
491.59	11950.78
491.77	12023.33
491.95	12159.08
492.13	12238.66
492.30	12430.59
492.48	12402.50
492.66	12404.84
492.84	12463.35
493.01	12568.68
493.19	12545.27
493.37	12779.32
493.54	12587.40
493.72	12835.50
493.90	13018.06
494.08	12996.99
494.25	13060.19
494.43	13259.13
494.61	13535.32
494.79	13420.63
494.96	13312.97
495.14	13378.50
495.32	13469.78
495.49	13460.42
495.67	14026.83
495.85	13998.74
496.02	13977.68
496.20	13907.46
496.38	13806.82
496.55	14083.00
496.73	14279.61
496.91	14050.24
497.09	14267.91
497.26	14588.56
497.44	14471.53
497.62	14181.31
497.79	14679.84
497.97	14398.98
498.14	14862.40
498.32	14949.00
498.50	14979.43
498.67	15084.75
498.85	15068.37
499.03	15068.37
499.20	15236.89
499.38	15126.88
499.56	15232.21
499.73	15447.54
499.91	15220.50
500.08	15456.90
500.26	15550.52
500.44	15431.15
500.61	15730.74
500.79	15487.32
500.97	15831.38
501.14	16037.35
501.32	15857.13
501.49	15929.69
501.67	15819.68
501.84	16046.71
502.02	16271.40
502.20	16226.93
502.37	16201.19
502.55	16304.17
502.72	16056.08
502.90	16245.66
503.07	16177.78
503.25	16379.07
503.43	16336.94
503.60	16566.31
503.78	16908.03
503.95	16617.80
504.13	16681.00
504.30	16659.93
504.48	16535.88
504.65	16718.45
504.83	16978.25
505.01	17266.13
505.18	17308.26
505.36	17235.70
505.53	17046.12
505.71	17216.98
505.88	17139.74
506.06	17043.78
506.23	17317.62
506.41	17422.95
506.58	17376.14
506.76	17418.27
506.93	17657.00
507.11	17680.41
507.28	17619.55
507.46	17774.03
507.63	17827.86
507.81	18054.89
507.98	17642.96
508.16	18202.35
508.33	17951.91
508.50	17804.46
508.68	18071.28
508.85	18087.66
509.03	18134.47
509.20	18052.55
509.38	18647.05
509.55	18328.74
509.73	18518.32
509.90	18572.15
510.08	18487.89
510.25	18663.43
510.42	18574.49
510.60	18934.93
510.77	18869.40
510.95	18857.70
511.12	18759.39
511.30	18876.42
511.47	18757.05
511.64	18899.83
511.82	19009.83
511.99	19168.99
512.17	19201.76
512.34	19248.57
512.51	19204.10
512.69	18986.43
512.86	19257.93
513.04	19323.46
513.21	19330.48
513.38	19456.87
513.56	19644.12
513.73	19040.26
513.90	19463.90
514.08	19733.06
514.25	19676.88
514.43	19709.65
514.60	19894.55
514.77	20020.94
514.95	20126.27
515.12	20027.96
515.29	20123.93
515.47	20053.71
515.64	20065.41
515.81	20210.53
515.99	20444.58
516.16	20472.67
516.33	20467.98
516.51	20587.35
516.68	20257.34
516.85	20269.04
517.03	20465.64
517.20	20889.28
517.37	20716.08
517.54	20554.58
517.72	20739.49
517.89	20821.41
518.06	20833.11
518.24	20599.05
518.41	20821.41
518.58	20985.24
518.75	21064.82
518.93	20732.47
519.10	21308.24
519.27	21046.10
519.45	20617.78
519.62	21238.02
519.79	21563.36
519.96	21443.99
520.14	21193.55
520.31	21172.49
520.48	21479.10
520.65	21359.73
520.83	21451.01
521.00	21706.13
521.17	21565.70
521.34	21535.27
521.52	21310.58
521.69	21811.45
521.86	22064.23
522.03	21879.33
522.20	22258.49
522.38	22033.80
522.55	21958.91
522.72	22047.85
522.89	21902.73
523.07	22192.96
523.24	22003.38
523.41	22361.48
523.58	22338.07
523.75	22518.29
523.92	22047.85
524.10	22307.65
524.27	22555.74
524.44	22588.51
524.61	22672.77
524.78	22579.15
524.96	22539.36
525.13	22504.25
525.30	22569.79
525.47	23061.30
525.64	22560.42
525.81	23190.03
525.98	22991.08
526.16	22785.12
526.33	23147.90
526.50	23168.96
526.67	22817.88
526.84	22813.20
527.01	23012.15
527.18	23222.80
527.36	22958.31
527.53	23410.04
527.70	23580.90
527.87	23318.76
528.04	23400.68
528.21	23126.83
528.38	23014.49
528.55	23356.21
528.72	23522.38
528.89	23931.98
529.07	23372.59
529.24	23419.40
529.41	23920.28
529.58	23569.19
529.75	23660.48
529.92	23901.55
530.09	23814.95
530.26	23623.03
530.43	23814.95
530.60	23307.05
530.77	23779.84
530.94	24196.46
531.11	23814.95
531.28	23857.08
531.46	23887.51
531.63	23906.23
531.80	24240.93
531.97	24159.01
532.14	24467.96
532.31	24168.37
532.48	24170.71
532.65	24367.32
532.82	23990.49
532.99	24353.27
533.16	24072.41
533.33	24474.98
533.50	24755.85
533.67	24430.51
533.84	24203.48
534.01	24692.65
534.18	24849.47
534.35	24744.14
534.52	24613.07
534.69	24517.11
534.86	24666.91
535.03	24748.82
535.20	25165.44
535.37	24634.14
535.54	25055.43
535.71	24964.15
535.88	24844.79
536.05	24858.83
536.22	25046.07
536.38	25099.90
536.55	25165.44
536.72	25172.46
536.89	24961.81
537.06	25174.80
537.23	25336.30
537.40	25111.61
537.57	25366.73
537.74	25340.98
537.91	25647.59
538.08	25198.21
538.25	25359.70
538.42	25373.75
538.59	25338.64
538.75	25200.55
538.92	25469.71
539.09	25500.14
539.26	25750.57
539.43	25701.42
539.60	25848.88
539.77	25568.01
539.94	25446.30
540.11	25905.05
540.28	25656.95
540.44	25736.53
540.61	25965.90
540.78	25549.29
540.95	25972.92
541.12	25851.22
541.29	25989.31
541.46	25989.31
541.62	25715.47
541.79	25940.16
541.96	25685.04
542.13	26150.81
542.30	26160.17
542.47	26408.26
542.63	25977.61
542.80	26448.05
542.97	26492.52
543.14	26295.92
543.31	26384.86
543.48	26597.85
543.64	26707.85
543.81	26555.72
543.98	26679.77
544.15	26534.65
544.32	26572.10
544.48	26958.29
544.65	26483.16
544.82	26391.88
544.99	26291.24
545.16	26616.57
545.32	26895.10
545.49	26799.13
545.66	26958.29
545.83	27007.44
546.00	26974.67
546.16	27152.55
546.33	27117.45
546.50	26506.57
546.67	27140.85
546.83	26806.16
547.00	26843.60
547.17	26925.52
547.34	27491.93
547.50	27143.19
547.67	27601.94
547.84	27250.86
548.00	26960.63
548.17	27498.95
548.34	27213.41
548.51	27117.45
548.67	27208.73
548.84	27463.85
549.01	27407.67
549.18	27344.48
549.34	27484.91
549.51	27400.65
549.68	27508.32
549.84	27417.04
550.01	27438.10
550.18	27557.47
550.34	27606.62
550.51	28023.23
550.68	27754.07
550.84	27604.28
551.01	27529.38
551.18	27896.85
551.34	27391.29
551.51	27810.25
551.68	27917.91
551.84	27761.09
552.01	27938.97
552.18	28006.85
552.34	28215.16
552.51	28177.71
552.68	27688.54
552.84	27960.04
553.01	28121.54
553.18	28023.23
553.34	28051.32
553.51	27967.06
553.67	28332.18
553.84	28362.61
554.01	27992.81
554.17	28137.92
554.34	28074.73
554.51	28414.10
554.67	28486.66
554.84	28264.31
555.00	27938.97
555.17	28470.28
555.33	28533.47
555.50	28072.39
555.67	28105.15
555.83	28786.25
556.00	28591.98
556.16	28610.71
556.33	28278.35
556.50	28369.63
556.66	28594.32
556.83	28458.57
556.99	29099.88
557.16	28954.77
557.32	28891.57
557.49	28819.02
557.65	28699.65
557.82	28840.08
557.98	28624.75
558.15	28692.63
558.32	28723.05
558.48	28811.99
558.65	29347.98
558.81	28856.46
558.98	28694.97
559.14	28739.44
559.31	28844.76
559.47	29048.39
559.64	29179.46
559.80	28814.34
559.97	29083.50
560.13	28814.34
560.30	28919.66
560.46	29240.31
560.63	28950.09
560.79	29020.30
560.96	29111.58
561.12	29256.70
561.29	29046.05
561.45	29149.03
561.61	29415.85
561.78	28980.51
561.94	29319.89
562.11	29022.64
562.27	29078.82
562.44	28912.64
562.60	29090.52
562.77	28870.51
562.93	29010.94
563.10	29284.78
563.26	29046.05
563.42	29336.27
563.59	29376.06
563.75	29364.36
563.92	29378.40
564.08	28968.81
564.24	29259.04
564.41	29048.39
564.57	29137.33
564.74	29240.31
564.90	29301.17
565.07	29373.72
565.23	29441.60
565.39	29268.40
565.56	29226.27
565.72	29303.51
565.88	29331.59
566.05	29497.77
566.21	29156.05
566.38	29371.38
566.54	29390.11
566.70	29750.55
566.87	29647.57
567.03	29493.09
567.19	29502.45
567.36	29563.31
567.52	29706.08
567.68	29476.71
567.85	29509.47
568.01	29352.66
568.17	29820.77
568.34	29820.77
568.50	29406.49
568.66	29640.54
568.83	29972.90
568.99	29680.33
569.15	29762.25
569.32	29542.24
569.48	29830.13
569.64	29675.65
569.81	29567.99
569.97	29497.77
570.13	29844.17
570.30	29408.83
570.46	29722.46
570.62	29755.23
570.78	29677.99
570.95	29186.48
571.11	29851.19
571.27	29563.31
571.43	29724.80
571.60	29560.97
571.76	30008.01
571.92	29778.64
572.09	29694.38
572.25	29883.96
572.41	29773.95
572.57	29834.81
572.74	29902.68
572.90	29553.94
573.06	29764.59
573.22	29532.88
573.38	29750.55
573.55	30043.12
573.71	30146.10
573.87	29928.43
574.03	29883.96
574.20	29589.05
574.36	29593.73
574.52	29514.16
574.68	29809.06
574.84	29921.41
575.01	30206.95
575.17	29909.71
575.33	29825.45
575.49	29699.06
575.65	30038.44
575.82	29993.97
575.98	29909.71
576.14	30384.83
576.30	29619.48
576.46	29507.13
576.62	29741.19
576.79	30185.89
576.95	29956.52
577.11	30075.88
577.27	30010.35
577.43	30183.55
577.59	29783.32
577.75	30057.16
577.92	29617.14
578.08	29818.42
578.24	30382.49
578.40	30174.19
578.56	30181.21
578.72	30113.33
578.88	30092.27
579.04	30555.69
579.21	30066.52
579.37	30064.18
579.53	29858.21
579.69	29762.25
579.85	30171.85
580.01	30080.56
580.17	29778.64
580.33	29958.86
580.49	30057.16
580.65	30277.17
580.82	30445.69
580.98	30080.56
581.14	29659.27
581.30	30169.51
581.46	30106.31
581.62	30122.69
581.78	29940.13
581.94	30195.25
582.10	29839.49
582.26	30249.08
582.42	30431.65
582.58	30611.87
582.74	30347.39
582.90	30094.61
583.06	30354.41
583.22	30307.60
583.38	30228.02
583.54	30316.96
583.70	30073.54
583.86	30015.03
584.02	29940.13
584.18	30270.15
584.34	30536.97
584.50	30422.28
584.66	30050.14
584.82	30022.05
584.98	30221.00
585.14	30281.85
585.30	29979.92
585.46	29968.22
585.62	30384.83
585.78	30120.35
585.94	30080.56
586.10	30368.45
586.26	30195.25
586.42	30466.75
586.58	30015.03
586.74	30342.70
586.90	29663.95
587.06	29694.38
587.22	30148.44
587.38	30471.43
587.54	30118.01
587.70	30295.89
587.86	30237.38
588.02	30646.97
588.18	30888.05
588.34	30689.10
588.49	30230.36
588.65	30501.86
588.81	30148.44
588.97	30417.60
589.13	30199.93
589.29	29996.31
589.45	30625.91
589.61	30651.66
589.77	31042.53
589.93	30590.80
590.08	30625.91
590.24	30705.49
590.40	30558.03
590.56	30775.70
590.72	30541.65
590.88	30398.88
591.04	29858.21
591.20	30436.33
591.35	30848.26
591.51	30806.13
591.67	30745.28
591.83	30962.95
591.99	31014.44
592.15	30747.62
592.31	30604.84
592.46	30054.82
592.62	30506.54
592.78	30321.64
592.94	30565.06
593.10	30445.69
593.26	30948.90
593.41	30644.63
593.57	30733.57
593.73	30874.01
593.89	30614.21
594.05	30630.59
594.20	30520.59
594.36	30794.43
594.52	30370.79
594.68	30761.66
594.84	30295.89
594.99	31152.53
595.15	30639.95
595.31	30885.71
595.47	30843.58
595.62	30946.56
595.78	30710.17
595.94	30504.20
596.10	30796.77
596.25	30551.01
596.41	30675.06
596.57	30178.87
596.73	30958.27
596.88	30429.30
597.04	30614.21
597.20	30859.96
597.36	30635.27
597.51	31285.94
597.67	30834.22
597.83	30726.55
597.99	30937.20
598.14	30548.67
598.30	30672.72
598.46	30859.96
598.61	31173.60
598.77	30742.94
598.93	30707.83
599.09	30749.96
599.24	31346.79
599.40	30951.24
599.56	30721.87
599.71	30902.09
599.87	30726.55
600.03	30740.60
600.18	30817.83
600.34	30551.01
600.50	30838.90
600.65	30735.92
600.81	30904.43
600.97	31253.17
601.12	31292.96
601.28	31040.18
601.44	30848.26
601.59	30895.07
601.75	30850.60
601.91	30993.37
602.06	31126.78
602.22	30857.62
602.37	30906.77
602.53	31101.04
602.69	31065.93
602.84	30742.94
603.00	31166.57
603.16	30572.08
603.31	30696.13
603.47	30534.63
603.62	30808.47
603.78	30677.40
603.94	30714.85
604.09	30850.60
604.25	30668.04
604.40	31087.00
604.56	30988.69
604.71	31075.29
604.87	30824.86
605.03	31119.76
605.18	30794.43
605.34	30864.64
605.49	30670.38
605.65	30761.66
605.80	30443.35
605.96	30749.96
606.12	30745.28
606.27	30965.29
606.43	30618.89
606.58	30897.41
606.74	30618.89
606.89	30888.05
607.05	31068.27
607.20	31433.39
607.36	31044.87
607.51	30941.88
607.67	30565.06
607.82	30419.94
607.98	30534.63
608.13	30778.04
608.29	30649.32
608.44	30738.26
608.60	30391.86
608.75	30965.29
608.91	30789.75
609.06	30576.76
609.22	30712.51
609.37	30216.32
609.53	30284.19
609.68	30426.96
609.84	30487.82
609.99	30717.19
610.15	30642.29
610.30	30361.43
610.46	30487.82
610.61	30752.30
610.76	30869.33
610.92	30600.16
611.07	30221.00
611.23	30637.61
611.38	30417.60
611.54	30040.78
611.69	30244.40
611.84	30417.60
612.00	30412.92
612.15	30146.10
612.31	30724.21
612.46	30270.15
612.62	30646.97
612.77	30307.60
612.92	30464.41
613.08	30625.91
613.23	30520.59
613.39	30380.15
613.54	30272.49
613.69	30366.11
613.85	30073.54
614.00	30251.42
614.15	30792.09
614.31	30143.76
614.46	30478.46
614.62	30267.81
614.77	30209.29
614.92	30326.32
615.08	30244.40
615.23	30075.88
615.38	30078.22
615.54	30017.37
615.69	29954.18
615.84	29890.98
616.00	30071.20
616.15	29977.58
616.30	30302.92
616.46	30331.00
616.61	30642.29
616.76	30284.19
616.92	29907.37
617.07	30267.81
617.22	29715.44
617.37	30150.78
617.53	30103.97
617.68	30012.69
617.83	29827.79
617.99	30146.10
618.14	29752.89
618.29	29841.83
618.45	30043.12
618.60	29933.11
618.75	29638.20
618.90	30115.67
619.06	29984.60
619.21	29919.07
619.36	30015.03
619.51	29572.67
619.67	29483.73
619.82	29729.48
619.97	29895.66
620.12	29736.51
620.28	29376.06
620.43	29242.65
620.58	29776.30
620.73	29556.28
620.89	29900.34
621.04	29862.90
621.19	29535.22
621.34	29371.38
621.49	29652.25
621.65	29556.28
621.80	29862.90
621.95	29312.87
622.10	29790.34
622.25	29694.38
622.41	29146.69
622.56	29624.16
622.71	29500.11
622.86	29432.24
623.01	29511.81
623.16	29558.63
623.32	29317.55
623.47	29305.85
623.62	29355.00
623.77	29331.59
623.92	29448.62
624.07	29340.96
624.23	29546.92
624.38	29567.99
624.53	29116.26
624.68	29558.63
624.83	29230.95
624.98	29434.58
625.13	29160.73
625.29	29336.27
625.44	29467.34
625.59	28603.69
625.74	28854.12
625.89	28947.75
626.04	28879.87
626.19	29149.03
626.34	28816.68
626.49	28664.54
626.65	28863.49
626.80	29139.67
626.95	28889.23
627.10	28917.32
627.25	28966.47
627.40	29083.50
627.55	28692.63
627.70	28556.88
627.85	28690.29
628.00	28477.30
628.15	29156.05
628.30	28297.08
628.45	28746.46
628.60	28411.76
628.76	28720.71
628.91	28891.57
629.06	28776.89
629.21	28814.34
629.36	28760.50
629.51	28606.03
629.66	28341.55
629.81	28685.61
629.96	28727.74
630.11	28435.17
630.26	28091.11
630.41	28362.61
630.56	28276.01
630.71	28290.06
630.86	28229.20
631.01	28439.85
631.16	28463.25
631.31	28898.59
631.46	28343.89
631.61	28383.68
631.76	28350.91
631.91	28542.83
632.06	28416.44
632.21	28079.41
632.36	28238.56
632.51	27850.03
632.66	28126.22
632.81	28191.75
632.96	28374.31
633.10	28397.72
633.25	28357.93
633.40	28435.17
633.55	28217.50
633.70	27875.78
633.85	27960.04
634.00	27950.68
634.15	28409.42
634.30	27754.07
634.45	28002.17
634.60	27644.07
634.75	28278.35
634.90	27997.49
635.05	28098.13
635.19	27995.15
635.34	28470.28
635.49	27948.34
635.64	28133.24
635.79	28093.45
635.94	27887.48
636.09	28030.26
636.24	27704.92
636.39	27850.03
636.53	27873.44
636.68	27768.12
636.83	27700.24
636.98	27971.74
637.13	27826.63
637.28	27800.88
637.43	27690.88
637.57	27683.86
637.72	27819.61
637.87	27868.76
638.02	27756.41
638.17	27618.32
638.32	27445.12
638.46	27536.40
638.61	27707.26
638.76	27637.05
638.91	27536.40
639.06	27484.91
639.20	27447.46
639.35	27927.27
639.50	27964.72
639.65	27786.84
639.80	27737.69
639.94	27459.16
640.09	27641.73
640.24	27573.85
640.39	27150.21
640.54	27080.00
640.68	27138.51
640.83	26871.69
640.98	27454.48
641.13	26838.92
641.27	27466.19
641.42	27019.14
641.57	27227.45
641.72	27517.68
641.86	26944.25
642.01	26787.43
642.16	27065.96
642.31	27264.90
642.45	26965.31
642.60	26836.58
642.75	26792.11
642.90	27126.81
643.04	27325.75
643.19	27152.55
643.34	27108.08
643.48	27037.87
643.63	26995.74
643.78	26859.99
643.93	26969.99
644.07	26897.44
644.22	26951.27
644.37	27033.19
644.51	27000.42
644.66	26838.92
644.81	26700.83
644.95	26787.43
645.10	26625.93
645.25	26918.50
645.39	26700.83
645.54	26485.50
645.69	27016.80
645.83	27166.60
645.98	26799.13
646.13	26609.55
646.27	26927.86
646.42	26890.41
646.57	26520.61
646.71	26885.73
646.86	26703.17
647.00	26326.35
647.15	26316.98
647.30	26686.79
647.44	26101.65
647.59	26363.79
647.74	26562.74
647.88	26473.80
648.03	26637.64
648.17	26572.10
648.32	26731.26
648.47	26810.84
648.61	26356.77
648.76	26424.65
648.90	26518.27
649.05	26607.21
649.20	26188.25
649.34	26558.06
649.49	25937.82
649.63	26391.88
649.78	26221.02
649.92	26408.26
650.07	26195.28
650.21	26164.85
650.36	25935.48
650.51	26167.19
650.65	26562.74
650.80	25928.45
650.94	26333.37
651.09	26017.40
651.23	25975.27
651.38	26335.71
651.52	26209.32
651.67	26101.65
651.81	26295.92
651.96	26089.95
652.10	26106.34
652.25	26263.15
652.39	26244.43
652.54	26581.46
652.68	26394.22
652.83	26094.63
652.97	26092.29
653.12	26115.70
653.26	26214.00
653.41	25869.94
653.55	25926.11
653.70	25984.63
653.84	25914.41
653.99	26054.84
654.13	25797.38
654.27	25652.27
654.42	25708.44
654.56	25795.04
654.71	25944.84
654.85	26001.01
655.00	25816.11
655.14	25914.41
655.29	25575.03
655.43	25783.34
655.57	25729.51
655.72	25614.82
655.86	25701.42
656.01	25390.13
656.15	25472.05
656.30	25373.75
656.44	25663.97
656.58	25537.59
656.73	25523.54
656.87	25340.98
657.01	25364.39
657.16	25544.61
657.30	25914.41
657.45	25514.18
657.59	25418.22
657.73	25158.42
657.88	25298.85
658.02	25153.74
658.16	25514.18
658.31	25003.94
658.45	25106.93
658.60	25109.27
658.74	25177.14
658.88	25195.87
659.03	24816.70
659.17	25352.68
659.31	25223.95
659.46	25245.02
659.60	25230.98
659.74	25104.59
659.89	25017.99
660.03	25130.33
660.17	24936.07
660.32	24924.36
660.46	24849.47
660.60	24439.87
660.74	24650.52
660.89	24584.99
661.03	24650.52
661.17	24800.32
661.32	24795.64
661.46	24847.13
661.60	24442.21
661.74	24690.31
661.89	24615.41
662.03	24767.55
662.17	24847.13
662.31	24533.50
662.46	24552.22
662.60	24606.05
662.74	24437.53
662.88	24444.56
663.03	24416.47
663.17	24135.60
663.31	24184.76
663.45	23976.45
663.60	23983.47
663.74	24208.16
663.88	23939.00
664.02	23817.29
664.17	24542.86
664.31	24065.39
664.45	23852.40
664.59	23723.67
664.73	24421.15
664.88	23915.59
665.02	23601.96
665.16	23428.76
665.30	24060.71
665.44	23920.28
665.59	23253.22
665.73	23557.49
665.87	23606.64
666.01	23824.31
666.15	23800.91
666.29	23791.55
666.44	23665.16
666.58	23433.44
666.72	23496.64
666.86	23569.19
667.00	23845.38
667.14	23700.26
667.28	23208.75
667.43	23976.45
667.57	23288.33
667.71	23274.29
667.85	23379.61
667.99	23108.11
668.13	23206.41
668.27	23344.50
668.41	23255.56
668.56	22838.95
668.70	23257.90
668.84	23227.48
668.98	23117.47
669.12	22988.74
669.26	23283.65
669.40	22719.58
669.54	23255.56
669.68	22827.24
669.82	22553.40
669.96	22745.33
670.10	22501.91
670.25	22363.82
670.39	22724.26
670.53	22609.58
670.67	22508.93
670.81	22553.40
670.95	22941.93
671.09	22286.58
671.23	22441.06
671.37	22309.99
671.51	22403.61
671.65	22178.92
671.79	22382.54
671.93	22258.49
672.07	22450.42
672.21	21926.14
672.35	21991.67
672.49	22111.04
672.63	21865.28
672.77	21865.28
672.91	21624.21
673.05	21968.27
673.19	22036.14
673.33	21965.93
673.47	21923.80
673.61	21766.98
673.75	21551.65
673.89	21928.48
674.03	21774.00
674.17	21745.92
674.31	21867.63
674.45	21383.13
674.59	21635.91
674.73	21717.83
674.87	21205.25
675.01	21261.43
675.15	21139.72
675.29	20865.88
675.43	21191.21
675.56	20872.90
675.70	21111.63
675.84	20971.20
675.98	20470.33
676.12	21296.53
676.26	20996.95
676.40	21146.74
676.54	21020.35
676.68	20781.62
676.82	20475.01
676.96	20458.62
677.10	20465.64
677.23	20273.72
677.37	20517.14
677.51	20559.27
677.65	20414.15
677.79	20215.21
677.93	20070.09
678.07	20208.19
678.21	19913.28
678.34	19957.75
678.48	20140.31
678.62	20175.42
678.76	19990.52
678.90	19674.54
679.04	19948.39
679.18	19721.35
679.31	19501.34
679.45	19246.23
679.59	19711.99
679.73	19620.71
679.87	19323.46
680.00	19314.10
680.14	19269.63
680.28	19253.25
680.42	19248.57
680.56	19527.09
680.70	19225.16
680.83	19286.01
680.97	19152.60
681.11	18977.06
681.25	19084.73
681.39	18824.93
681.52	19204.10
681.66	18803.86
681.80	18633.00
681.94	18600.24
682.07	18712.58
682.21	18317.03
682.35	18274.90
682.49	18284.26
682.62	18401.29
682.76	18518.32
682.90	18352.14
683.04	18490.23
683.17	18113.41
683.31	18295.97
683.45	17930.84
683.59	18298.31
683.72	18197.67
683.86	18045.53
684.00	17898.08
684.13	17755.30
684.27	17525.93
684.41	17743.60
684.55	17572.74
684.68	17385.50
684.82	17408.90
684.96	17474.44
685.09	17362.09
685.23	17256.77
685.37	17228.68
685.50	17249.75
685.64	17334.01
685.78	17224.00
685.91	17378.48
686.05	16985.27
686.19	17114.00
686.32	17303.58
686.46	17018.04
686.60	16528.86
686.73	16727.81
686.87	16720.79
687.01	16613.12
687.14	16468.01
687.28	16533.54
687.42	16355.66
687.55	16524.18
687.69	16510.14
687.82	16350.98
687.96	16388.43
688.10	16458.65
688.23	16353.32
688.37	16280.77
688.50	16018.63
688.64	16196.51
688.78	15981.18
688.91	15939.05
689.05	16063.10
689.18	15810.32
689.32	15351.57
689.46	15704.99
689.59	15602.01
689.73	15552.86
689.86	15370.30
690.00	15309.44
690.13	15433.49
690.27	15382.00
690.41	15620.74
690.54	14956.02
690.68	15550.52
690.81	15073.05
690.95	15248.59
691.08	15087.09
691.22	15274.34
691.35	15084.75
691.49	14836.66
691.62	15194.76
691.76	14937.30
691.89	14785.16
692.03	14340.46
692.16	14654.09
692.30	14726.65
692.43	14464.51
692.57	14431.74
692.70	14331.10
692.84	14349.82
692.97	14057.26
693.11	14132.15
693.24	14427.06
693.38	14073.64
693.51	14202.37
693.65	14171.94
693.78	14017.47
693.92	13916.83
694.05	14010.45
694.19	13867.67
694.32	14012.79
694.45	13940.23
694.59	13444.04
694.72	13561.06
694.86	13453.40
694.99	13200.62
695.13	13481.49
695.26	13284.88
695.39	13329.35
695.53	13305.95
695.66	13231.05
695.80	13357.44
695.93	13422.97
696.07	13427.65
696.20	13144.45
696.33	13090.62
696.47	13081.25
696.60	12961.89
696.73	13104.66
696.87	12800.39
697.00	12837.84
697.14	12585.06
697.27	12400.16
697.40	12512.50
697.54	12449.31
697.67	12465.69
697.80	12332.28
697.94	12407.18
698.07	12121.63
698.21	12173.13
698.34	12453.99
698.47	12086.53
698.61	11861.84
698.74	12365.05
698.87	12128.66
699.01	11859.49
699.14	11925.03
699.27	12102.91
699.40	11875.88
699.54	11648.85
699.67	11489.69
699.80	11833.75
699.94	11543.52
700.07	11623.10
700.20	11438.20
700.34	11510.75
700.47	11337.56
700.60	11543.52
700.73	11503.73
700.87	11283.72
701.00	11456.92
701.13	11213.51
701.26	11145.63
701.40	11391.39
701.53	11323.51
701.66	11391.39
701.79	10991.16
701.93	10984.13
702.06	10876.47
702.19	10740.72
702.32	10588.58
702.46	10637.73
702.59	10609.65
702.72	10637.73
702.85	10635.39
702.99	10539.43
703.12	10406.02
703.25	10279.63
703.38	10450.49
703.51	10516.03
703.65	10555.82
703.78	10387.30
703.91	10368.57
704.04	10211.76
704.17	10352.19
704.31	10223.46
704.44	10326.44
704.57	9963.66
704.70	9991.75
704.83	9771.74
704.96	10061.96
705.10	9837.27
705.23	9753.01
>>>>>End Processed Spectral Data<<<<<
