SpectraSuite Data File
++++++++++++++++++++++++++++++++++++
Date: Fri Oct 18 13:58:08 GMT-05:00 2013
User: bianchi
Dark Spectrum Present: No
Reference Spectrum Present: No
Number of Sampled Component Spectra: 1
Spectrometers: USB2+H05261
Integration Time (usec): 50000 (USB2+H05261)
Spectra Averaged: 1 (USB2+H05261)
Boxcar Smoothing: 0 (USB2+H05261)
Correct for Electrical Dark: No (USB2+H05261)
Strobe/Lamp Enabled: No (USB2+H05261)
Correct for Detector Non-linearity: No (USB2+H05261)
Correct for Stray Light: No (USB2+H05261)
Number of Pixels in Processed Spectrum: 2048
>>>>>Begin Processed Spectral Data<<<<<
365.73	14.04
365.92	14.04
366.12	14.04
366.32	0.00
366.52	0.00
366.72	0.00
366.91	0.00
367.11	0.00
367.31	0.00
367.51	0.00
367.70	0.00
367.90	0.00
368.10	0.00
368.30	0.00
368.49	0.00
368.69	0.00
368.89	0.00
369.09	0.00
369.28	0.00
369.48	0.00
369.68	0.00
369.87	0.00
370.07	0.00
370.27	0.00
370.47	0.00
370.66	110.01
370.86	84.26
371.06	110.01
371.25	191.92
371.45	63.19
371.65	212.99
371.84	142.77
372.04	166.18
372.24	215.33
372.44	170.86
372.63	161.50
372.83	236.39
373.03	187.24
373.22	210.65
373.42	250.44
373.62	152.13
373.81	198.95
374.01	220.01
374.21	234.05
374.40	217.67
374.60	229.37
374.79	203.63
374.99	241.08
375.19	292.57
375.38	222.35
375.58	290.23
375.78	315.97
375.97	271.50
376.17	271.50
376.37	231.71
376.56	201.29
376.76	299.59
376.95	311.29
377.15	269.16
377.35	215.33
377.54	252.78
377.74	297.25
377.93	257.46
378.13	325.33
378.33	304.27
378.52	220.01
378.72	278.52
378.91	187.24
379.11	264.48
379.31	304.27
379.50	327.68
379.70	325.33
379.89	414.27
380.09	276.18
380.28	294.91
380.48	327.68
380.68	255.12
380.87	269.16
381.07	320.65
381.26	367.46
381.46	264.48
381.65	262.14
381.85	322.99
382.04	266.82
382.24	416.62
382.43	388.53
382.63	337.04
382.83	238.73
383.02	327.68
383.22	315.97
383.41	353.42
383.61	425.98
383.80	379.17
384.00	423.64
384.19	381.51
384.39	306.61
384.58	388.53
384.78	367.46
384.97	411.93
385.17	351.08
385.36	381.51
385.56	402.57
385.75	339.38
385.95	362.78
386.14	440.02
386.34	404.91
386.53	416.62
386.72	393.21
386.92	444.70
387.11	376.83
387.31	475.13
387.50	383.85
387.70	437.68
387.89	327.68
388.09	430.66
388.28	409.59
388.48	416.62
388.67	444.70
388.86	440.02
389.06	458.74
389.25	507.90
389.45	486.83
389.64	489.17
389.84	482.15
390.03	550.03
390.22	468.11
390.42	498.53
390.61	524.28
390.81	582.79
391.00	526.62
391.19	442.36
391.39	524.28
391.58	458.74
391.78	493.85
391.97	425.98
392.16	491.51
392.36	624.92
392.55	552.37
392.75	606.20
392.94	580.45
393.13	526.62
393.33	594.50
393.52	596.84
393.71	564.07
393.91	636.63
394.10	587.47
394.29	559.39
394.49	620.24
394.68	601.52
394.88	601.52
395.07	641.31
395.26	610.88
395.46	617.90
395.65	631.94
395.84	566.41
396.04	678.76
396.23	617.90
396.42	629.60
396.62	613.22
396.81	671.73
397.00	669.39
397.19	629.60
397.39	676.41
397.58	620.24
397.77	601.52
397.97	725.57
398.16	688.12
398.35	688.12
398.55	751.31
398.74	688.12
398.93	690.46
399.12	690.46
399.32	650.67
399.51	767.70
399.70	786.42
399.90	793.44
400.09	758.33
400.28	779.40
400.47	730.25
400.67	823.87
400.86	833.23
401.05	847.27
401.24	821.53
401.44	821.53
401.63	760.67
401.82	770.04
402.01	793.44
402.21	887.06
402.40	889.40
402.59	807.48
402.78	847.27
402.97	863.66
403.17	894.08
403.36	880.04
403.55	805.14
403.74	866.00
403.93	936.21
404.13	950.26
404.32	882.38
404.51	943.24
404.70	1029.84
404.89	882.38
405.09	980.68
405.28	973.66
405.47	938.55
405.66	985.37
405.85	980.68
406.05	992.39
406.24	1011.11
406.43	1034.52
406.62	938.55
406.81	1142.18
407.00	1008.77
407.20	945.58
407.39	1008.77
407.58	1055.58
407.77	1069.62
407.96	1076.65
408.15	1121.12
408.34	1102.39
408.54	1181.97
408.73	1048.56
408.92	1179.63
409.11	1174.95
409.30	1083.67
409.49	1188.99
409.68	1200.69
409.87	1170.27
410.07	1123.46
410.26	1149.20
410.45	1177.29
410.64	1184.31
410.83	1151.54
411.02	1282.61
411.21	1261.55
411.40	1254.53
411.59	1235.80
411.78	1275.59
411.98	1259.21
412.17	1275.59
412.36	1345.81
412.55	1313.04
412.74	1357.51
412.93	1334.11
413.12	1308.36
413.31	1373.89
413.50	1434.75
413.69	1219.42
413.88	1537.73
414.07	1460.49
414.26	1420.71
414.45	1439.43
414.64	1516.67
414.83	1397.30
415.02	1535.39
415.22	1453.47
415.41	1565.82
415.60	1465.18
415.79	1547.09
415.98	1591.56
416.17	1610.29
416.36	1657.10
416.55	1680.50
416.74	1682.85
416.93	1605.61
417.12	1657.10
417.31	1732.00
417.50	1659.44
417.69	1776.47
417.88	1708.59
418.07	1645.40
418.26	1739.02
418.45	1739.02
418.64	1839.66
418.83	1764.76
419.02	1774.13
419.21	1858.39
419.39	1771.79
419.58	1856.04
419.77	1795.19
419.96	1935.62
420.15	1898.17
420.34	1865.41
420.53	1909.88
420.72	1776.47
420.91	1968.39
421.10	1987.11
421.29	1858.39
421.48	1937.96
421.67	1984.77
421.86	1877.11
422.05	1952.01
422.24	1930.94
422.43	1980.09
422.61	1989.46
422.80	2026.90
422.99	1968.39
423.18	2031.58
423.37	2106.48
423.56	2017.54
423.75	2066.69
423.94	1989.46
424.13	1849.02
424.32	1881.79
424.50	2169.68
424.69	2165.00
424.88	2132.23
425.07	2029.24
425.26	1970.73
425.45	2008.18
425.64	2172.02
425.83	2073.71
426.01	2092.44
426.20	2078.40
426.39	2108.82
426.58	2057.33
426.77	2132.23
426.96	2038.61
427.15	2136.91
427.33	2148.61
427.52	2146.27
427.71	2242.23
427.90	2282.02
428.09	2221.17
428.28	2136.91
428.46	2169.68
428.65	2062.01
428.84	2298.41
429.03	2256.28
429.22	2251.60
429.40	2298.41
429.59	2406.07
429.78	2221.17
429.97	2267.98
430.16	2176.70
430.34	2375.64
430.53	2310.11
430.72	2340.54
430.91	2300.75
431.10	2345.22
431.28	2326.49
431.47	2314.79
431.66	2340.54
431.85	2403.73
432.03	2436.50
432.22	2466.92
432.41	2392.03
432.60	2455.22
432.79	2553.52
432.97	2567.57
433.16	2387.35
433.35	2541.82
433.54	2576.93
433.72	2581.61
433.91	2537.14
434.10	2579.27
434.28	2476.29
434.47	2567.57
434.66	2590.97
434.85	2649.49
435.03	2619.06
435.22	2532.46
435.41	2602.68
435.59	2630.76
435.78	2651.83
435.97	2747.79
436.16	2642.46
436.34	2729.06
436.53	2612.04
436.72	2750.13
436.90	2572.25
437.09	2780.56
437.28	2775.88
437.46	2738.43
437.65	2712.68
437.84	2832.05
438.02	2754.81
438.21	2796.94
438.40	2836.73
438.58	2946.73
438.77	3007.59
438.96	2869.50
439.14	2974.82
439.33	2995.89
439.52	3005.25
439.70	2958.44
439.89	3119.93
440.08	3098.87
440.26	3155.04
440.45	3096.53
440.63	3030.99
440.82	3283.77
441.01	3098.87
441.19	3232.28
441.38	3201.85
441.57	3178.45
441.75	3148.02
441.94	3290.79
442.12	3295.47
442.31	3316.54
442.50	3361.01
442.68	3173.77
442.87	3190.15
443.05	3393.78
443.24	3405.48
443.43	3276.75
443.61	3426.54
443.80	3506.12
443.98	3349.31
444.17	3344.63
444.35	3405.48
444.54	3529.53
444.73	3449.95
444.91	3431.23
445.10	3517.83
445.28	3391.44
445.47	3585.70
445.65	3578.68
445.84	3592.72
446.02	3606.77
446.21	3517.83
446.39	3494.42
446.58	3494.42
446.77	3576.34
446.95	3471.01
447.14	3592.72
447.32	3609.11
447.51	3468.67
447.69	3763.58
447.88	3595.06
448.06	3508.46
448.25	3609.11
448.43	3602.08
448.62	3714.43
448.80	3602.08
448.99	3716.77
449.17	3557.61
449.36	3604.42
449.54	3651.24
449.73	3707.41
449.91	3798.69
450.10	3740.18
450.28	3735.50
450.46	3578.68
450.65	3747.20
450.83	3712.09
451.02	3791.67
451.20	3943.80
451.39	3838.48
451.57	3859.54
451.76	3737.84
451.94	3796.35
452.13	3798.69
452.31	3936.78
452.49	3892.31
452.68	3880.61
452.86	3798.69
453.05	4002.32
453.23	4037.42
453.42	3957.85
453.60	3976.57
453.78	3988.27
453.97	3873.59
454.15	3983.59
454.34	4072.53
454.52	4128.70
454.70	4086.58
454.89	4173.18
455.07	4004.66
455.26	4002.32
455.44	4180.20
455.62	4063.17
455.81	4187.22
455.99	4168.49
456.17	4215.30
456.36	4255.09
456.54	4334.67
456.73	4320.63
456.91	4414.25
457.09	4236.37
457.28	4334.67
457.46	4351.06
457.64	4409.57
457.83	4465.74
458.01	4299.56
458.19	4456.38
458.38	4393.19
458.56	4578.09
458.74	4514.89
458.93	4561.70
459.11	4486.81
459.29	4304.25
459.48	4550.00
459.66	4601.49
459.84	4643.62
460.03	4690.43
460.21	4493.83
460.39	4645.96
460.57	4578.09
460.76	4547.66
460.94	4678.73
461.12	4762.99
461.31	4713.84
461.49	4828.53
461.67	4664.69
461.85	4741.93
462.04	4828.53
462.22	5004.07
462.40	4828.53
462.59	4622.56
462.77	4760.65
462.95	4823.84
463.13	4844.91
463.32	4905.76
463.50	4877.68
463.68	4854.27
463.86	4877.68
464.05	4966.62
464.23	4903.42
464.41	4760.65
464.59	4882.36
464.78	5118.75
464.96	4954.91
465.14	4873.00
465.32	5048.54
465.50	5221.74
465.69	5130.45
465.87	5125.77
466.05	5085.98
466.23	5011.09
466.41	5001.72
466.60	5170.24
466.78	5083.64
466.96	4997.04
467.14	5123.43
467.32	5193.65
467.51	5240.46
467.69	5104.71
467.87	5144.50
468.05	5153.86
468.23	5249.82
468.41	5188.97
468.60	5247.48
468.78	5191.31
468.96	5181.95
469.14	5198.33
469.32	5458.13
469.50	5294.29
469.69	5462.81
469.87	5479.19
470.05	5453.45
470.23	5490.90
470.41	5516.64
470.59	5509.62
470.77	5420.68
470.95	5544.73
471.14	5823.25
471.32	5509.62
471.50	5575.16
471.68	5607.92
471.86	5834.96
472.04	5654.73
472.22	5832.62
472.40	5783.46
472.58	5661.76
472.77	5867.72
472.95	5886.45
473.13	5947.30
473.31	5760.06
473.49	5987.09
473.67	5909.85
473.85	5884.11
474.03	5996.45
474.21	5959.00
474.39	6036.24
474.57	6211.78
474.75	6209.44
474.93	6370.94
475.12	6167.31
475.30	6321.79
475.48	6338.17
475.66	6272.64
475.84	6373.28
476.02	6366.26
476.20	6450.52
476.38	6579.25
476.56	6642.44
476.74	6504.35
476.92	6476.26
477.10	6502.01
477.28	6803.94
477.46	6663.51
477.64	6794.58
477.82	6738.40
478.00	7119.91
478.18	7157.36
478.36	7016.93
478.54	7192.47
478.72	7206.51
478.90	7274.38
479.08	7185.44
479.26	7356.30
479.44	7377.37
479.62	7365.67
479.80	7328.22
479.98	7588.02
480.16	7667.60
480.34	7630.15
480.52	7906.33
480.70	7672.28
480.88	7810.37
481.06	7676.96
481.24	7878.24
481.41	7871.22
481.59	8063.15
481.77	8016.33
481.95	8119.32
482.13	8301.88
482.31	8152.09
482.49	8446.99
482.67	8468.06
482.85	8662.32
483.03	8454.02
483.21	8870.63
483.39	8678.71
483.57	8732.54
483.74	8922.12
483.92	8950.21
484.10	8933.82
484.28	9081.28
484.46	9039.15
484.64	9287.25
484.82	9310.65
485.00	9383.21
485.18	9500.23
485.35	9643.01
485.53	9502.58
485.71	9610.24
485.89	9879.40
486.07	9671.09
486.25	9888.76
486.43	9832.59
486.61	10022.17
486.78	10157.92
486.96	9916.85
487.14	10183.67
487.32	10190.69
487.50	10366.23
487.68	10380.28
487.85	10403.68
488.03	10565.18
488.21	10792.21
488.39	10789.87
488.57	10759.44
488.75	10829.66
488.92	10991.16
489.10	11129.25
489.28	10998.18
489.46	11344.58
489.64	11316.49
489.81	11562.25
489.99	11281.38
490.17	11499.05
490.35	11733.11
490.53	11646.51
490.70	12067.80
490.88	11765.87
491.06	11955.46
491.24	11667.57
491.41	11983.54
491.59	12147.38
491.77	12259.73
491.95	12332.28
492.13	12325.26
492.30	12453.99
492.48	12475.06
492.66	12568.68
492.84	12568.68
493.01	12566.34
493.19	12872.95
493.37	12884.65
493.54	12933.80
493.72	13107.00
493.90	13107.00
494.08	12924.44
494.25	13305.95
494.43	13301.26
494.61	13378.50
494.79	13741.29
494.96	13451.06
495.14	13844.27
495.32	13774.05
495.49	13968.32
495.67	13741.29
495.85	13977.68
496.02	13832.57
496.20	14125.13
496.38	14312.38
496.55	14459.83
496.73	14562.81
496.91	14511.32
497.09	14525.36
497.26	14480.89
497.44	14572.18
497.62	14473.87
497.79	14710.27
497.97	14661.12
498.14	14874.10
498.32	14757.08
498.50	15028.58
498.67	15295.40
498.85	15328.17
499.03	15370.30
499.20	15169.01
499.38	15459.24
499.56	15309.44
499.73	15492.01
499.91	15473.28
500.08	15466.26
500.26	15400.72
500.44	15658.18
500.61	15730.74
500.79	15695.63
500.97	16051.39
501.14	16100.55
501.32	15999.90
501.49	15988.20
501.67	16428.22
501.84	16137.99
502.02	16397.79
502.20	16512.48
502.37	16556.95
502.55	16365.03
502.72	16336.94
502.90	16376.73
503.07	16512.48
503.25	16365.03
503.43	16498.44
503.60	16563.97
503.78	16692.70
503.95	16910.37
504.13	16856.54
504.30	16634.19
504.48	16947.82
504.65	16800.37
504.83	16917.39
505.01	17245.07
505.18	17228.68
505.36	17612.53
505.53	17114.00
505.71	17198.26
505.88	17465.08
506.06	17242.73
506.23	17481.46
506.41	17425.29
506.58	17547.00
506.76	17713.17
506.93	17820.84
507.11	17493.16
507.28	18001.06
507.46	18064.25
507.63	17703.81
507.81	18274.90
507.98	18087.66
508.16	18106.38
508.33	17834.88
508.50	17991.70
508.68	18164.90
508.85	18457.46
509.03	18382.57
509.20	18462.15
509.38	17909.78
509.55	18794.50
509.73	18668.11
509.90	18621.30
510.08	18483.21
510.25	18595.56
510.42	18778.12
510.60	18714.92
510.77	18956.00
510.95	18864.72
511.12	19164.31
511.30	19164.31
511.47	19147.92
511.64	19328.14
511.82	19220.48
511.99	19075.37
512.17	19393.68
512.34	19190.05
512.51	19248.57
512.69	19606.67
512.86	19358.57
513.04	19742.42
513.21	19499.00
513.38	19674.54
513.56	19728.38
513.73	19782.21
513.90	19775.19
514.08	19936.68
514.25	20107.54
514.43	20266.70
514.60	20086.48
514.77	19777.53
514.95	20369.68
515.12	20313.51
515.29	20051.37
515.47	20184.78
515.64	20790.98
515.81	20437.56
515.99	20608.42
516.16	20826.09
516.33	20908.01
516.51	20510.11
516.68	20472.67
516.85	20627.14
517.03	20713.74
517.20	20919.71
517.37	20671.61
517.54	20666.93
517.72	20957.16
517.89	21020.35
518.06	21270.79
518.24	21118.65
518.41	20896.30
518.58	20870.56
518.75	21167.80
518.93	21209.93
519.10	21380.79
519.27	21521.23
519.45	21074.18
519.62	21273.13
519.79	21120.99
519.96	21284.83
520.14	21252.06
520.31	21502.50
520.48	21668.68
520.65	21605.49
520.83	21853.58
521.00	21759.96
521.17	21748.26
521.34	21752.94
521.52	21656.98
521.69	22052.53
521.86	22068.91
522.03	22099.34
522.20	21844.22
522.38	21804.43
522.55	21965.93
522.72	22342.75
522.89	22291.26
523.07	22429.35
523.24	22111.04
523.41	22572.13
523.58	22335.73
523.75	22525.32
523.92	22249.13
524.10	22328.71
524.27	22307.65
524.44	23007.47
524.61	22883.42
524.78	22782.77
524.96	22822.56
525.13	22803.84
525.30	23119.81
525.47	22831.93
525.64	23005.13
525.81	23218.11
525.98	23307.05
526.16	23005.13
526.33	22696.17
526.50	23129.17
526.67	23091.73
526.84	23248.54
527.01	23379.61
527.18	23426.42
527.36	23616.01
527.53	23365.57
527.70	23648.77
527.87	23557.49
528.04	23587.92
528.21	23793.89
528.38	23669.84
528.55	23428.76
528.72	23538.77
528.89	23824.31
529.07	23800.91
529.24	23599.62
529.41	23929.64
529.58	23922.62
529.75	23812.61
529.92	24114.54
530.09	24095.82
530.26	23845.38
530.43	23910.91
530.60	24177.73
530.77	24393.06
530.94	23833.68
531.11	24034.96
531.28	23955.38
531.46	24196.46
531.63	24210.50
531.80	24355.61
531.97	24325.19
532.14	24451.58
532.31	24322.85
532.48	24325.19
532.65	24716.06
532.82	24369.66
532.99	24198.80
533.16	24428.17
533.33	24812.02
533.50	25081.18
533.67	24730.10
533.84	24615.41
534.01	24435.19
534.18	24725.42
534.35	24772.23
534.52	24559.24
534.69	25219.27
534.86	25125.65
535.03	24727.76
535.20	24842.45
535.37	25207.57
535.54	25167.78
535.71	25275.45
535.88	24912.66
536.05	25010.96
536.22	25226.29
536.38	25734.19
536.55	25425.24
536.72	25450.99
536.89	25425.24
537.06	25495.46
537.23	25453.33
537.40	25135.01
537.57	25420.56
537.74	25418.22
537.91	25900.37
538.08	25837.17
538.25	25633.55
538.42	25579.71
538.59	25865.26
538.75	25350.34
538.92	26127.40
539.09	25970.58
539.26	25773.98
539.43	25907.39
539.60	25895.69
539.77	25881.64
539.94	26356.77
540.11	26096.97
540.28	25577.37
540.44	26237.41
540.61	26113.36
540.78	25806.75
540.95	26106.34
541.12	26174.21
541.29	26324.01
541.46	26089.95
541.62	25895.69
541.79	26176.55
541.96	26155.49
542.13	26373.16
542.30	26504.23
542.47	26457.42
542.63	26375.50
542.80	26700.83
542.97	26871.69
543.14	27122.13
543.31	26616.57
543.48	26544.02
543.64	26731.26
543.81	26749.98
543.98	27075.32
544.15	26824.88
544.32	27145.53
544.48	27351.50
544.65	26710.19
544.82	27000.42
544.99	27021.48
545.16	27117.45
545.32	26984.04
545.49	27075.32
545.66	27412.35
545.83	27227.45
546.00	27489.59
546.16	27161.92
546.33	26993.40
546.50	27072.98
546.67	27016.80
546.83	27194.68
547.00	27075.32
547.17	27454.48
547.34	27510.66
547.50	27693.22
547.67	27917.91
547.84	27487.25
548.00	27718.96
548.17	27447.46
548.34	27723.65
548.51	27892.16
548.67	27943.66
548.84	27646.41
549.01	27950.68
549.18	27576.19
549.34	28011.53
549.51	28079.41
549.68	27463.85
549.84	27695.56
550.01	27934.29
550.18	27730.67
550.34	27885.14
550.51	28006.85
550.68	27878.12
550.84	27665.13
551.01	28250.27
551.18	27854.72
551.34	27683.86
551.51	28011.53
551.68	27826.63
551.84	28184.73
552.01	28119.20
552.18	28261.97
552.34	27983.44
552.51	27964.72
552.68	28084.09
552.84	27969.40
553.01	28283.03
553.18	28428.15
553.34	28400.06
553.51	28364.95
553.67	28524.11
553.84	28781.57
554.01	28353.25
554.17	28636.45
554.34	28481.98
554.51	28608.37
554.67	28856.46
554.84	28613.05
555.00	28264.31
555.17	28364.95
555.33	28664.54
555.50	28322.82
555.67	28786.25
555.83	28329.84
556.00	28400.06
556.16	29069.45
556.33	28376.66
556.50	28673.90
556.66	28807.31
556.83	28882.21
556.99	29097.54
557.16	29008.60
557.32	29153.71
557.49	29071.79
557.65	28414.10
557.82	28800.29
557.98	28776.89
558.15	28767.52
558.32	28996.90
558.48	29099.88
558.65	28987.53
558.81	29427.56
558.98	29003.92
559.14	28893.91
559.31	29048.39
559.47	29071.79
559.64	28964.13
559.80	28971.15
559.97	29329.25
560.13	29022.64
560.30	29502.45
560.46	29123.29
560.63	28835.40
560.79	29556.28
560.96	29284.78
561.12	29036.69
561.29	29439.26
561.45	29415.85
561.61	29525.86
561.78	29284.78
561.94	29345.64
562.11	29776.30
562.27	29277.76
562.44	29165.42
562.60	29200.52
562.77	29495.43
562.93	29584.37
563.10	29542.24
563.26	29509.47
563.42	29525.86
563.59	29780.98
563.75	29392.45
563.92	29755.23
564.08	29085.84
564.24	29532.88
564.41	29088.18
564.57	29432.24
564.74	29369.04
564.90	29621.82
565.07	29600.76
565.23	29862.90
565.39	29589.05
565.56	29647.57
565.72	29811.40
565.88	29912.05
566.05	29989.28
566.21	29757.57
566.38	29745.87
566.54	29958.86
566.70	30052.48
566.87	29958.86
567.03	30000.99
567.19	30127.38
567.36	29841.83
567.52	29406.49
567.68	29708.42
567.85	30029.07
568.01	29944.81
568.17	29811.40
568.34	30118.01
568.50	30251.42
568.66	29837.15
568.83	29919.07
568.99	29818.42
569.15	30057.16
569.32	30012.69
569.48	29465.00
569.64	30141.42
569.81	30120.35
569.97	29659.27
570.13	29788.00
570.30	29975.24
570.46	30272.49
570.62	30101.63
570.78	30167.16
570.95	29982.26
571.11	30181.21
571.27	29837.15
571.43	30244.40
571.60	29933.11
571.76	29867.58
571.92	30300.58
572.09	30265.47
572.25	29993.97
572.41	30031.41
572.57	30118.01
572.74	30115.67
572.90	30188.23
573.06	30448.03
573.22	30375.47
573.38	30150.78
573.55	30253.76
573.71	30476.12
573.87	30387.18
574.03	30129.72
574.20	30338.02
574.36	29912.05
574.52	30403.56
574.68	30094.61
574.84	30448.03
575.01	30228.02
575.17	30286.53
575.33	30286.53
575.49	30677.40
575.65	30015.03
575.82	29921.41
575.98	30270.15
576.14	30485.48
576.30	30366.11
576.46	30450.37
576.62	29759.91
576.79	30010.35
576.95	29949.50
577.11	29867.58
577.27	30106.31
577.43	30312.28
577.59	30555.69
577.75	30115.67
577.92	30057.16
578.08	29972.90
578.24	30195.25
578.40	30445.69
578.56	30525.27
578.72	30345.05
578.88	30551.01
579.04	30464.41
579.21	30382.49
579.37	30326.32
579.53	30675.06
579.69	30085.25
579.85	30293.55
580.01	30401.22
580.17	30106.31
580.33	30026.73
580.49	30368.45
580.65	30387.18
580.82	30457.39
580.98	30478.46
581.14	30497.18
581.30	30485.48
581.46	30553.35
581.62	30244.40
581.78	30265.47
581.94	30316.96
582.10	30314.62
582.26	30401.22
582.42	30546.33
582.58	30731.23
582.74	30279.51
582.90	30754.64
583.06	30764.00
583.22	30532.29
583.38	30508.88
583.54	30352.07
583.70	30431.65
583.86	30213.98
584.02	30401.22
584.18	30609.53
584.34	30735.92
584.50	30719.53
584.66	30232.70
584.82	30452.71
584.98	30415.26
585.14	30352.07
585.30	30242.06
585.46	30380.15
585.62	30408.24
585.78	30391.86
585.94	30155.46
586.10	30244.40
586.26	30609.53
586.42	30752.30
586.58	30789.75
586.74	30672.72
586.90	30396.54
587.06	30106.31
587.22	30230.36
587.38	30415.26
587.54	30265.47
587.70	30644.63
587.86	30600.16
588.02	30625.91
588.18	30742.94
588.34	30595.48
588.49	30920.82
588.65	30401.22
588.81	30665.70
588.97	30813.15
589.13	30670.38
589.29	30611.87
589.45	30944.22
589.61	30998.06
589.77	30799.11
589.93	31115.08
590.08	31157.21
590.24	31248.49
590.40	30953.58
590.56	30906.77
590.72	30731.23
590.88	30700.81
591.04	30560.37
591.20	31065.93
591.35	31194.66
591.51	30848.26
591.67	30937.20
591.83	31278.92
591.99	31171.25
592.15	30752.30
592.31	31175.94
592.46	30843.58
592.62	30670.38
592.78	31012.10
592.94	30930.18
593.10	30827.20
593.26	30883.37
593.41	31094.02
593.57	31180.62
593.73	30862.30
593.89	31180.62
594.05	31007.42
594.20	31168.91
594.36	31005.08
594.52	30773.36
594.68	31098.70
594.84	31035.50
594.99	31103.38
595.15	30967.63
595.31	30960.61
595.47	30923.16
595.62	31592.55
595.78	31115.08
595.94	31222.75
596.10	30881.03
596.25	31096.36
596.41	30946.56
596.57	30904.43
596.73	30981.67
596.88	30960.61
597.04	31288.28
597.20	31166.57
597.36	31388.92
597.51	31407.65
597.67	30871.67
597.83	31243.81
597.99	31138.49
598.14	30993.37
598.30	31075.29
598.46	31044.87
598.61	31206.36
598.77	30909.11
598.93	31094.02
599.09	31208.70
599.24	31653.40
599.40	31206.36
599.56	31732.98
599.71	31040.18
599.87	31292.96
600.03	31145.51
600.18	30976.99
600.34	30862.30
600.50	31337.43
600.65	31077.63
600.81	31117.42
600.97	31393.61
601.12	31765.75
601.28	31339.77
601.44	31222.75
601.59	31262.54
601.75	31201.68
601.91	31295.30
602.06	30951.24
602.22	31152.53
602.37	30988.69
602.53	31164.23
602.69	31159.55
602.84	31051.89
603.00	31697.88
603.16	31075.29
603.31	31845.33
603.47	31189.98
603.62	31175.94
603.78	31072.95
603.94	30852.94
604.09	31337.43
604.25	30972.31
604.40	30834.22
604.56	31005.08
604.71	31285.94
604.87	31199.34
605.03	31026.14
605.18	30939.54
605.34	31239.13
605.49	30831.88
605.65	31175.94
605.80	30710.17
605.96	30984.01
606.12	30944.22
606.27	31370.20
606.43	30721.87
606.58	31201.68
606.74	31023.80
606.89	31445.10
607.05	31154.87
607.20	31606.59
607.36	30794.43
607.51	31325.73
607.67	30761.66
607.82	30745.28
607.98	31129.12
608.13	30946.56
608.29	30642.29
608.44	31077.63
608.60	31068.27
608.75	31197.00
608.91	31323.39
609.06	30478.46
609.22	30836.56
609.37	30682.08
609.53	30834.22
609.68	30635.27
609.84	31014.44
609.99	30700.81
610.15	30693.79
610.30	30775.70
610.46	30541.65
610.61	30752.30
610.76	31087.00
610.92	30857.62
611.07	30747.62
611.23	30551.01
611.38	30962.95
611.54	30553.35
611.69	30455.05
611.84	30586.12
612.00	30602.50
612.15	30719.53
612.31	31185.30
612.46	30661.02
612.62	30803.79
612.77	30492.50
612.92	31079.97
613.08	30918.48
613.23	30614.21
613.39	30642.29
613.54	30078.22
613.69	30333.34
613.85	30485.48
614.00	30764.00
614.15	30085.25
614.31	30611.87
614.46	30806.13
614.62	30349.73
614.77	30256.11
614.92	30291.21
615.08	30443.35
615.23	30625.91
615.38	30579.10
615.54	30492.50
615.69	30335.68
615.84	30204.61
616.00	30281.85
616.15	30394.20
616.30	30546.33
616.46	30366.11
616.61	30305.26
616.76	30506.54
616.92	30443.35
617.07	30478.46
617.22	30106.31
617.37	30216.32
617.53	30380.15
617.68	30061.84
617.83	30321.64
617.99	30092.27
618.14	30106.31
618.29	30258.45
618.45	30300.58
618.60	30263.13
618.75	30094.61
618.90	29984.60
619.06	30441.01
619.21	30228.02
619.36	30092.27
619.51	29757.57
619.67	29823.11
619.82	29813.74
619.97	29972.90
620.12	29839.49
620.28	29624.16
620.43	30066.52
620.58	30391.86
620.73	29895.66
620.89	30045.46
621.04	30230.36
621.19	30059.50
621.34	30057.16
621.49	29652.25
621.65	29607.78
621.80	29586.71
621.95	29600.76
622.10	29825.45
622.25	29467.34
622.41	29818.42
622.56	29605.44
622.71	29954.18
622.86	29776.30
623.01	29516.50
623.16	29530.54
623.32	29710.76
623.47	29958.86
623.62	29537.56
623.77	29336.27
623.92	29649.91
624.07	29439.26
624.23	29394.79
624.38	29837.15
624.53	29628.84
624.68	29958.86
624.83	29701.40
624.98	29963.54
625.13	29071.79
625.29	29586.71
625.44	29401.81
625.59	29399.47
625.74	29048.39
625.89	29235.63
626.04	29088.18
626.19	29195.84
626.34	29142.01
626.49	29177.12
626.65	29195.84
626.80	29387.77
626.95	29312.87
627.10	29553.94
627.25	29273.08
627.40	28929.02
627.55	29226.27
627.70	29488.41
627.85	29036.69
628.00	28683.27
628.15	28973.49
628.30	28620.07
628.45	29132.65
628.60	28917.32
628.76	29280.10
628.91	28683.27
629.06	28957.11
629.21	29235.63
629.36	28940.72
629.51	29111.58
629.66	28865.83
629.81	28732.42
629.96	29010.94
630.11	28945.41
630.26	28884.55
630.41	28769.86
630.56	28765.18
630.71	28596.67
630.86	28992.22
631.01	28676.24
631.16	29177.12
631.31	28989.88
631.46	28493.68
631.61	28837.74
631.76	28917.32
631.91	28519.43
632.06	28711.35
632.21	28601.35
632.36	28489.00
632.51	28018.55
632.66	28360.27
632.81	28533.47
632.96	28601.35
633.10	28701.99
633.25	28599.01
633.40	28577.94
633.55	28664.54
633.70	28622.41
633.85	28432.83
634.00	28306.44
634.15	28294.74
634.30	28383.68
634.45	28175.37
634.60	28231.54
634.75	27971.74
634.90	28128.56
635.05	28135.58
635.19	28067.70
635.34	28308.78
635.49	28596.67
635.64	28727.74
635.79	28290.06
635.94	28261.97
636.09	28474.96
636.24	28348.57
636.39	28198.77
636.53	28070.04
636.68	27793.86
636.83	28226.86
636.98	28238.56
637.13	28140.26
637.28	28107.49
637.43	28453.89
637.57	28301.76
637.72	28030.26
637.87	27646.41
638.02	27985.79
638.17	28112.17
638.32	27992.81
638.46	27681.52
638.61	27583.21
638.76	28065.36
638.91	27426.40
639.06	27779.82
639.20	28098.13
639.35	28119.20
639.50	27833.65
639.65	28006.85
639.80	28121.54
639.94	27828.97
640.09	27807.90
640.24	27693.22
640.39	27501.29
640.54	27756.41
640.68	27505.98
640.83	27438.10
640.98	27300.01
641.13	27466.19
641.27	27585.55
641.42	27461.51
641.57	27735.35
641.72	28011.53
641.86	27431.08
642.01	27339.80
642.16	27358.52
642.31	26890.41
642.45	27672.15
642.60	26937.23
642.75	27119.79
642.90	27292.99
643.04	27496.61
643.19	26859.99
643.34	27166.60
643.48	26995.74
643.63	27330.44
643.78	27087.02
643.93	27442.78
644.07	27620.66
644.22	27557.47
644.37	27089.36
644.51	27438.10
644.66	27300.01
644.81	27302.35
644.95	27159.58
645.10	27023.83
645.25	27054.25
645.39	26899.78
645.54	26892.76
645.69	26981.70
645.83	26852.97
645.98	26974.67
646.13	27150.21
646.27	27115.11
646.42	27292.99
646.57	27136.17
646.71	27115.11
646.86	26864.67
647.00	27056.59
647.15	26595.51
647.30	26775.73
647.44	26714.87
647.59	26497.20
647.74	26649.34
647.88	26909.14
648.03	27239.15
648.17	27012.12
648.32	27150.21
648.47	26979.36
648.61	26504.23
648.76	26984.04
648.90	26649.34
649.05	26604.87
649.20	26726.58
649.34	26663.38
649.49	26522.95
649.63	26539.33
649.78	26724.24
649.92	26677.43
650.07	26806.16
650.21	26705.51
650.36	26426.99
650.51	26536.99
650.65	26609.55
650.80	26387.20
650.94	26410.60
651.09	26588.49
651.23	26106.34
651.38	26476.14
651.52	26239.75
651.67	26555.72
651.81	26316.98
651.96	26473.80
652.10	26572.10
652.25	25982.29
652.39	26441.03
652.54	26555.72
652.68	26539.33
652.83	26431.67
652.97	26583.80
653.12	26623.59
653.26	26155.49
653.41	26045.48
653.55	26218.68
653.70	25961.22
653.84	25853.56
653.99	25823.13
654.13	26560.40
654.27	25790.36
654.42	26054.84
654.56	25778.66
654.71	26235.06
654.85	26529.97
655.00	26024.42
655.14	25965.90
655.29	26324.01
655.43	26164.85
655.57	26157.83
655.72	25453.33
655.86	25858.24
656.01	26129.74
656.15	25781.00
656.30	25888.67
656.44	25965.90
656.58	25818.45
656.73	25858.24
656.87	25912.07
657.01	25813.77
657.16	25942.50
657.30	25982.29
657.45	25832.49
657.59	25626.53
657.73	25553.97
657.88	25818.45
658.02	25392.47
658.16	25439.28
658.31	25214.59
658.45	25626.53
658.60	25067.14
658.74	25289.49
658.88	25500.14
659.03	25350.34
659.17	25465.03
659.31	25598.44
659.46	25383.11
659.60	25689.72
659.74	25722.49
659.89	25481.41
660.03	25532.90
660.17	25378.43
660.32	25221.61
660.46	25088.20
660.60	25160.76
660.74	24884.58
660.89	25165.44
661.03	24673.93
661.17	25053.09
661.32	25083.52
661.46	25205.23
661.60	25099.90
661.74	25240.34
661.89	24856.49
662.03	24994.58
662.17	24720.74
662.31	24746.48
662.46	25013.31
662.60	24865.85
662.74	24741.80
662.88	24421.15
663.03	24606.05
663.17	24278.38
663.31	24308.80
663.45	24472.64
663.60	24542.86
663.74	24151.99
663.88	24409.45
664.02	24313.48
664.17	24613.07
664.31	24423.49
664.45	24409.45
664.59	24437.53
664.73	24428.17
664.88	24217.52
665.02	23747.08
665.16	23990.49
665.30	24285.40
665.44	24093.47
665.59	23847.72
665.73	23915.59
665.87	23740.05
666.01	24210.50
666.15	24023.26
666.29	24388.38
666.44	24041.98
666.58	24098.16
666.72	23480.25
666.86	24144.97
667.00	23718.99
667.14	23557.49
667.28	23599.62
667.43	23480.25
667.57	23723.67
667.71	23145.56
667.85	23403.02
667.99	23267.27
668.13	23407.70
668.27	23363.23
668.41	23372.59
668.56	23269.61
668.70	23487.28
668.84	23363.23
668.98	23428.76
669.12	23330.46
669.26	23417.06
669.40	23187.69
669.54	23255.56
669.68	23351.52
669.82	22881.08
669.96	22829.59
670.10	22843.63
670.25	23058.96
670.39	23000.44
670.53	22436.38
670.67	22623.62
670.81	22927.89
670.95	22628.30
671.09	22831.93
671.23	22579.15
671.37	22754.69
671.51	22927.89
671.65	22892.78
671.79	22485.53
671.93	22162.53
672.07	22572.13
672.21	22155.51
672.35	22342.75
672.49	22104.02
672.63	22150.83
672.77	21947.20
672.91	22258.49
673.05	22359.14
673.19	22122.74
673.33	22291.26
673.47	22094.66
673.61	22293.60
673.75	22101.68
673.89	22129.77
674.03	21837.20
674.17	21912.10
674.31	21696.77
674.45	22024.44
674.59	22054.87
674.73	21855.92
674.87	21458.03
675.01	21467.39
675.15	21521.23
675.29	21245.04
675.43	21509.52
675.56	21254.40
675.70	21511.86
675.84	21420.58
675.98	20610.76
676.12	20999.29
676.26	21504.84
676.40	21013.33
676.54	21301.22
676.68	21142.06
676.82	20709.06
676.96	21025.03
677.10	20950.14
677.23	20575.65
677.37	21050.78
677.51	20786.30
677.65	20683.31
677.79	20528.84
677.93	20470.33
678.07	20133.29
678.21	20107.54
678.34	20496.07
678.48	20512.46
678.62	20095.84
678.76	20056.05
678.90	19950.73
679.04	20006.90
679.18	19939.02
679.31	19716.67
679.45	20063.07
679.59	19665.18
679.73	19786.89
679.87	19711.99
680.00	19648.80
680.14	19468.58
680.28	19482.62
680.42	19414.74
680.56	19255.59
680.70	19592.62
680.83	19391.34
680.97	19190.05
681.11	19192.39
681.25	19213.46
681.39	18822.59
681.52	19105.79
681.66	19124.52
681.80	18733.65
681.94	19110.47
682.07	18799.18
682.21	18853.02
682.35	18338.10
682.49	18380.23
682.62	18560.45
682.76	18717.26
682.90	18527.68
683.04	18405.97
683.17	18717.26
683.31	18424.70
683.45	18338.10
683.59	18136.81
683.72	18338.10
683.86	18310.01
684.00	18190.64
684.13	17881.69
684.27	17795.09
684.41	17895.74
684.55	17914.46
684.68	17664.02
684.82	17729.56
684.96	17675.73
685.09	17511.89
685.23	17624.23
685.37	17642.96
685.50	17338.69
685.64	17413.59
685.78	17352.73
685.91	17460.40
686.05	17493.16
686.19	17043.78
686.32	17401.88
686.46	16973.56
686.60	17088.25
686.73	17043.78
686.87	16966.54
687.01	17184.21
687.14	16830.79
687.28	16587.38
687.42	16432.90
687.55	16659.93
687.69	16519.50
687.82	16388.43
687.96	16458.65
688.10	16362.69
688.23	16568.65
688.37	16318.22
688.50	16355.66
688.64	16119.27
688.78	16205.87
688.91	16152.04
689.05	16187.14
689.18	16044.37
689.32	15571.58
689.46	15613.71
689.59	15707.34
689.73	15555.20
689.86	15693.29
690.00	15906.28
690.13	15681.59
690.27	15700.31
690.41	15550.52
690.54	15477.96
690.68	15286.04
690.81	15569.24
690.95	15637.12
691.08	15286.04
691.22	15356.25
691.35	15185.40
691.49	15143.27
691.62	15073.05
691.76	15056.67
691.89	14864.74
692.03	14429.40
692.16	14736.01
692.30	14623.67
692.43	14839.00
692.57	14642.39
692.70	14417.70
692.84	14721.97
692.97	14576.86
693.11	14487.92
693.24	14497.28
693.38	14483.24
693.51	14630.69
693.65	14675.16
693.78	14022.15
693.92	14075.98
694.05	13991.72
694.19	14244.50
694.32	13771.71
694.45	13755.33
694.59	13589.15
694.72	13734.26
694.86	13752.99
694.99	13422.97
695.13	13668.73
695.26	13462.76
695.39	13493.19
695.53	13680.43
695.66	13355.10
695.80	13537.66
695.93	13437.02
696.07	13329.35
696.20	13493.19
696.33	13479.15
696.47	13231.05
696.60	13249.77
696.73	13214.66
696.87	12926.78
697.00	12659.96
697.14	12992.31
697.27	12620.17
697.40	12713.79
697.54	12662.30
697.67	12421.22
697.80	12564.00
697.94	12465.69
698.07	12250.36
698.21	12255.04
698.34	12285.47
698.47	12599.10
698.61	12416.54
698.74	12421.22
698.87	12187.17
699.01	12086.53
699.14	12245.68
699.27	12011.63
699.40	11960.14
699.54	12051.42
699.67	11777.58
699.80	11737.79
699.94	11913.33
700.07	11630.12
700.20	11730.76
700.34	11485.01
700.47	11618.42
700.60	11611.40
700.73	11527.14
700.87	11590.33
701.00	11372.66
701.13	11367.98
701.26	11405.43
701.40	11311.81
701.53	11452.24
701.66	11232.23
701.79	11323.51
701.93	11213.51
702.06	11253.30
702.19	10934.98
702.32	10916.26
702.46	10707.95
702.59	10604.97
702.72	10747.74
702.85	10616.67
702.99	10630.71
703.12	10574.54
703.25	10647.10
703.38	10541.77
703.51	10626.03
703.65	10640.08
703.78	10532.41
703.91	10661.14
704.04	10794.55
704.17	10417.72
704.31	10427.09
704.44	10134.52
704.57	10384.96
704.70	10186.01
704.83	9879.40
704.96	10031.54
705.10	9958.98
705.23	10031.54
>>>>>End Processed Spectral Data<<<<<
