SpectraSuite Data File
++++++++++++++++++++++++++++++++++++
Date: Fri Oct 18 13:58:20 GMT-05:00 2013
User: bianchi
Dark Spectrum Present: No
Reference Spectrum Present: No
Number of Sampled Component Spectra: 1
Spectrometers: USB2+H05261
Integration Time (usec): 50000 (USB2+H05261)
Spectra Averaged: 1 (USB2+H05261)
Boxcar Smoothing: 0 (USB2+H05261)
Correct for Electrical Dark: No (USB2+H05261)
Strobe/Lamp Enabled: No (USB2+H05261)
Correct for Detector Non-linearity: No (USB2+H05261)
Correct for Stray Light: No (USB2+H05261)
Number of Pixels in Processed Spectrum: 2048
>>>>>Begin Processed Spectral Data<<<<<
365.73	0.00
365.92	0.00
366.12	0.00
366.32	0.00
366.52	0.00
366.72	0.00
366.91	0.00
367.11	0.00
367.31	0.00
367.51	0.00
367.70	0.00
367.90	0.00
368.10	0.00
368.30	0.00
368.49	0.00
368.69	0.00
368.89	0.00
369.09	0.00
369.28	0.00
369.48	0.00
369.68	0.00
369.87	0.00
370.07	0.00
370.27	0.00
370.47	0.00
370.66	140.43
370.86	107.66
371.06	119.37
371.25	126.39
371.45	161.50
371.65	93.62
371.84	124.05
372.04	166.18
372.24	161.50
372.44	217.67
372.63	236.39
372.83	205.97
373.03	187.24
373.22	217.67
373.42	166.18
373.62	229.37
373.81	248.10
374.01	229.37
374.21	248.10
374.40	262.14
374.60	327.68
374.79	287.89
374.99	327.68
375.19	255.12
375.38	229.37
375.58	315.97
375.78	278.52
375.97	313.63
376.17	271.50
376.37	245.76
376.56	243.42
376.76	231.71
376.95	287.89
377.15	245.76
377.35	266.82
377.54	266.82
377.74	306.61
377.93	299.59
378.13	320.65
378.33	266.82
378.52	191.92
378.72	301.93
378.91	252.78
379.11	210.65
379.31	308.95
379.50	280.86
379.70	301.93
379.89	266.82
380.09	227.03
380.28	315.97
380.48	327.68
380.68	297.25
380.87	348.74
381.07	367.46
381.26	266.82
381.46	262.14
381.65	330.02
381.85	257.46
382.04	332.36
382.24	379.17
382.43	294.91
382.63	264.48
382.83	388.53
383.02	308.95
383.22	348.74
383.41	395.55
383.61	388.53
383.80	308.95
384.00	374.49
384.19	353.42
384.39	437.68
384.58	308.95
384.78	332.36
384.97	367.46
385.17	311.29
385.36	358.10
385.56	365.12
385.75	463.43
385.95	442.36
386.14	404.91
386.34	308.95
386.53	355.76
386.72	386.19
386.92	442.36
387.11	458.74
387.31	472.79
387.50	507.90
387.70	400.23
387.89	362.78
388.09	374.49
388.28	500.87
388.48	437.68
388.67	404.91
388.86	470.45
389.06	507.90
389.25	510.24
389.45	493.85
389.64	449.38
389.84	484.49
390.03	449.38
390.22	503.22
390.42	468.11
390.61	507.90
390.81	433.00
391.00	470.45
391.19	645.99
391.39	489.17
391.58	440.02
391.78	500.87
391.97	528.96
392.16	533.64
392.36	533.64
392.55	489.17
392.75	601.52
392.94	582.79
393.13	585.13
393.33	505.56
393.52	571.09
393.71	571.09
393.91	592.16
394.10	524.28
394.29	554.71
394.49	627.26
394.68	571.09
394.88	622.58
395.07	554.71
395.26	561.73
395.46	580.45
395.65	631.94
395.84	606.20
396.04	664.71
396.23	617.90
396.42	655.35
396.62	643.65
396.81	676.41
397.00	732.59
397.19	657.69
397.39	732.59
397.58	638.97
397.77	725.57
397.97	620.24
398.16	732.59
398.35	681.10
398.55	734.93
398.74	720.88
398.93	711.52
399.12	657.69
399.32	767.70
399.51	709.18
399.70	709.18
399.90	746.63
400.09	805.14
400.28	809.83
400.47	763.01
400.67	830.89
400.86	800.46
401.05	755.99
401.24	744.29
401.44	863.66
401.63	777.06
401.82	798.12
402.01	828.55
402.21	823.87
402.40	908.13
402.59	788.76
402.78	877.70
402.97	870.68
403.17	912.81
403.36	854.30
403.55	802.80
403.74	898.77
403.93	931.53
404.13	908.13
404.32	795.78
404.51	980.68
404.70	1029.84
404.89	999.41
405.09	1104.73
405.28	994.73
405.47	952.60
405.66	997.07
405.85	964.30
406.05	901.11
406.24	1011.11
406.43	1053.24
406.62	1013.45
406.81	1083.67
407.00	1043.88
407.20	1067.28
407.39	999.41
407.58	1025.15
407.77	1081.33
407.96	1039.20
408.15	1100.05
408.34	994.73
408.54	1060.26
408.73	1086.01
408.92	1018.13
409.11	1177.29
409.30	1158.57
409.49	1219.42
409.68	1165.59
409.87	1240.48
410.07	1121.12
410.26	1198.35
410.45	1270.91
410.64	1214.74
410.83	1207.72
411.02	1207.72
411.21	1249.85
411.40	1268.57
411.59	1277.93
411.78	1296.66
411.98	1383.26
412.17	1310.70
412.36	1270.91
412.55	1345.81
412.74	1418.36
412.93	1310.70
413.12	1252.19
413.31	1509.65
413.50	1380.92
413.69	1364.53
413.88	1495.60
414.07	1411.34
414.26	1434.75
414.45	1387.94
414.64	1495.60
414.83	1551.78
415.02	1526.03
415.22	1624.33
415.41	1481.56
415.60	1526.03
415.79	1643.06
415.98	1636.03
416.17	1633.69
416.36	1631.35
416.55	1561.14
416.74	1526.03
416.93	1650.08
417.12	1685.19
417.31	1689.87
417.50	1673.48
417.69	1722.63
417.88	1612.63
418.07	1675.82
418.26	1839.66
418.45	1706.25
418.64	1687.53
418.83	1856.04
419.02	1860.73
419.21	1858.39
419.39	1944.99
419.58	1809.23
419.77	1874.77
419.96	1809.23
420.15	1825.62
420.34	1832.64
420.53	1961.37
420.72	1849.02
420.91	1785.83
421.10	1919.24
421.29	2036.27
421.48	1900.52
421.67	2054.99
421.86	1973.07
422.05	1926.26
422.24	1989.46
422.43	1893.49
422.61	2083.08
422.80	2015.20
422.99	2115.84
423.18	1937.96
423.37	2097.12
423.56	2033.93
423.75	2059.67
423.94	1954.35
424.13	1844.34
424.32	1907.54
424.50	2066.69
424.69	2024.56
424.88	2132.23
425.07	1991.80
425.26	2101.80
425.45	1961.37
425.64	1977.75
425.83	1935.62
426.01	2143.93
426.20	2057.33
426.39	1987.11
426.58	2015.20
426.77	2080.74
426.96	2167.34
427.15	2129.89
427.33	2118.18
427.52	2108.82
427.71	2059.67
427.90	2186.06
428.09	2127.55
428.28	2230.53
428.46	2282.02
428.65	2169.68
428.84	2296.07
429.03	2174.36
429.22	2092.44
429.40	2324.15
429.59	2284.36
429.78	2153.29
429.97	2237.55
430.16	2291.38
430.34	2352.24
430.53	2310.11
430.72	2298.41
430.91	2321.81
431.10	2246.91
431.28	2300.75
431.47	2298.41
431.66	2434.16
431.85	2471.61
432.03	2424.80
432.22	2408.41
432.41	2310.11
432.60	2485.65
432.79	2495.01
432.97	2431.82
433.16	2443.52
433.35	2401.39
433.54	2569.91
433.72	2544.16
433.91	2466.92
434.10	2572.25
434.28	2546.50
434.47	2637.78
434.66	2689.28
434.85	2586.29
435.03	2593.31
435.22	2705.66
435.41	2581.61
435.59	2829.71
435.78	2509.05
435.97	2616.72
436.16	2700.98
436.34	2740.77
436.53	2633.10
436.72	2726.72
436.90	2651.83
437.09	2731.41
437.28	2553.52
437.46	2736.09
437.65	2778.22
437.84	2871.84
438.02	2656.51
438.21	2965.46
438.40	2785.24
438.58	2829.71
438.77	2869.50
438.96	2808.64
439.14	2958.44
439.33	2789.92
439.52	2911.63
439.70	3009.93
439.89	3126.96
440.08	3077.80
440.26	3063.76
440.45	3068.44
440.63	2995.89
440.82	3138.66
441.01	3066.10
441.19	3253.34
441.38	3211.22
441.57	3180.79
441.75	3192.49
441.94	3288.45
442.12	3269.73
442.31	3363.35
442.50	3361.01
442.68	3213.56
442.87	3384.41
443.05	3363.35
443.24	3503.78
443.43	3335.26
443.61	3417.18
443.80	3466.33
443.98	3290.79
444.17	3267.39
444.35	3531.87
444.54	3499.10
444.73	3468.67
444.91	3365.69
445.10	3485.06
445.28	3454.63
445.47	3492.08
445.65	3461.65
445.84	3541.23
446.02	3489.74
446.21	3485.06
446.39	3396.12
446.58	3754.22
446.77	3599.74
446.95	3370.37
447.14	3520.17
447.32	3609.11
447.51	3501.44
447.69	3424.20
447.88	3389.10
448.06	3588.04
448.25	3562.30
448.43	3620.81
448.62	3358.67
448.80	3674.64
448.99	3576.34
449.17	3625.49
449.36	3452.29
449.54	3765.92
449.73	3691.02
449.91	3845.50
450.10	3768.26
450.28	3758.90
450.46	3646.55
450.65	3742.52
450.83	3847.84
451.02	3648.90
451.20	3850.18
451.39	3808.05
451.57	3681.66
451.76	3620.81
451.94	3875.93
452.13	3948.48
452.31	3798.69
452.49	3798.69
452.68	3801.03
452.86	3925.08
453.05	3934.44
453.23	3871.25
453.42	3969.55
453.60	3990.61
453.78	4037.42
453.97	3859.54
454.15	3836.14
454.34	3922.74
454.52	4007.00
454.70	3899.33
454.89	3992.95
455.07	4032.74
455.26	4154.45
455.44	4219.99
455.62	4180.20
455.81	4035.08
455.99	4021.04
456.17	4173.18
456.36	4259.78
456.54	4259.78
456.73	4205.94
456.91	4311.27
457.09	4344.03
457.28	4470.42
457.46	4264.46
457.64	4416.59
457.83	4491.49
458.01	4248.07
458.19	4442.34
458.38	4355.74
458.56	4528.94
458.74	4409.57
458.93	4510.21
459.11	4510.21
459.29	4535.96
459.48	4437.66
459.66	4468.08
459.84	4526.60
460.03	4566.39
460.21	4575.75
460.39	4631.92
460.57	4468.08
460.76	4524.26
460.94	4723.20
461.12	4571.07
461.31	4629.58
461.49	4713.84
461.67	4713.84
461.85	4748.95
462.04	4699.80
462.22	5060.24
462.40	4819.16
462.59	4685.75
462.77	4816.82
462.95	4772.35
463.13	4770.01
463.32	4898.74
463.50	4910.44
463.68	4901.08
463.86	4978.32
464.05	4723.20
464.23	4912.78
464.41	4894.06
464.59	4835.55
464.78	4933.85
464.96	4917.47
465.14	4915.12
465.32	4975.98
465.50	5022.79
465.69	4975.98
465.87	5095.35
466.05	4975.98
466.23	5029.81
466.41	5132.79
466.60	5011.09
466.78	4994.70
466.96	4961.94
467.14	5050.88
467.32	5020.45
467.51	5090.67
467.69	5008.75
467.87	5291.95
468.05	5179.61
468.23	5181.95
468.41	5275.57
468.60	5240.46
468.78	5277.91
468.96	5219.39
469.14	5373.87
469.32	5289.61
469.50	5163.22
469.69	5474.51
469.87	5472.17
470.05	5399.62
470.23	5486.22
470.41	5458.13
470.59	5652.39
470.77	5427.70
470.95	5565.79
471.14	5455.79
471.32	5561.11
471.50	5657.07
471.68	5717.93
471.86	5673.46
472.04	5572.82
472.22	5778.78
472.40	5797.51
472.58	5722.61
472.77	5647.71
472.95	5865.38
473.13	5874.74
473.31	5764.74
473.49	5863.04
473.67	6022.20
473.85	5935.60
474.03	6015.18
474.21	5888.79
474.39	5966.03
474.57	6036.24
474.75	6171.99
474.93	6169.65
475.12	6160.29
475.30	6160.29
475.48	6211.78
475.66	6293.70
475.84	6225.82
476.02	6155.61
476.20	6228.17
476.38	6455.20
476.56	6593.29
476.74	6604.99
476.92	6590.95
477.10	6567.54
477.28	6647.12
477.46	6546.48
477.64	6665.85
477.82	6825.00
478.00	6972.46
478.18	7098.84
478.36	7021.61
478.54	7131.61
478.72	7073.10
478.90	7403.11
479.08	7143.32
479.26	7332.90
479.44	7421.84
479.62	7351.62
479.80	7501.42
479.98	7459.29
480.16	7527.16
480.34	7410.14
480.52	7658.23
480.70	7681.64
480.88	7674.62
481.06	7777.60
481.24	7801.01
481.41	7742.49
481.59	8067.83
481.77	8009.31
481.95	8067.83
482.13	8238.69
482.31	8145.06
482.49	8353.37
482.67	8428.27
482.85	8505.51
483.03	8615.51
483.21	8585.08
483.39	8603.81
483.57	8667.00
483.74	8699.77
483.92	8812.12
484.10	8667.00
484.28	8725.52
484.46	9011.06
484.64	9135.11
484.82	9132.77
485.00	9177.24
485.18	9317.67
485.35	9324.69
485.53	9535.34
485.71	9401.93
485.89	9727.27
486.07	9511.94
486.25	9628.96
486.43	9846.63
486.61	9923.87
486.78	9888.76
486.96	9921.53
487.14	10064.30
487.32	10331.12
487.50	10164.95
487.68	10429.43
487.85	10427.09
488.03	10443.47
488.21	10511.35
488.39	10754.76
488.57	10745.40
488.75	10651.78
488.92	10993.50
489.10	11080.10
489.28	11005.20
489.46	11269.68
489.64	11159.67
489.81	11353.94
489.99	11419.47
490.17	11276.70
490.35	11616.08
490.53	11754.17
490.70	11843.11
490.88	11609.06
491.06	12028.01
491.24	11595.01
491.41	12032.69
491.59	12273.77
491.77	11822.05
491.95	12238.66
492.13	12187.17
492.30	12201.21
492.48	12222.28
492.66	12336.96
492.84	12657.62
493.01	12606.13
493.19	12561.66
493.37	12760.60
493.54	12739.54
493.72	12713.79
493.90	12842.52
494.08	13048.49
494.25	13212.32
494.43	13305.95
494.61	13490.85
494.79	13261.48
494.96	13184.24
495.14	13481.49
495.32	13743.63
495.49	13614.90
495.67	13926.19
495.85	13811.50
496.02	13865.33
496.20	14052.58
496.38	13930.87
496.55	14019.81
496.73	14356.85
496.91	14377.91
497.09	14473.87
497.26	14609.62
497.44	14441.11
497.62	14595.58
497.79	14635.37
497.97	14726.65
498.14	14635.37
498.32	15133.90
498.50	14864.74
498.67	14925.60
498.85	15002.83
499.03	15213.48
499.20	15117.52
499.38	15447.54
499.56	15335.19
499.73	15323.49
499.91	15281.36
500.08	15445.20
500.26	15475.62
500.44	15613.71
500.61	15756.49
500.79	15372.64
500.97	15665.21
501.14	15978.84
501.32	15758.83
501.49	15812.66
501.67	15805.64
501.84	16109.91
502.02	16039.69
502.20	16152.04
502.37	16166.08
502.55	16259.70
502.72	16264.38
502.90	16332.26
503.07	16318.22
503.25	16231.62
503.43	16397.79
503.60	16568.65
503.78	16535.88
503.95	16830.79
504.13	16538.23
504.30	16514.82
504.48	16671.64
504.65	16617.80
504.83	16968.88
505.01	17081.23
505.18	17123.36
505.36	17245.07
505.53	16945.48
505.71	17214.64
505.88	16961.86
506.06	17099.95
506.23	17532.95
506.41	17572.74
506.58	17614.87
506.76	17589.13
506.93	17717.86
507.11	17518.91
507.28	17647.64
507.46	17867.65
507.63	17736.58
507.81	17778.71
507.98	17722.54
508.16	17844.24
508.33	17762.33
508.50	18066.60
508.68	17935.53
508.85	18080.64
509.03	18146.17
509.20	18012.76
509.38	18345.12
509.55	18473.85
509.73	18485.55
509.90	18506.62
510.08	18288.95
510.25	18572.15
510.42	18492.57
510.60	18717.26
510.77	18735.99
510.95	19014.51
511.12	18677.48
511.30	18937.27
511.47	18948.98
511.64	19030.90
511.82	19159.63
511.99	19122.18
512.17	19314.10
512.34	19164.31
512.51	19126.86
512.69	19403.04
512.86	19534.11
513.04	19585.60
513.21	19564.54
513.38	19786.89
513.56	19616.03
513.73	19253.25
513.90	19403.04
514.08	19508.37
514.25	19833.70
514.43	19665.18
514.60	19756.46
514.77	20009.24
514.95	19875.83
515.12	20079.46
515.29	20180.10
515.47	20084.14
515.64	20027.96
515.81	20414.15
515.99	20273.72
516.16	20475.01
516.33	20247.97
516.51	20325.21
516.68	20236.27
516.85	20519.48
517.03	20444.58
517.20	20753.53
517.37	20847.15
517.54	20566.29
517.72	20549.90
517.89	20563.95
518.06	20608.42
518.24	20765.23
518.41	20774.60
518.58	21043.76
518.75	20896.30
518.93	20926.73
519.10	21123.33
519.27	21219.30
519.45	20786.30
519.62	21144.40
519.79	20910.35
519.96	21530.59
520.14	21305.90
520.31	21472.07
520.48	21607.83
520.65	21315.26
520.83	21685.06
521.00	21240.36
521.17	21376.11
521.34	21341.00
521.52	21710.81
521.69	21774.00
521.86	21806.77
522.03	22333.39
522.20	21685.06
522.38	22148.49
522.55	21949.54
522.72	22054.87
522.89	22015.08
523.07	22232.75
523.24	22349.78
523.41	22216.36
523.58	22143.81
523.75	22373.18
523.92	22394.25
524.10	22375.52
524.27	22139.13
524.44	22696.17
524.61	22483.19
524.78	22754.69
524.96	22422.33
525.13	22560.42
525.30	22883.42
525.47	22684.47
525.64	22731.28
525.81	22883.42
525.98	22995.76
526.16	22892.78
526.33	23108.11
526.50	23087.04
526.67	22831.93
526.84	22998.10
527.01	22860.01
527.18	22911.50
527.36	23417.06
527.53	23388.97
527.70	23440.47
527.87	23564.51
528.04	23283.65
528.21	23681.54
528.38	23285.99
528.55	23410.04
528.72	23183.01
528.89	23616.01
529.07	23536.43
529.24	23651.11
529.41	23421.74
529.58	23711.97
529.75	23517.70
529.92	23693.24
530.09	23901.55
530.26	23683.88
530.43	24046.66
530.60	23833.68
530.77	23639.41
530.94	23946.02
531.11	23906.23
531.28	24077.09
531.46	24032.62
531.63	23756.44
531.80	24002.19
531.97	24224.54
532.14	24142.63
532.31	24311.14
532.48	24341.57
532.65	24247.95
532.82	24226.89
532.99	24631.80
533.16	24077.09
533.33	24608.39
533.50	24599.03
533.67	24500.73
533.84	24397.74
534.01	24460.94
534.18	24383.70
534.35	24636.48
534.52	24765.21
534.69	25050.75
534.86	25158.42
535.03	24875.21
535.20	24706.70
535.37	24753.51
535.54	25099.90
535.71	24704.35
535.88	24692.65
536.05	25055.43
536.22	25385.45
536.38	25575.03
536.55	24797.98
536.72	25532.90
536.89	24924.36
537.06	25046.07
537.23	25207.57
537.40	25109.27
537.57	25137.35
537.74	25043.73
537.91	25586.74
538.08	25137.35
538.25	25404.17
538.42	25207.57
538.59	25699.08
538.75	25233.32
538.92	25619.50
539.09	25378.43
539.26	25364.39
539.43	25809.09
539.60	25703.76
539.77	25832.49
539.94	25710.78
540.11	25809.09
540.28	25883.98
540.44	25696.74
540.61	25881.64
540.78	25883.98
540.95	25823.13
541.12	25523.54
541.29	26022.08
541.46	25954.20
541.62	25769.30
541.79	25792.70
541.96	26190.59
542.13	25975.27
542.30	26038.46
542.47	26373.16
542.63	26375.50
542.80	26295.92
542.97	26707.85
543.14	26363.79
543.31	26441.03
543.48	26270.17
543.64	26473.80
543.81	26412.95
543.98	26539.33
544.15	26654.02
544.32	27000.42
544.48	26871.69
544.65	26782.75
544.82	26600.19
544.99	26394.22
545.16	26602.53
545.32	26668.06
545.49	26859.99
545.66	27185.32
545.83	27068.30
546.00	27262.56
546.16	26647.00
546.33	26698.49
546.50	26639.98
546.67	27136.17
546.83	27040.21
547.00	27180.64
547.17	26836.58
547.34	27068.30
547.50	27438.10
547.67	27161.92
547.84	27365.54
548.00	26960.63
548.17	27342.14
548.34	27295.33
548.51	27105.74
548.67	27400.65
548.84	27412.35
549.01	26962.97
549.18	27349.16
549.34	27358.52
549.51	26965.31
549.68	27772.80
549.84	27543.42
550.01	27482.57
550.18	27335.12
550.34	27639.39
550.51	27662.79
550.68	27646.41
550.84	27541.08
551.01	27817.27
551.18	27754.07
551.34	27470.87
551.51	27527.04
551.68	27920.25
551.84	28027.92
552.01	28070.04
552.18	28112.17
552.34	27798.54
552.51	27978.76
552.68	27725.99
552.84	27672.15
553.01	27931.95
553.18	28177.71
553.34	28100.47
553.51	27819.61
553.67	28285.37
553.84	28158.99
554.01	28079.41
554.17	28671.56
554.34	28233.88
554.51	27964.72
554.67	28524.11
554.84	28318.14
555.00	27861.74
555.17	28266.65
555.33	28638.80
555.50	28299.42
555.67	28322.82
555.83	28622.41
556.00	28287.71
556.16	28318.14
556.33	28561.56
556.50	28371.97
556.66	28919.66
556.83	28222.18
556.99	28545.17
557.16	29001.58
557.32	28739.44
557.49	28840.08
557.65	28580.28
557.82	28645.82
557.98	28444.53
558.15	28577.94
558.32	28811.99
558.48	29088.18
558.65	28709.01
558.81	28636.45
558.98	28776.89
559.14	28671.56
559.31	28987.53
559.47	28568.58
559.64	28865.83
559.80	29069.45
559.97	29209.89
560.13	28643.48
560.30	28484.32
560.46	29287.12
560.63	29046.05
560.79	29027.32
560.96	28835.40
561.12	28879.87
561.29	28821.36
561.45	28854.12
561.61	29039.03
561.78	29111.58
561.94	29106.90
562.11	29247.33
562.27	29369.04
562.44	28903.28
562.60	29050.73
562.77	29184.14
562.93	29092.86
563.10	29338.62
563.26	29134.99
563.42	29497.77
563.59	29322.23
563.75	29373.72
563.92	29315.21
564.08	29048.39
564.24	29380.74
564.41	29362.02
564.57	29298.83
564.74	29352.66
564.90	29460.32
565.07	29486.07
565.23	29490.75
565.39	28971.15
565.56	29647.57
565.72	29046.05
565.88	29347.98
566.05	29177.12
566.21	29333.93
566.38	29303.51
566.54	28980.51
566.70	29605.44
566.87	29694.38
567.03	29301.17
567.19	29944.81
567.36	29743.53
567.52	29212.23
567.68	29481.39
567.85	29366.70
568.01	29621.82
568.17	29879.28
568.34	29628.84
568.50	29605.44
568.66	29764.59
568.83	29565.65
568.99	29893.32
569.15	29432.24
569.32	29572.67
569.48	29284.78
569.64	29645.23
569.81	29736.51
569.97	29736.51
570.13	29769.27
570.30	29411.17
570.46	29984.60
570.62	29549.26
570.78	29879.28
570.95	29532.88
571.11	29727.14
571.27	29640.54
571.43	29507.13
571.60	29818.42
571.76	29792.68
571.92	29806.72
572.09	29823.11
572.25	29778.64
572.41	29708.42
572.57	29308.19
572.74	29963.54
572.90	29462.66
573.06	29949.50
573.22	29818.42
573.38	29982.26
573.55	29937.79
573.71	30403.56
573.87	29935.45
574.03	29928.43
574.20	30209.29
574.36	29851.19
574.52	29717.78
574.68	29802.04
574.84	29495.43
575.01	29696.72
575.17	30134.40
575.33	29790.34
575.49	29986.94
575.65	29788.00
575.82	30019.71
575.98	30113.33
576.14	29961.20
576.30	30029.07
576.46	29610.12
576.62	29638.20
576.79	29865.24
576.95	30000.99
577.11	29965.88
577.27	29935.45
577.43	29603.10
577.59	29975.24
577.75	30129.72
577.92	29607.78
578.08	29722.46
578.24	29848.85
578.40	30071.20
578.56	30148.44
578.72	29909.71
578.88	30242.06
579.04	30705.49
579.21	29907.37
579.37	29961.20
579.53	29834.81
579.69	29858.21
579.85	29694.38
580.01	30000.99
580.17	30038.44
580.33	30087.59
580.49	30272.49
580.65	30162.48
580.82	30092.27
580.98	30167.16
581.14	29968.22
581.30	30249.08
581.46	29848.85
581.62	30078.22
581.78	29771.61
581.94	30122.69
582.10	29989.28
582.26	30160.14
582.42	30085.25
582.58	30258.45
582.74	30181.21
582.90	30125.04
583.06	30061.84
583.22	30309.94
583.38	29979.92
583.54	30085.25
583.70	30267.81
583.86	30019.71
584.02	29776.30
584.18	30108.65
584.34	30129.72
584.50	30005.67
584.66	30235.04
584.82	30075.88
584.98	30036.09
585.14	30211.64
585.30	29476.71
585.46	29909.71
585.62	30377.81
585.78	29853.53
585.94	29965.88
586.10	30043.12
586.26	30061.84
586.42	30565.06
586.58	30740.60
586.74	30433.99
586.90	29853.53
587.06	30326.32
587.22	30272.49
587.38	30110.99
587.54	30497.18
587.70	30366.11
587.86	30080.56
588.02	30171.85
588.18	30228.02
588.34	30326.32
588.49	30274.83
588.65	30218.66
588.81	30319.30
588.97	30190.57
589.13	30099.29
589.29	30031.41
589.45	30183.55
589.61	30522.93
589.77	30342.70
589.93	30419.94
590.08	30614.21
590.24	30501.86
590.40	30721.87
590.56	30740.60
590.72	30141.42
590.88	30244.40
591.04	30417.60
591.20	30579.10
591.35	30909.11
591.51	30581.44
591.67	30822.51
591.83	30869.33
591.99	30754.64
592.15	30794.43
592.31	30661.02
592.46	30242.06
592.62	30314.62
592.78	30260.79
592.94	30433.99
593.10	30604.84
593.26	30764.00
593.41	30693.79
593.57	30433.99
593.73	30700.81
593.89	30878.69
594.05	30663.36
594.20	30635.27
594.36	30426.96
594.52	30513.56
594.68	30356.75
594.84	30398.88
594.99	30562.72
595.15	30450.37
595.31	30799.11
595.47	30583.78
595.62	30611.87
595.78	30459.73
595.94	30668.04
596.10	31077.63
596.25	30394.20
596.41	31126.78
596.57	30267.81
596.73	30703.15
596.88	30309.94
597.04	30668.04
597.20	31178.28
597.36	31278.92
597.51	30719.53
597.67	30630.59
597.83	30543.99
597.99	30754.64
598.14	30038.44
598.30	30740.60
598.46	30808.47
598.61	31204.02
598.77	30433.99
598.93	30857.62
599.09	30897.41
599.24	31271.90
599.40	31147.85
599.56	30815.49
599.71	30920.82
599.87	30668.04
600.03	30792.09
600.18	30756.98
600.34	30958.27
600.50	30391.86
600.65	30874.01
600.81	31243.81
600.97	30895.07
601.12	30984.01
601.28	30696.13
601.44	31119.76
601.59	30707.83
601.75	30773.36
601.91	30871.67
602.06	30665.70
602.22	30513.56
602.37	30778.04
602.53	30698.47
602.69	30888.05
602.84	30661.02
603.00	30904.43
603.16	30930.18
603.31	30724.21
603.47	30602.50
603.62	30630.59
603.78	30604.84
603.94	30700.81
604.09	30345.05
604.25	30953.58
604.40	30408.24
604.56	30876.35
604.71	30888.05
604.87	30799.11
605.03	30859.96
605.18	30782.73
605.34	30895.07
605.49	31124.44
605.65	30630.59
605.80	30593.14
605.96	30682.08
606.12	30246.74
606.27	30728.89
606.43	30331.00
606.58	30829.54
606.74	30508.88
606.89	30639.95
607.05	30628.25
607.20	30834.22
607.36	30972.31
607.51	30850.60
607.67	30766.34
607.82	30277.17
607.98	30625.91
608.13	30597.82
608.29	30651.66
608.44	30614.21
608.60	30513.56
608.75	30677.40
608.91	30574.42
609.06	30721.87
609.22	30838.90
609.37	30153.12
609.53	30403.56
609.68	30368.45
609.84	30719.53
609.99	30494.84
610.15	30424.62
610.30	30326.32
610.46	30036.09
610.61	30298.23
610.76	30281.85
610.92	30146.10
611.07	30504.20
611.23	30586.12
611.38	30309.94
611.54	30405.90
611.69	30539.31
611.84	30209.29
612.00	30122.69
612.15	30274.83
612.31	30429.30
612.46	30213.98
612.62	30178.87
612.77	30153.12
612.92	30352.07
613.08	30541.65
613.23	30370.79
613.39	30340.36
613.54	30103.97
613.69	30466.75
613.85	29869.92
614.00	30066.52
614.15	30501.86
614.31	30148.44
614.46	30291.21
614.62	30043.12
614.77	30040.78
614.92	29998.65
615.08	30164.82
615.23	29975.24
615.38	29930.77
615.54	29640.54
615.69	30284.19
615.84	29563.31
616.00	30141.42
616.15	30195.25
616.30	29729.48
616.46	29935.45
616.61	29881.62
616.76	30511.22
616.92	30113.33
617.07	30003.33
617.22	29769.27
617.37	29769.27
617.53	29518.84
617.68	30192.91
617.83	29493.09
617.99	30040.78
618.14	29603.10
618.29	29982.26
618.45	30242.06
618.60	29902.68
618.75	29717.78
618.90	30052.48
619.06	29802.04
619.21	29717.78
619.36	29965.88
619.51	29518.84
619.67	29130.31
619.82	29280.10
619.97	29429.90
620.12	29167.76
620.28	29708.42
620.43	29603.10
620.58	29848.85
620.73	29699.06
620.89	29582.03
621.04	29780.98
621.19	29663.95
621.34	29685.01
621.49	29549.26
621.65	29333.93
621.80	29584.37
621.95	29181.80
622.10	29418.19
622.25	29254.36
622.41	28914.98
622.56	29163.08
622.71	29390.11
622.86	29584.37
623.01	29252.02
623.16	29090.52
623.32	29404.15
623.47	29310.53
623.62	28914.98
623.77	29277.76
623.92	29085.84
624.07	29156.05
624.23	29333.93
624.38	29233.29
624.53	29081.16
624.68	29425.22
624.83	29472.03
624.98	29467.34
625.13	29010.94
625.29	29249.67
625.44	29179.46
625.59	28992.22
625.74	28638.80
625.89	28727.74
626.04	28886.89
626.19	28739.44
626.34	28795.61
626.49	28863.49
626.65	28641.14
626.80	29032.00
626.95	28802.63
627.10	28744.12
627.25	28879.87
627.40	29043.71
627.55	28662.20
627.70	28435.17
627.85	28875.19
628.00	28465.60
628.15	28854.12
628.30	28844.76
628.45	28556.88
628.60	28531.13
628.76	29036.69
628.91	28643.48
629.06	28659.86
629.21	28474.96
629.36	28491.34
629.51	28697.31
629.66	28299.42
629.81	28278.35
629.96	28767.52
630.11	28297.08
630.26	28589.64
630.41	28287.71
630.56	28533.47
630.71	28252.61
630.86	28540.49
631.01	28386.02
631.16	28182.39
631.31	28348.57
631.46	28418.78
631.61	28730.08
631.76	28046.64
631.91	28149.62
632.06	28105.15
632.21	28130.90
632.36	28425.81
632.51	28444.53
632.66	28430.49
632.81	28086.43
632.96	28320.48
633.10	27857.06
633.25	28294.74
633.40	28343.89
633.55	28222.18
633.70	27913.23
633.85	27810.25
634.00	27747.05
634.15	27929.61
634.30	27796.20
634.45	27810.25
634.60	28011.53
634.75	28205.80
634.90	28023.23
635.05	28009.19
635.19	28002.17
635.34	28112.17
635.49	28311.12
635.64	27953.02
635.79	28016.21
635.94	27899.19
636.09	28112.17
636.24	27482.57
636.39	27770.46
636.53	27814.93
636.68	27784.50
636.83	27770.46
636.98	27700.24
637.13	27718.96
637.28	27587.89
637.43	27646.41
637.57	27843.01
637.72	27316.39
637.87	27325.75
638.02	27587.89
638.17	27716.62
638.32	27667.47
638.46	27381.93
638.61	27405.33
638.76	27440.44
638.91	27292.99
639.06	27033.19
639.20	27461.51
639.35	27534.06
639.50	27257.88
639.65	27538.74
639.80	27625.34
639.94	27487.25
640.09	27534.06
640.24	27360.86
640.39	27304.69
640.54	27012.12
640.68	27110.43
640.83	26838.92
640.98	27136.17
641.13	27082.34
641.27	27531.72
641.42	27129.15
641.57	27424.06
641.72	27089.36
641.86	27316.39
642.01	26855.31
642.16	27222.77
642.31	26789.77
642.45	26939.57
642.60	26780.41
642.75	26967.65
642.90	26551.04
643.04	26792.11
643.19	27058.93
643.34	27154.90
643.48	26787.43
643.63	26981.70
643.78	26764.03
643.93	27000.42
644.07	27234.47
644.22	27119.79
644.37	27131.49
644.51	26775.73
644.66	27035.53
644.81	26834.24
644.95	26581.46
645.10	26621.25
645.25	26958.29
645.39	26487.84
645.54	26749.98
645.69	26752.32
645.83	26838.92
645.98	26735.94
646.13	26885.73
646.27	26499.55
646.42	26668.06
646.57	26462.10
646.71	26998.08
646.86	26738.28
647.00	26237.41
647.15	26321.66
647.30	26471.46
647.44	26504.23
647.59	26483.16
647.74	26181.23
647.88	26583.80
648.03	26424.65
648.17	26239.75
648.32	26918.50
648.47	26607.21
648.61	26377.84
648.76	26438.69
648.90	26494.86
649.05	26419.97
649.20	26342.73
649.34	26686.79
649.49	26113.36
649.63	26356.77
649.78	26059.52
649.92	26094.63
650.07	26078.25
650.21	25912.07
650.36	26298.26
650.51	26141.44
650.65	26661.04
650.80	26291.24
650.94	25841.85
651.09	25816.11
651.23	26031.44
651.38	26319.32
651.52	26054.84
651.67	26050.16
651.81	26195.28
651.96	26122.72
652.10	25720.15
652.25	26059.52
652.39	25975.27
652.54	26396.56
652.68	26359.11
652.83	25809.09
652.97	25993.99
653.12	25921.43
653.26	25855.90
653.41	26113.36
653.55	26096.97
653.70	25905.05
653.84	25827.81
653.99	25713.13
654.13	25507.16
654.27	25696.74
654.42	25893.35
654.56	25776.32
654.71	25949.52
654.85	25656.95
655.00	25741.21
655.14	25799.73
655.29	25607.80
655.43	25621.84
655.57	26045.48
655.72	25268.42
655.86	25757.60
656.01	25556.31
656.15	25584.40
656.30	25535.24
656.44	25539.93
656.58	25413.54
656.73	25383.11
656.87	25448.64
657.01	25422.90
657.16	25621.84
657.30	25802.07
657.45	25553.97
657.59	25404.17
657.73	25001.60
657.88	25376.09
658.02	25088.20
658.16	25310.55
658.31	25277.79
658.45	25198.21
658.60	25076.50
658.74	25181.82
658.88	25146.72
659.03	25142.03
659.17	25149.06
659.31	25228.63
659.46	24805.00
659.60	25219.27
659.74	24989.90
659.89	24952.45
660.03	24943.09
660.17	25067.14
660.32	24891.60
660.46	24570.94
660.60	24482.00
660.74	24805.00
660.89	24840.11
661.03	24411.79
661.17	24552.22
661.32	24631.80
661.46	24919.68
661.60	24987.56
661.74	24697.33
661.89	24407.11
662.03	24538.18
662.17	24114.54
662.31	24479.66
662.46	24716.06
662.60	24641.16
662.74	24364.98
662.88	24098.16
663.03	24222.20
663.17	24084.11
663.31	24175.39
663.45	23929.64
663.60	24020.92
663.74	24222.20
663.88	24320.51
664.02	24276.04
664.17	24568.60
664.31	23964.75
664.45	24140.29
664.59	23953.04
664.73	23999.85
664.88	23836.02
665.02	23534.09
665.16	23538.77
665.30	23782.18
665.44	23454.51
665.59	23866.44
665.73	23761.12
665.87	23484.94
666.01	23632.39
666.15	23592.60
666.29	23250.88
666.44	23445.15
666.58	23358.55
666.72	23201.73
666.86	23639.41
667.00	23410.04
667.14	23143.22
667.28	23681.54
667.43	23187.69
667.57	23424.08
667.71	23101.09
667.85	22916.19
667.99	23290.67
668.13	23063.64
668.27	23290.67
668.41	23157.26
668.56	23094.07
668.70	23152.58
668.84	23140.88
668.98	23215.77
669.12	23009.81
669.26	22630.64
669.40	23028.53
669.54	23009.81
669.68	22925.55
669.82	22705.54
669.96	22527.66
670.10	22698.52
670.25	22738.30
670.39	22766.39
670.53	22384.88
670.67	22391.91
670.81	22532.34
670.95	22317.01
671.09	22443.40
671.23	22188.28
671.37	22354.46
671.51	22595.53
671.65	22141.47
671.79	22377.86
671.93	22242.11
672.07	22022.10
672.21	22197.64
672.35	21813.79
672.49	21841.88
672.63	22068.91
672.77	21795.07
672.91	21610.17
673.05	21893.37
673.19	21624.21
673.33	21961.25
673.47	21830.18
673.61	21989.33
673.75	22115.72
673.89	21956.57
674.03	21853.58
674.17	21532.93
674.31	21549.31
674.45	21383.13
674.59	21472.07
674.73	21570.38
674.87	21371.43
675.01	21256.75
675.15	21015.67
675.29	21308.24
675.43	20840.13
675.56	21130.36
675.70	21022.69
675.84	20683.31
675.98	20386.07
676.12	20994.61
676.26	21249.72
676.40	20973.54
676.54	21001.63
676.68	20814.38
676.82	20636.50
676.96	20552.24
677.10	20676.29
677.23	20212.87
677.37	20393.09
677.51	20325.21
677.65	19969.45
677.79	20058.39
677.93	20493.73
678.07	20112.22
678.21	19894.55
678.34	19838.38
678.48	19711.99
678.62	19903.92
678.76	19728.38
678.90	19814.98
679.04	19941.36
679.18	19667.52
679.31	19452.19
679.45	19377.30
679.59	19412.40
679.73	19344.53
679.87	19171.33
680.00	19311.76
680.14	19367.93
680.28	19527.09
680.42	19044.94
680.56	19185.37
680.70	19349.21
680.83	19363.25
680.97	18920.89
681.11	19253.25
681.25	18998.13
681.39	18801.52
681.52	18696.20
681.66	18792.16
681.80	18539.38
681.94	18672.79
682.07	18679.82
682.21	18359.16
682.35	18218.73
682.49	18181.28
682.62	18377.89
682.76	18331.08
682.90	17965.95
683.04	18071.28
683.17	18169.58
683.31	18228.09
683.45	18033.83
683.59	17774.03
683.72	17930.84
683.86	17762.33
684.00	18132.13
684.13	17523.59
684.27	17708.49
684.41	17497.84
684.55	17518.91
684.68	17362.09
684.82	17542.32
684.96	17348.05
685.09	17191.23
685.23	17434.65
685.37	17116.34
685.50	17198.26
685.64	17214.64
685.78	17050.80
685.91	17069.53
686.05	17216.98
686.19	16744.19
686.32	17181.87
686.46	16865.90
686.60	16603.76
686.73	16634.19
686.87	16645.89
687.01	16627.17
687.14	16432.90
687.28	16491.41
687.42	16531.20
687.55	16542.91
687.69	16578.01
687.82	16217.57
687.96	16259.70
688.10	16079.48
688.23	16018.63
688.37	15857.13
688.50	16025.65
688.64	15845.43
688.78	15957.77
688.91	15690.95
689.05	16011.60
689.18	15845.43
689.32	15571.58
689.46	15309.44
689.59	15522.43
689.73	15438.17
689.86	15393.70
690.00	15459.24
690.13	15414.77
690.27	15300.08
690.41	15220.50
690.54	15192.42
690.68	15400.72
690.81	15304.76
690.95	15110.50
691.08	15187.74
691.22	14930.28
691.35	14883.47
691.49	15194.76
691.62	14782.82
691.76	14892.83
691.89	14586.22
692.03	14768.78
692.16	14501.96
692.30	14487.92
692.43	14567.49
692.57	14092.37
692.70	14207.05
692.84	14310.04
692.97	14253.86
693.11	14232.80
693.24	14148.54
693.38	14101.73
693.51	14010.45
693.65	13975.34
693.78	14253.86
693.92	14113.43
694.05	14029.17
694.19	14012.79
694.32	13745.97
694.45	13607.87
694.59	13689.79
694.72	13764.69
694.86	13467.44
694.99	13371.48
695.13	13476.80
695.26	13280.20
695.39	13275.52
695.53	13352.76
695.66	13027.42
695.80	13261.48
695.93	13167.85
696.07	13224.03
696.20	13228.71
696.33	12814.43
696.47	12933.80
696.60	12730.17
696.73	12786.35
696.87	12833.16
697.00	12643.57
697.14	12498.46
697.27	12617.83
697.40	12538.25
697.54	12285.47
697.67	12379.09
697.80	12500.80
697.94	12386.12
698.07	12109.93
698.21	12470.37
698.34	12180.15
698.47	12362.71
698.61	12397.82
698.74	12079.50
698.87	12180.15
699.01	11995.25
699.14	11927.37
699.27	11894.60
699.40	11838.43
699.54	11808.00
699.67	11810.34
699.80	11815.02
699.94	11702.68
700.07	11756.51
700.20	11461.60
700.34	11485.01
700.47	11445.22
700.60	11489.69
700.73	11346.92
700.87	11300.11
701.00	11176.06
701.13	11145.63
701.26	11293.08
701.40	11419.47
701.53	11187.76
701.66	11131.59
701.79	11169.04
701.93	10862.43
702.06	10855.40
702.19	10733.70
702.32	10824.98
702.46	10759.44
702.59	10619.01
702.72	10429.43
702.85	10382.62
702.99	10665.82
703.12	10679.86
703.25	10403.68
703.38	10394.32
703.51	10310.06
703.65	10394.32
703.78	10394.32
703.91	10221.12
704.04	10249.21
704.17	10260.91
704.31	10193.03
704.44	9942.60
704.57	10239.84
704.70	9949.62
704.83	9879.40
704.96	9930.89
705.10	9743.65
705.23	9577.47
>>>>>End Processed Spectral Data<<<<<
