SpectraSuite Data File
++++++++++++++++++++++++++++++++++++
Date: Fri Oct 18 13:57:59 GMT-05:00 2013
User: bianchi
Dark Spectrum Present: No
Reference Spectrum Present: No
Number of Sampled Component Spectra: 1
Spectrometers: USB2+H05261
Integration Time (usec): 50000 (USB2+H05261)
Spectra Averaged: 1 (USB2+H05261)
Boxcar Smoothing: 0 (USB2+H05261)
Correct for Electrical Dark: No (USB2+H05261)
Strobe/Lamp Enabled: No (USB2+H05261)
Correct for Detector Non-linearity: No (USB2+H05261)
Correct for Stray Light: No (USB2+H05261)
Number of Pixels in Processed Spectrum: 2048
>>>>>Begin Processed Spectral Data<<<<<
365.73	0.00
365.92	0.00
366.12	0.00
366.32	0.00
366.52	0.00
366.72	0.00
366.91	0.00
367.11	0.00
367.31	0.00
367.51	0.00
367.70	0.00
367.90	0.00
368.10	0.00
368.30	0.00
368.49	0.00
368.69	0.00
368.89	0.00
369.09	0.00
369.28	0.00
369.48	0.00
369.68	0.00
369.87	0.00
370.07	0.00
370.27	0.00
370.47	0.00
370.66	133.41
370.86	46.81
371.06	135.75
371.25	177.88
371.45	161.50
371.65	105.32
371.84	170.86
372.04	145.11
372.24	102.98
372.44	138.09
372.63	236.39
372.83	196.60
373.03	215.33
373.22	229.37
373.42	88.94
373.62	229.37
373.81	243.42
374.01	182.56
374.21	234.05
374.40	285.55
374.60	241.08
374.79	273.84
374.99	257.46
375.19	264.48
375.38	205.97
375.58	280.86
375.78	297.25
375.97	245.76
376.17	297.25
376.37	344.06
376.56	358.10
376.76	229.37
376.95	238.73
377.15	264.48
377.35	250.44
377.54	259.80
377.74	212.99
377.93	334.70
378.13	212.99
378.33	332.36
378.52	266.82
378.72	322.99
378.91	311.29
379.11	285.55
379.31	271.50
379.50	234.05
379.70	341.72
379.89	327.68
380.09	339.38
380.28	301.93
380.48	259.80
380.68	322.99
380.87	283.20
381.07	362.78
381.26	311.29
381.46	332.36
381.65	400.23
381.85	383.85
382.04	341.72
382.24	362.78
382.43	346.40
382.63	313.63
382.83	306.61
383.02	322.99
383.22	304.27
383.41	285.55
383.61	407.25
383.80	369.80
384.00	334.70
384.19	402.57
384.39	374.49
384.58	395.55
384.78	400.23
384.97	454.06
385.17	313.63
385.36	348.74
385.56	395.55
385.75	322.99
385.95	404.91
386.14	369.80
386.34	430.66
386.53	496.19
386.72	449.38
386.92	386.19
387.11	360.44
387.31	414.27
387.50	416.62
387.70	407.25
387.89	465.77
388.09	400.23
388.28	425.98
388.48	414.27
388.67	442.36
388.86	447.04
389.06	519.60
389.25	535.98
389.45	437.68
389.64	465.77
389.84	521.94
390.03	437.68
390.22	533.64
390.42	512.58
390.61	500.87
390.81	545.34
391.00	475.13
391.19	498.53
391.39	498.53
391.58	578.11
391.78	484.49
391.97	514.92
392.16	514.92
392.36	587.47
392.55	442.36
392.75	528.96
392.94	578.11
393.13	571.09
393.33	521.94
393.52	517.26
393.71	622.58
393.91	601.52
394.10	554.71
394.29	592.16
394.49	627.26
394.68	622.58
394.88	697.48
395.07	622.58
395.26	645.99
395.46	622.58
395.65	657.69
395.84	681.10
396.04	706.84
396.23	702.16
396.42	676.41
396.62	655.35
396.81	720.88
397.00	645.99
397.19	645.99
397.39	660.03
397.58	704.50
397.77	657.69
397.97	760.67
398.16	585.13
398.35	650.67
398.55	669.39
398.74	653.01
398.93	704.50
399.12	695.14
399.32	720.88
399.51	741.95
399.70	791.10
399.90	730.25
400.09	807.48
400.28	755.99
400.47	767.70
400.67	828.55
400.86	833.23
401.05	753.65
401.24	791.10
401.44	844.93
401.63	709.18
401.82	753.65
402.01	765.36
402.21	765.36
402.40	814.51
402.59	781.74
402.78	805.14
402.97	856.64
403.17	842.59
403.36	896.43
403.55	866.00
403.74	891.74
403.93	912.81
404.13	943.24
404.32	919.83
404.51	964.30
404.70	933.87
404.89	938.55
405.09	1001.75
405.28	997.07
405.47	891.74
405.66	1006.43
405.85	978.34
406.05	1011.11
406.24	987.71
406.43	1015.79
406.62	1041.54
406.81	968.98
407.00	997.07
407.20	971.32
407.39	1064.94
407.58	1144.52
407.77	1020.47
407.96	1036.86
408.15	1118.78
408.34	1100.05
408.54	1062.60
408.73	1088.35
408.92	1156.22
409.11	1043.88
409.30	1100.05
409.49	1128.14
409.68	1203.04
409.87	1196.01
410.07	1221.76
410.26	1160.91
410.45	1198.35
410.64	1238.14
410.83	1186.65
411.02	1172.61
411.21	1186.65
411.40	1338.79
411.59	1226.44
411.78	1338.79
411.98	1306.02
412.17	1369.21
412.36	1268.57
412.55	1383.26
412.74	1399.64
412.93	1355.17
413.12	1359.85
413.31	1371.55
413.50	1390.28
413.69	1380.92
413.88	1481.56
414.07	1521.35
414.26	1404.32
414.45	1476.88
414.64	1561.14
414.83	1603.27
415.02	1645.40
415.22	1540.07
415.41	1568.16
415.60	1558.80
415.79	1561.14
415.98	1626.67
416.17	1757.74
416.36	1598.59
416.55	1633.69
416.74	1614.97
416.93	1757.74
417.12	1607.95
417.31	1729.66
417.50	1832.64
417.69	1811.57
417.88	1701.57
418.07	1710.93
418.26	1844.34
418.45	1781.15
418.64	1921.58
418.83	1767.10
419.02	1774.13
419.21	1825.62
419.39	1849.02
419.58	1820.94
419.77	1839.66
419.96	1851.36
420.15	1961.37
420.34	1902.86
420.53	1877.11
420.72	1879.45
420.91	1949.67
421.10	1975.41
421.29	1944.99
421.48	1916.90
421.67	2031.58
421.86	2097.12
422.05	1935.62
422.24	2090.10
422.43	1998.82
422.61	2071.37
422.80	2045.63
422.99	2153.29
423.18	2052.65
423.37	2038.61
423.56	2120.53
423.75	2085.42
423.94	2071.37
424.13	2010.52
424.32	1970.73
424.50	2125.21
424.69	2099.46
424.88	2094.78
425.07	2062.01
425.26	2090.10
425.45	1991.80
425.64	2031.58
425.83	2209.47
426.01	2242.23
426.20	2087.76
426.39	2155.63
426.58	2106.48
426.77	2066.69
426.96	2134.57
427.15	2146.27
427.33	2115.84
427.52	2155.63
427.71	2282.02
427.90	2169.68
428.09	2183.72
428.28	2230.53
428.46	2169.68
428.65	2260.96
428.84	2284.36
429.03	2387.35
429.22	2157.97
429.40	2452.88
429.59	2375.64
429.78	2092.44
429.97	2218.83
430.16	2263.30
430.34	2284.36
430.53	2282.02
430.72	2368.62
430.91	2382.67
431.10	2326.49
431.28	2417.77
431.47	2361.60
431.66	2466.92
431.85	2314.79
432.03	2363.94
432.22	2487.99
432.41	2480.97
432.60	2469.27
432.79	2464.58
432.97	2436.50
433.16	2511.39
433.35	2642.46
433.54	2605.02
433.72	2628.42
433.91	2452.88
434.10	2523.10
434.28	2436.50
434.47	2626.08
434.66	2436.50
434.85	2628.42
435.03	2569.91
435.22	2635.44
435.41	2689.28
435.59	2724.38
435.78	2684.59
435.97	2647.15
436.16	2773.53
436.34	2782.90
436.53	2698.64
436.72	2850.77
436.90	2698.64
437.09	2717.36
437.28	2813.32
437.46	2839.07
437.65	2897.58
437.84	2888.22
438.02	2801.62
438.21	2768.85
438.40	2846.09
438.58	2998.23
438.77	3002.91
438.96	2867.16
439.14	3087.17
439.33	3103.55
439.52	3155.04
439.70	3012.27
439.89	3082.49
440.08	3194.83
440.26	2981.84
440.45	2979.50
440.63	3091.85
440.82	3131.64
441.01	3042.70
441.19	3152.70
441.38	3173.77
441.57	3129.30
441.75	3332.92
441.94	3274.41
442.12	3290.79
442.31	3386.76
442.50	3400.80
442.68	3414.84
442.87	3215.90
443.05	3372.71
443.24	3632.51
443.43	3536.55
443.61	3513.14
443.80	3520.17
443.98	3435.91
444.17	3276.75
444.35	3414.84
444.54	3583.36
444.73	3529.53
444.91	3473.36
445.10	3405.48
445.28	3445.27
445.47	3456.97
445.65	3531.87
445.84	3527.19
446.02	3627.83
446.21	3585.70
446.39	3529.53
446.58	3651.24
446.77	3644.21
446.95	3461.65
447.14	3625.49
447.32	3655.92
447.51	3515.48
447.69	3625.49
447.88	3735.50
448.06	3679.32
448.25	3571.66
448.43	3653.58
448.62	3688.68
448.80	3515.48
448.99	3623.15
449.17	3723.79
449.36	3686.34
449.54	3777.62
449.73	3651.24
449.91	3688.68
450.10	3660.60
450.28	3939.12
450.46	3744.86
450.65	3761.24
450.83	3817.41
451.02	3864.22
451.20	3927.42
451.39	3885.29
451.57	3794.01
451.76	3871.25
451.94	3770.60
452.13	4028.06
452.31	3946.14
452.49	3754.22
452.68	3999.98
452.86	4002.32
453.05	3936.78
453.23	3997.64
453.42	3929.76
453.60	3927.42
453.78	3932.10
453.97	3974.23
454.15	3911.04
454.34	3929.76
454.52	3974.23
454.70	4039.76
454.89	4154.45
455.07	4032.74
455.26	4219.99
455.44	4107.64
455.62	4014.02
455.81	4259.78
455.99	4252.75
456.17	4294.88
456.36	4107.64
456.54	4423.61
456.73	4271.48
456.91	4411.91
457.09	4276.16
457.28	4468.08
457.46	4374.46
457.64	4418.93
457.83	4440.00
458.01	4411.91
458.19	4496.17
458.38	4491.49
458.56	4482.13
458.74	4594.47
458.93	4496.17
459.11	4521.92
459.29	4442.34
459.48	4414.25
459.66	4650.64
459.84	4603.83
460.03	4580.43
460.21	4634.26
460.39	4652.98
460.57	4580.43
460.76	4723.20
460.94	4690.43
461.12	4690.43
461.31	4697.46
461.49	4634.26
461.67	4638.94
461.85	4828.53
462.04	4805.12
462.22	4994.70
462.40	4819.16
462.59	4713.84
462.77	4952.57
462.95	4943.21
463.13	4929.17
463.32	4791.08
463.50	4952.57
463.68	4856.61
463.86	4957.25
464.05	4863.63
464.23	4926.83
464.41	5121.09
464.59	4980.66
464.78	5076.62
464.96	4905.76
465.14	5004.07
465.32	5118.75
465.50	5067.26
465.69	4999.38
465.87	5104.71
466.05	5041.51
466.23	5027.47
466.41	5252.16
466.60	5252.16
466.78	5041.51
466.96	5256.84
467.14	4964.28
467.32	5221.74
467.51	5273.23
467.69	4966.62
467.87	5128.11
468.05	5193.65
468.23	5177.26
468.41	5355.15
468.60	5268.55
468.78	5394.93
468.96	5406.64
469.14	5434.72
469.32	5551.75
469.50	5420.68
469.69	5488.56
469.87	5453.45
470.05	5504.94
470.23	5561.11
470.41	5504.94
470.59	5558.77
470.77	5647.71
470.95	5673.46
471.14	5586.86
471.32	5530.69
471.50	5729.63
471.68	5778.78
471.86	5799.85
472.04	5708.57
472.22	5898.15
472.40	5811.55
472.58	6012.84
472.77	5837.30
472.95	5895.81
473.13	6076.03
473.31	5996.45
473.49	5804.53
473.67	6010.50
473.85	5879.43
474.03	6232.85
474.21	6181.35
474.39	6242.21
474.57	6249.23
474.75	6129.86
474.93	6448.18
475.12	6326.47
475.30	6492.65
475.48	6265.61
475.66	6399.02
475.84	6513.71
476.02	6602.65
476.20	6558.18
476.38	6658.82
476.56	6740.74
476.74	6736.06
476.92	6717.34
477.10	6682.23
477.28	6752.45
477.46	6764.15
477.64	6649.46
477.82	6949.05
478.00	7129.27
478.18	7248.64
478.36	7222.89
478.54	7159.70
478.72	7098.84
478.90	7363.33
479.08	7524.82
479.26	7478.01
479.44	7368.01
479.62	7297.79
479.80	7634.83
479.98	7644.19
480.16	7709.72
480.34	7531.84
480.52	7768.24
480.70	7831.43
480.88	7772.92
481.06	7911.01
481.24	7880.58
481.41	7981.23
481.59	8161.45
481.77	8208.26
481.95	8184.85
482.13	8334.65
482.31	8266.77
482.49	8531.25
482.67	8608.49
482.85	8325.29
483.03	8613.17
483.21	8533.59
483.39	8788.71
483.57	8688.07
483.74	8908.08
483.92	8980.64
484.10	8877.65
484.28	9111.71
484.46	9184.26
484.64	9158.52
484.82	9055.53
485.00	9362.14
485.18	9268.52
485.35	9612.58
485.53	9628.96
485.71	9856.00
485.89	9792.80
486.07	9734.29
486.25	9753.01
486.43	9912.17
486.61	9933.23
486.78	9900.47
486.96	10024.51
487.14	10239.84
487.32	10246.87
487.50	10485.60
487.68	10370.91
487.85	10626.03
488.03	10642.42
488.21	10740.72
488.39	10792.21
488.57	10628.37
488.75	11080.10
488.92	11066.05
489.10	11068.39
489.28	11080.10
489.46	11192.44
489.64	11257.98
489.81	11300.11
489.99	11543.52
490.17	11318.83
490.35	11658.21
490.53	11786.94
490.70	11978.86
490.88	11871.20
491.06	11810.34
491.24	11758.85
491.41	12226.96
491.59	11981.20
491.77	12521.87
491.95	12306.54
492.13	12358.03
492.30	12393.14
492.48	12486.76
492.66	12704.43
492.84	12486.76
493.01	12599.10
493.19	12699.75
493.37	12758.26
493.54	13242.75
493.72	13458.08
493.90	13008.70
494.08	13327.01
494.25	13397.23
494.43	13422.97
494.61	13556.38
494.79	13778.73
494.96	13474.46
495.14	13703.84
495.32	13659.37
495.49	14024.49
495.67	13757.67
495.85	14075.98
496.02	13977.68
496.20	14244.50
496.38	14232.80
496.55	14312.38
496.73	14483.24
496.91	14293.65
497.09	14586.22
497.26	14855.38
497.44	14356.85
497.62	14628.35
497.79	14810.91
497.97	14860.06
498.14	14874.10
498.32	14960.70
498.50	15063.69
498.67	15314.13
498.85	15246.25
499.03	15445.20
499.20	15566.90
499.38	15276.68
499.56	15459.24
499.73	15522.43
499.91	15737.76
500.08	15817.34
500.26	15676.91
500.44	15580.95
500.61	15775.21
500.79	16002.24
500.97	15908.62
501.14	16510.14
501.32	16236.30
501.49	15946.07
501.67	16049.05
501.84	16140.33
502.02	16245.66
502.20	16535.88
502.37	16442.26
502.55	16198.85
502.72	16484.39
502.90	16423.54
503.07	16793.34
503.25	16816.75
503.43	16585.04
503.60	16795.68
503.78	17041.44
503.95	16978.25
504.13	16805.05
504.30	16989.95
504.48	17036.76
504.65	17039.10
504.83	17209.96
505.01	17558.70
505.18	17458.06
505.36	17811.48
505.53	17703.81
505.71	17240.39
505.88	17490.82
506.06	17118.68
506.23	17654.66
506.41	17425.29
506.58	17671.04
506.76	17825.52
506.93	17888.71
507.11	17664.02
507.28	17762.33
507.46	17823.18
507.63	18115.75
507.81	18251.50
507.98	18115.75
508.16	18338.10
508.33	18356.82
508.50	18387.25
508.68	18427.04
508.85	18583.85
509.03	18579.17
509.20	18611.94
509.38	18752.37
509.55	18925.57
509.73	18707.90
509.90	18918.55
510.08	18883.44
510.25	18923.23
510.42	19047.28
510.60	18984.09
510.77	19260.27
510.95	19461.55
511.12	19037.92
511.30	19183.03
511.47	19204.10
511.64	19618.37
511.82	19637.09
511.99	19288.35
512.17	19545.81
512.34	19826.68
512.51	19396.02
512.69	19974.13
512.86	19707.31
513.04	19978.81
513.21	19929.66
513.38	20037.33
513.56	20313.51
513.73	19655.82
513.90	19901.58
514.08	19566.88
514.25	20416.49
514.43	20276.06
514.60	20236.27
514.77	20187.12
514.95	20166.06
515.12	20264.36
515.29	20311.17
515.47	20318.19
515.64	20716.08
515.81	20650.55
515.99	20809.70
516.16	20645.87
516.33	20720.76
516.51	20877.58
516.68	20620.12
516.85	21034.39
517.03	20751.19
517.20	20891.62
517.37	20940.77
517.54	21434.63
517.72	20978.22
517.89	21015.67
518.06	21411.22
518.24	20971.20
518.41	21348.03
518.58	21245.04
518.75	21280.15
518.93	21502.50
519.10	21228.66
519.27	21460.37
519.45	21392.50
519.62	21694.43
519.79	21186.53
519.96	21797.41
520.14	22036.14
520.31	21673.36
520.48	21568.04
520.65	21844.22
520.83	22015.08
521.00	21678.04
521.17	22153.17
521.34	21879.33
521.52	22033.80
521.69	22057.21
521.86	22071.25
522.03	22394.25
522.20	22199.98
522.38	22230.41
522.55	22380.20
522.72	22452.76
522.89	22277.22
523.07	22691.49
523.24	22356.80
523.41	22427.01
523.58	22661.07
523.75	22965.34
523.92	22696.17
524.10	22527.66
524.27	22705.54
524.44	22808.52
524.61	23023.85
524.78	23061.30
524.96	23175.98
525.13	23271.95
525.30	23178.33
525.47	22752.35
525.64	23000.44
525.81	23014.49
525.98	23396.00
526.16	23239.18
526.33	22855.33
526.50	23543.45
526.67	23281.31
526.84	23449.83
527.01	23370.25
527.18	23536.43
527.36	23585.58
527.53	23616.01
527.70	24044.32
527.87	23569.19
528.04	23735.37
528.21	23854.74
528.38	23653.45
528.55	23995.17
528.72	23992.83
528.89	23983.47
529.07	24049.00
529.24	23974.11
529.41	23931.98
529.58	24107.52
529.75	24215.18
529.92	23941.34
530.09	24060.71
530.26	24233.91
530.43	24018.58
530.60	24142.63
530.77	24318.17
530.94	24229.23
531.11	24407.11
531.28	24311.14
531.46	24339.23
531.63	24725.42
531.80	24238.59
531.97	24577.97
532.14	24959.47
532.31	24577.97
532.48	24870.53
532.65	24734.78
532.82	24786.27
532.99	24615.41
533.16	24772.23
533.33	24952.45
533.50	24833.08
533.67	24982.88
533.84	24865.85
534.01	24795.64
534.18	24994.58
534.35	24957.13
534.52	24978.20
534.69	25158.42
534.86	25032.03
535.03	24931.39
535.20	25104.59
535.37	25340.98
535.54	25429.92
535.71	25275.45
535.88	25343.32
536.05	25352.68
536.22	25661.63
536.38	25886.32
536.55	25483.75
536.72	25425.24
536.89	25399.49
537.06	25174.80
537.23	25387.79
537.40	25888.67
537.57	25881.64
537.74	25479.07
537.91	25893.35
538.08	26185.91
538.25	25825.47
538.42	25771.64
538.59	26141.44
538.75	25649.93
538.92	25706.10
539.09	26064.21
539.26	26183.57
539.43	26118.04
539.60	26206.98
539.77	26307.62
539.94	26513.59
540.11	26307.62
540.28	26108.68
540.44	26525.29
540.61	26235.06
540.78	26352.09
540.95	26106.34
541.12	26450.39
541.29	26242.09
541.46	26338.05
541.62	26501.89
541.79	26438.69
541.96	26136.76
542.13	26267.83
542.30	26382.52
542.47	27030.85
542.63	26771.05
542.80	26586.15
542.97	27239.15
543.14	26991.06
543.31	26841.26
543.48	27103.40
543.64	27281.28
543.81	27122.13
543.98	27049.57
544.15	27323.41
544.32	27363.20
544.48	27147.87
544.65	27257.88
544.82	26934.88
544.99	27054.25
545.16	27302.35
545.32	27330.44
545.49	27578.53
545.66	27524.70
545.83	27683.86
546.00	27704.92
546.16	27316.39
546.33	27356.18
546.50	26712.53
546.67	27580.87
546.83	27236.81
547.00	27323.41
547.17	27716.62
547.34	27613.64
547.50	27449.80
547.67	28119.20
547.84	27592.58
548.00	27903.87
548.17	27892.16
548.34	27667.47
548.51	28126.22
548.67	27990.47
548.84	27995.15
549.01	27948.34
549.18	27693.22
549.34	27733.01
549.51	27709.60
549.68	27875.78
549.84	27929.61
550.01	28116.86
550.18	28053.66
550.34	27960.04
550.51	28402.40
550.68	28563.90
550.84	28233.88
551.01	28348.57
551.18	28180.05
551.34	27861.74
551.51	28137.92
551.68	28257.29
551.84	28444.53
552.01	28245.58
552.18	28606.03
552.34	28278.35
552.51	28322.82
552.68	28231.54
552.84	28861.15
553.01	28446.87
553.18	28552.20
553.34	29067.11
553.51	28814.34
553.67	28847.10
553.84	28694.97
554.01	28786.25
554.17	28662.20
554.34	28432.83
554.51	28606.03
554.67	28606.03
554.84	29020.30
555.00	28762.84
555.17	28868.17
555.33	28886.89
555.50	28795.61
555.67	28563.90
555.83	28673.90
556.00	28903.28
556.16	29240.31
556.33	29177.12
556.50	28865.83
556.66	29099.88
556.83	29380.74
556.99	29422.87
557.16	29483.73
557.32	29057.75
557.49	29558.63
557.65	28999.24
557.82	29039.03
557.98	29097.54
558.15	29380.74
558.32	29228.61
558.48	29008.60
558.65	29383.09
558.81	29268.40
558.98	29350.32
559.14	29160.73
559.31	29319.89
559.47	29160.73
559.64	29509.47
559.80	29483.73
559.97	29261.38
560.13	29282.44
560.30	29385.43
560.46	29752.89
560.63	29415.85
560.79	29830.13
560.96	29748.21
561.12	29486.07
561.29	29404.15
561.45	29579.69
561.61	29853.53
561.78	29474.37
561.94	29890.98
562.11	30008.01
562.27	29701.40
562.44	29813.74
562.60	29575.01
562.77	29600.76
562.93	29631.18
563.10	29935.45
563.26	29378.40
563.42	29965.88
563.59	29542.24
563.75	29460.32
563.92	29928.43
564.08	29682.67
564.24	29993.97
564.41	29713.10
564.57	29762.25
564.74	29802.04
564.90	29748.21
565.07	29701.40
565.23	29895.66
565.39	30258.45
565.56	29883.96
565.72	29914.39
565.88	30012.69
566.05	30129.72
566.21	29731.83
566.38	29696.72
566.54	29858.21
566.70	30204.61
566.87	30122.69
567.03	30230.36
567.19	30403.56
567.36	30000.99
567.52	29830.13
567.68	30176.53
567.85	29621.82
568.01	30401.22
568.17	29923.75
568.34	30518.25
568.50	30323.98
568.66	30249.08
568.83	29940.13
568.99	30225.68
569.15	29802.04
569.32	30003.33
569.48	29979.92
569.64	29958.86
569.81	29963.54
569.97	30487.82
570.13	30438.67
570.30	30017.37
570.46	30277.17
570.62	30050.14
570.78	30094.61
570.95	30384.83
571.11	30338.02
571.27	30146.10
571.43	30221.00
571.60	30426.96
571.76	30518.25
571.92	30263.13
572.09	30118.01
572.25	30792.09
572.41	30651.66
572.57	30326.32
572.74	30543.99
572.90	30625.91
573.06	30696.13
573.22	30387.18
573.38	30621.23
573.55	30061.84
573.71	30354.41
573.87	30492.50
574.03	30335.68
574.20	30967.63
574.36	30185.89
574.52	30401.22
574.68	30211.64
574.84	30419.94
575.01	30316.96
575.17	30525.27
575.33	30749.96
575.49	30593.14
575.65	30321.64
575.82	30534.63
575.98	30061.84
576.14	30766.34
576.30	30384.83
576.46	30415.26
576.62	29998.65
576.79	30235.04
576.95	30925.50
577.11	30623.57
577.27	30408.24
577.43	30480.80
577.59	30607.19
577.75	30796.77
577.92	30295.89
578.08	30494.84
578.24	30005.67
578.40	30389.52
578.56	30733.57
578.72	30492.50
578.88	30764.00
579.04	30841.24
579.21	30419.94
579.37	30869.33
579.53	30927.84
579.69	30377.81
579.85	30848.26
580.01	30881.03
580.17	30335.68
580.33	30494.84
580.49	30661.02
580.65	30609.53
580.82	30506.54
580.98	30932.52
581.14	30623.57
581.30	30803.79
581.46	30794.43
581.62	30775.70
581.78	30705.49
581.94	30621.23
582.10	30448.03
582.26	30536.97
582.42	30108.65
582.58	31007.42
582.74	30579.10
582.90	30745.28
583.06	30518.25
583.22	30892.73
583.38	30574.42
583.54	30654.00
583.70	30661.02
583.86	30866.98
584.02	30562.72
584.18	30677.40
584.34	30855.28
584.50	31185.30
584.66	30733.57
584.82	30827.20
584.98	31068.27
585.14	30452.71
585.30	30618.89
585.46	30548.67
585.62	30359.09
585.78	30714.85
585.94	30338.02
586.10	30820.17
586.26	30794.43
586.42	30752.30
586.58	30803.79
586.74	30932.52
586.90	30700.81
587.06	30340.36
587.22	31096.36
587.38	30661.02
587.54	30522.93
587.70	30834.22
587.86	30883.37
588.02	31140.83
588.18	31070.61
588.34	30986.35
588.49	30836.56
588.65	30897.41
588.81	30607.19
588.97	31065.93
589.13	30969.97
589.29	30450.37
589.45	30740.60
589.61	31260.20
589.77	31173.60
589.93	31299.98
590.08	31206.36
590.24	30864.64
590.40	31023.80
590.56	31264.88
590.72	30588.46
590.88	31297.64
591.04	31028.48
591.20	31269.56
591.35	31527.02
591.51	31470.84
591.67	31442.76
591.83	31648.72
591.99	31168.91
592.15	31208.70
592.31	31105.72
592.46	30782.73
592.62	31157.21
592.78	30986.35
592.94	30998.06
593.10	31290.62
593.26	31384.24
593.41	31042.53
593.57	31278.92
593.73	31311.69
593.89	31711.92
594.05	31522.34
594.20	31136.15
594.36	31145.51
594.52	30803.79
594.68	30974.65
594.84	31253.17
594.99	31707.24
595.15	31370.20
595.31	31367.86
595.47	31599.57
595.62	31960.02
595.78	31445.10
595.94	31339.77
596.10	31328.07
596.25	30953.58
596.41	31592.55
596.57	31002.74
596.73	31211.04
596.88	31292.96
597.04	30888.05
597.20	31658.09
597.36	31344.45
597.51	31957.67
597.67	31438.08
597.83	31157.21
597.99	31578.51
598.14	31197.00
598.30	31510.63
598.46	31307.01
598.61	31473.18
598.77	31548.08
598.93	31412.33
599.09	31562.12
599.24	31744.69
599.40	31805.54
599.56	31536.38
599.71	31667.45
599.87	31461.48
600.03	31419.35
600.18	31405.31
600.34	31281.26
600.50	31576.17
600.65	31084.65
600.81	31498.93
600.97	31777.45
601.12	31119.76
601.28	31641.70
601.44	31606.59
601.59	31241.47
601.75	31204.02
601.91	31723.62
602.06	31290.62
602.22	31587.87
602.37	31344.45
602.53	31409.99
602.69	31098.70
602.84	31489.57
603.00	31463.82
603.16	31299.98
603.31	31601.91
603.47	31449.78
603.62	31630.00
603.78	31150.19
603.94	31302.32
604.09	31370.20
604.25	31365.52
604.40	31112.74
604.56	31576.17
604.71	31304.67
604.87	31307.01
605.03	31475.52
605.18	31674.47
605.34	31079.97
605.49	31377.22
605.65	30848.26
605.80	31388.92
605.96	31384.24
606.12	31068.27
606.27	31557.44
606.43	30675.06
606.58	31290.62
606.74	31587.87
606.89	30920.82
607.05	31344.45
607.20	31358.50
607.36	31250.83
607.51	31201.68
607.67	31243.81
607.82	31030.82
607.98	31117.42
608.13	31227.43
608.29	30843.58
608.44	31318.71
608.60	31096.36
608.75	31456.80
608.91	31491.91
609.06	31126.78
609.22	31047.21
609.37	31274.24
609.53	30991.03
609.68	31199.34
609.84	30918.48
609.99	30944.22
610.15	31002.74
610.30	30953.58
610.46	31197.00
610.61	30913.80
610.76	31386.58
610.92	31204.02
611.07	30998.06
611.23	31428.71
611.38	30817.83
611.54	30876.35
611.69	30707.83
611.84	30712.51
612.00	30637.61
612.15	30473.78
612.31	31255.51
612.46	30761.66
612.62	31002.74
612.77	30998.06
612.92	30946.56
613.08	30775.70
613.23	31042.53
613.39	30731.23
613.54	30775.70
613.69	31070.61
613.85	30703.15
614.00	30897.41
614.15	31094.02
614.31	30527.61
614.46	31236.79
614.62	30899.75
614.77	30728.89
614.92	30625.91
615.08	30874.01
615.23	30431.65
615.38	30764.00
615.54	30284.19
615.69	30476.12
615.84	30410.58
616.00	30541.65
616.15	30316.96
616.30	30806.13
616.46	30668.04
616.61	30749.96
616.76	30864.64
616.92	30625.91
617.07	30361.43
617.22	30279.51
617.37	30359.09
617.53	30417.60
617.68	30464.41
617.83	30391.86
617.99	30314.62
618.14	30015.03
618.29	30668.04
618.45	30342.70
618.60	30312.28
618.75	30431.65
618.90	30190.57
619.06	30478.46
619.21	30373.13
619.36	30717.19
619.51	30281.85
619.67	29951.84
619.82	30525.27
619.97	30015.03
620.12	29956.52
620.28	30246.74
620.43	30277.17
620.58	30469.09
620.73	29993.97
620.89	30485.48
621.04	30300.58
621.19	30213.98
621.34	29900.34
621.49	29811.40
621.65	30342.70
621.80	30209.29
621.95	29881.62
622.10	30286.53
622.25	29668.63
622.41	30106.31
622.56	30211.64
622.71	30010.35
622.86	29832.47
623.01	29979.92
623.16	30129.72
623.32	29404.15
623.47	29839.49
623.62	30277.17
623.77	29727.14
623.92	29926.09
624.07	30153.12
624.23	29790.34
624.38	29912.05
624.53	29734.17
624.68	29888.64
624.83	29909.71
624.98	29986.94
625.13	29748.21
625.29	29677.99
625.44	29385.43
625.59	29401.81
625.74	29797.36
625.89	29394.79
626.04	29879.28
626.19	29586.71
626.34	29507.13
626.49	29315.21
626.65	29277.76
626.80	29811.40
626.95	29642.88
627.10	29364.36
627.25	29766.93
627.40	29244.99
627.55	29219.25
627.70	29247.33
627.85	29212.23
628.00	29029.66
628.15	29259.04
628.30	29422.87
628.45	29151.37
628.60	29048.39
628.76	29406.49
628.91	29340.96
629.06	29734.17
629.21	29385.43
629.36	29745.87
629.51	29090.52
629.66	29324.57
629.81	29177.12
629.96	29546.92
630.11	28926.68
630.26	29500.11
630.41	29106.90
630.56	29034.35
630.71	28692.63
630.86	29184.14
631.01	29062.43
631.16	29170.10
631.31	29188.82
631.46	28624.75
631.61	28884.55
631.76	28879.87
631.91	28727.74
632.06	28580.28
632.21	28816.68
632.36	28608.37
632.51	28847.10
632.66	29113.92
632.81	28336.87
632.96	28982.85
633.10	28865.83
633.25	28608.37
633.40	28861.15
633.55	28524.11
633.70	28432.83
633.85	28542.83
634.00	28610.71
634.15	28397.72
634.30	28596.67
634.45	28465.60
634.60	28704.33
634.75	28301.76
634.90	28257.29
635.05	28603.69
635.19	28465.60
635.34	28673.90
635.49	28580.28
635.64	28528.79
635.79	28130.90
635.94	28505.38
636.09	28268.99
636.24	28376.66
636.39	28297.08
636.53	28268.99
636.68	28278.35
636.83	28353.25
636.98	28273.67
637.13	28470.28
637.28	28259.63
637.43	28173.03
637.57	28491.34
637.72	27913.23
637.87	28371.97
638.02	27835.99
638.17	28091.11
638.32	27880.46
638.46	27817.27
638.61	27700.24
638.76	27864.08
638.91	27861.74
639.06	28219.84
639.20	27768.12
639.35	28435.17
639.50	27892.16
639.65	28081.75
639.80	28261.97
639.94	27981.10
640.09	27730.67
640.24	27824.29
640.39	27632.36
640.54	27463.85
640.68	27690.88
640.83	27328.10
640.98	27435.76
641.13	27463.85
641.27	27875.78
641.42	27981.10
641.57	28004.51
641.72	27974.08
641.86	27480.23
642.01	27641.73
642.16	27204.05
642.31	27714.28
642.45	27543.42
642.60	27330.44
642.75	27634.71
642.90	27159.58
643.04	26974.67
643.19	27538.74
643.34	27241.50
643.48	27307.03
643.63	27400.65
643.78	27489.59
643.93	27618.32
644.07	27108.08
644.22	27468.53
644.37	27681.52
644.51	27072.98
644.66	27098.72
644.81	26972.33
644.95	27019.14
645.10	27213.41
645.25	27204.05
645.39	27655.77
645.54	27438.10
645.69	26962.97
645.83	27414.69
645.98	27562.15
646.13	27491.93
646.27	27381.93
646.42	27407.67
646.57	27171.28
646.71	27250.86
646.86	27040.21
647.00	27304.69
647.15	27150.21
647.30	26859.99
647.44	26881.05
647.59	27077.66
647.74	26808.50
647.88	26969.99
648.03	27229.79
648.17	27234.47
648.32	27019.14
648.47	26951.27
648.61	26911.48
648.76	26972.33
648.90	26696.15
649.05	26977.01
649.20	26838.92
649.34	26817.86
649.49	26740.62
649.63	26771.05
649.78	27075.32
649.92	26518.27
650.07	26995.74
650.21	26656.36
650.36	26593.17
650.51	26567.42
650.65	26766.37
650.80	26546.36
650.94	26705.51
651.09	26635.30
651.23	26403.58
651.38	26590.83
651.52	26501.89
651.67	26328.69
651.81	26686.79
651.96	26415.29
652.10	26639.98
652.25	26955.95
652.39	26604.87
652.54	26515.93
652.68	26792.11
652.83	26960.63
652.97	26572.10
653.12	26422.31
653.26	26604.87
653.41	26693.81
653.55	26457.42
653.70	26204.64
653.84	25876.96
653.99	26431.67
654.13	26244.43
654.27	26136.76
654.42	26239.75
654.56	26438.69
654.71	26455.08
654.85	26073.57
655.00	26291.24
655.14	25977.61
655.29	26347.41
655.43	25989.31
655.57	26569.76
655.72	26127.40
655.86	26052.50
656.01	26209.32
656.15	25792.70
656.30	26080.59
656.44	25860.58
656.58	25900.37
656.73	26092.29
656.87	26195.28
657.01	25979.95
657.16	26017.40
657.30	26199.96
657.45	26043.14
657.59	25893.35
657.73	25703.76
657.88	26085.27
658.02	25921.43
658.16	25715.47
658.31	25642.91
658.45	25893.35
658.60	25511.84
658.74	25219.27
658.88	26120.38
659.03	25525.88
659.17	25474.39
659.31	25553.97
659.46	25563.33
659.60	25469.71
659.74	25663.97
659.89	25415.88
660.03	25329.28
660.17	25486.09
660.32	25345.66
660.46	25355.02
660.60	25067.14
660.74	25493.12
660.89	25020.33
661.03	24975.86
661.17	25106.93
661.32	25062.46
661.46	25144.38
661.60	25432.26
661.74	25202.89
661.89	25216.93
662.03	24776.91
662.17	24680.95
662.31	25195.87
662.46	25083.52
662.60	25050.75
662.74	24802.66
662.88	24720.74
663.03	24599.03
663.17	24636.48
663.31	24463.28
663.45	24758.19
663.60	24704.35
663.74	24350.93
663.88	24521.79
664.02	24379.02
664.17	24957.13
664.31	24549.88
664.45	24456.26
664.59	24741.80
664.73	24467.96
664.88	24226.89
665.02	24357.96
665.16	24210.50
665.30	24503.07
665.44	24245.61
665.59	24264.33
665.73	24177.73
665.87	23931.98
666.01	23971.77
666.15	24053.69
666.29	24044.32
666.44	24156.67
666.58	23737.71
666.72	24119.22
666.86	24184.76
667.00	24058.37
667.14	24252.63
667.28	23789.20
667.43	23800.91
667.57	23927.30
667.71	23658.14
667.85	23599.62
667.99	23754.10
668.13	23866.44
668.27	23489.62
668.41	23531.75
668.56	23342.16
668.70	24034.96
668.84	23669.84
668.98	23580.90
669.12	23674.52
669.26	23424.08
669.40	23339.82
669.54	23129.17
669.68	23449.83
669.82	23241.52
669.96	23250.88
670.10	22909.16
670.25	22951.29
670.39	23269.61
670.53	22897.46
670.67	22920.87
670.81	22946.61
670.95	23232.16
671.09	23077.68
671.23	23154.92
671.37	22869.37
671.51	23152.58
671.65	22897.46
671.79	22841.29
671.93	22499.57
672.07	22848.31
672.21	22537.02
672.35	22630.64
672.49	22293.60
672.63	22429.35
672.77	22335.73
672.91	22307.65
673.05	22129.77
673.19	22195.30
673.33	22312.33
673.47	22345.09
673.61	22541.70
673.75	22572.13
673.89	22274.88
674.03	22431.69
674.17	21900.39
674.31	21935.50
674.45	22104.02
674.59	21736.56
674.73	21713.15
674.87	21839.54
675.01	21640.59
675.15	21659.32
675.29	21876.99
675.43	21682.72
675.56	21738.90
675.70	21804.43
675.84	21350.37
675.98	20868.22
676.12	21570.38
676.26	21326.96
676.40	21469.73
676.54	21242.70
676.68	20996.95
676.82	20755.87
676.96	21095.25
677.10	21451.01
677.23	21102.27
677.37	20666.93
677.51	20996.95
677.65	20865.88
677.79	20343.94
677.93	20826.09
678.07	20594.37
678.21	20430.54
678.34	20854.17
678.48	20243.29
678.62	20147.33
678.76	20435.22
678.90	20112.22
679.04	20357.98
679.18	20292.44
679.31	20009.24
679.45	19620.71
679.59	20105.20
679.73	19793.91
679.87	19723.69
680.00	19674.54
680.14	19578.58
680.28	19459.21
680.42	19562.20
680.56	19534.11
680.70	19681.56
680.83	19597.31
680.97	19288.35
681.11	19419.42
681.25	19278.99
681.39	19194.73
681.52	18838.97
681.66	19274.31
681.80	18890.46
681.94	19239.20
682.07	18691.52
682.21	18951.32
682.35	18759.39
682.49	18728.97
682.62	18604.92
682.76	18415.34
682.90	18794.50
683.04	18375.55
683.17	18836.63
683.31	18586.19
683.45	18462.15
683.59	18434.06
683.72	18405.97
683.86	18218.73
684.00	18478.53
684.13	18033.83
684.27	17912.12
684.41	17912.12
684.55	17762.33
684.68	17692.11
684.82	17579.76
684.96	17748.28
685.09	17942.55
685.23	17511.89
685.37	17649.98
685.50	17568.06
685.64	17710.83
685.78	17694.45
685.91	17804.46
686.05	17511.89
686.19	17439.33
686.32	17371.46
686.46	17085.91
686.60	17139.74
686.73	17228.68
686.87	17106.98
687.01	16755.90
687.14	16596.74
687.28	16781.64
687.42	16865.90
687.55	16779.30
687.69	16788.66
687.82	16659.93
687.96	16266.72
688.10	16500.78
688.23	16648.23
688.37	16617.80
688.50	16723.13
688.64	16374.39
688.78	16456.31
688.91	16374.39
689.05	16212.89
689.18	16166.08
689.32	15971.82
689.46	15988.20
689.59	15791.59
689.73	15744.78
689.86	16128.63
690.00	15653.50
690.13	15501.37
690.27	15894.58
690.41	15658.18
690.54	15639.46
690.68	15838.41
690.81	15206.46
690.95	15775.21
691.08	15257.95
691.22	15374.98
691.35	15522.43
691.49	15386.68
691.62	15225.18
691.76	15204.12
691.89	14963.04
692.03	14946.66
692.16	14747.72
692.30	14628.35
692.43	14590.90
692.57	14635.37
692.70	14878.79
692.84	14560.47
692.97	14450.47
693.11	14602.60
693.24	14469.19
693.38	14359.19
693.51	14469.19
693.65	14391.95
693.78	14389.61
693.92	14244.50
694.05	14139.18
694.19	14242.16
694.32	14120.45
694.45	14228.12
694.59	13994.06
694.72	13951.93
694.86	13933.21
694.99	13586.81
695.13	13509.57
695.26	13626.60
695.39	13729.58
695.53	13970.66
695.66	13645.32
695.80	13191.26
695.93	13469.78
696.07	13493.19
696.20	13394.89
696.33	13483.83
696.47	13277.86
696.60	13366.80
696.73	13207.64
696.87	13186.58
697.00	12809.75
697.14	12779.32
697.27	12919.76
697.40	12758.26
697.54	12512.50
697.67	12737.20
697.80	12638.89
697.94	12526.55
698.07	12486.76
698.21	12524.21
698.34	12720.81
698.47	12369.73
698.61	12393.14
698.74	12482.08
698.87	12449.31
699.01	12255.04
699.14	12182.49
699.27	12194.19
699.40	12123.98
699.54	12257.39
699.67	11918.01
699.80	11882.90
699.94	11932.05
700.07	11716.72
700.20	11618.42
700.34	11653.53
700.47	11506.07
700.60	11494.37
700.73	11737.79
700.87	11683.95
701.00	11709.70
701.13	11351.60
701.26	11602.04
701.40	11276.70
701.53	11726.08
701.66	11290.74
701.79	11344.58
701.93	11108.18
702.06	11140.95
702.19	11059.03
702.32	11075.42
702.46	11049.67
702.59	10785.19
702.72	10565.18
702.85	10740.72
702.99	10740.72
703.12	10656.46
703.25	10579.22
703.38	10602.63
703.51	10771.15
703.65	10707.95
703.78	10581.56
703.91	10771.15
704.04	10562.84
704.17	10326.44
704.31	10359.21
704.44	10391.98
704.57	10352.19
704.70	10202.40
704.83	10164.95
704.96	10104.09
705.10	10352.19
705.23	10068.98
>>>>>End Processed Spectral Data<<<<<
