SpectraSuite Data File
++++++++++++++++++++++++++++++++++++
Date: Fri Oct 18 13:58:19 GMT-05:00 2013
User: bianchi
Dark Spectrum Present: No
Reference Spectrum Present: No
Number of Sampled Component Spectra: 1
Spectrometers: USB2+H05261
Integration Time (usec): 50000 (USB2+H05261)
Spectra Averaged: 1 (USB2+H05261)
Boxcar Smoothing: 0 (USB2+H05261)
Correct for Electrical Dark: No (USB2+H05261)
Strobe/Lamp Enabled: No (USB2+H05261)
Correct for Detector Non-linearity: No (USB2+H05261)
Correct for Stray Light: No (USB2+H05261)
Number of Pixels in Processed Spectrum: 2048
>>>>>Begin Processed Spectral Data<<<<<
365.73	0.00
365.92	0.00
366.12	0.00
366.32	0.00
366.52	0.00
366.72	0.00
366.91	0.00
367.11	0.00
367.31	0.00
367.51	0.00
367.70	0.00
367.90	0.00
368.10	0.00
368.30	0.00
368.49	0.00
368.69	0.00
368.89	0.00
369.09	0.00
369.28	0.00
369.48	0.00
369.68	0.00
369.87	0.00
370.07	0.00
370.27	0.00
370.47	0.00
370.66	100.64
370.86	131.07
371.06	147.45
371.25	147.45
371.45	114.69
371.65	161.50
371.84	168.52
372.04	138.09
372.24	110.01
372.44	184.90
372.63	243.42
372.83	196.60
373.03	184.90
373.22	184.90
373.42	222.35
373.62	252.78
373.81	308.95
374.01	243.42
374.21	210.65
374.40	229.37
374.60	203.63
374.79	255.12
374.99	222.35
375.19	299.59
375.38	217.67
375.58	196.60
375.78	280.86
375.97	292.57
376.17	252.78
376.37	222.35
376.56	301.93
376.76	180.22
376.95	220.01
377.15	241.08
377.35	229.37
377.54	276.18
377.74	210.65
377.93	203.63
378.13	294.91
378.33	245.76
378.52	175.54
378.72	243.42
378.91	388.53
379.11	360.44
379.31	271.50
379.50	257.46
379.70	198.95
379.89	355.76
380.09	330.02
380.28	322.99
380.48	245.76
380.68	330.02
380.87	227.03
381.07	344.06
381.26	304.27
381.46	334.70
381.65	273.84
381.85	271.50
382.04	353.42
382.24	402.57
382.43	369.80
382.63	301.93
382.83	358.10
383.02	341.72
383.22	440.02
383.41	325.33
383.61	346.40
383.80	407.25
384.00	315.97
384.19	449.38
384.39	365.12
384.58	393.21
384.78	423.64
384.97	367.46
385.17	337.04
385.36	393.21
385.56	362.78
385.75	322.99
385.95	360.44
386.14	451.72
386.34	404.91
386.53	440.02
386.72	454.06
386.92	437.68
387.11	397.89
387.31	388.53
387.50	442.36
387.70	411.93
387.89	440.02
388.09	428.32
388.28	395.55
388.48	409.59
388.67	496.19
388.86	437.68
389.06	496.19
389.25	514.92
389.45	416.62
389.64	456.40
389.84	454.06
390.03	531.30
390.22	479.81
390.42	397.89
390.61	482.15
390.81	493.85
391.00	491.51
391.19	484.49
391.39	538.32
391.58	510.24
391.78	557.05
391.97	648.33
392.16	533.64
392.36	524.28
392.55	512.58
392.75	468.11
392.94	540.66
393.13	564.07
393.33	545.34
393.52	643.65
393.71	634.29
393.91	610.88
394.10	638.97
394.29	528.96
394.49	580.45
394.68	610.88
394.88	592.16
395.07	601.52
395.26	603.86
395.46	561.73
395.65	643.65
395.84	610.88
396.04	699.82
396.23	664.71
396.42	627.26
396.62	674.07
396.81	650.67
397.00	592.16
397.19	657.69
397.39	594.50
397.58	723.23
397.77	613.22
397.97	711.52
398.16	706.84
398.35	678.76
398.55	641.31
398.74	730.25
398.93	662.37
399.12	730.25
399.32	753.65
399.51	720.88
399.70	727.91
399.90	702.16
400.09	777.06
400.28	739.61
400.47	676.41
400.67	779.40
400.86	727.91
401.05	763.01
401.24	842.59
401.44	875.36
401.63	800.46
401.82	786.42
402.01	884.72
402.21	758.33
402.40	851.96
402.59	861.32
402.78	861.32
402.97	851.96
403.17	849.61
403.36	924.51
403.55	727.91
403.74	837.91
403.93	868.34
404.13	863.66
404.32	908.13
404.51	868.34
404.70	940.90
404.89	997.07
405.09	1022.81
405.28	947.92
405.47	898.77
405.66	950.26
405.85	1022.81
406.05	924.51
406.24	999.41
406.43	1015.79
406.62	1041.54
406.81	961.96
407.00	992.39
407.20	1071.97
407.39	1015.79
407.58	954.94
407.77	1109.41
407.96	1053.24
408.15	1076.65
408.34	1102.39
408.54	1090.69
408.73	1114.10
408.92	1109.41
409.11	1078.99
409.30	1118.78
409.49	1249.85
409.68	1163.25
409.87	1158.57
410.07	1252.19
410.26	1245.16
410.45	1193.67
410.64	1217.08
410.83	1125.80
411.02	1247.51
411.21	1245.16
411.40	1242.82
411.59	1284.95
411.78	1235.80
411.98	1376.24
412.17	1299.00
412.36	1299.00
412.55	1327.08
412.74	1313.04
412.93	1327.08
413.12	1369.21
413.31	1394.96
413.50	1306.02
413.69	1418.36
413.88	1301.34
414.07	1399.64
414.26	1329.42
414.45	1467.52
414.64	1437.09
414.83	1460.49
415.02	1575.18
415.22	1526.03
415.41	1598.59
415.60	1551.78
415.79	1614.97
415.98	1607.95
416.17	1544.75
416.36	1542.41
416.55	1570.50
416.74	1671.14
416.93	1685.19
417.12	1645.40
417.31	1631.35
417.50	1715.61
417.69	1717.95
417.88	1748.38
418.07	1661.78
418.26	1661.78
418.45	1703.91
418.64	1907.54
418.83	1839.66
419.02	1823.28
419.21	1799.87
419.39	1870.09
419.58	1802.21
419.77	1837.32
419.96	1797.53
420.15	1886.47
420.34	1870.09
420.53	1769.44
420.72	1963.71
420.91	1937.96
421.10	1977.75
421.29	1914.56
421.48	1956.69
421.67	1909.88
421.86	1856.04
422.05	1942.64
422.24	1919.24
422.43	2083.08
422.61	1919.24
422.80	2099.46
422.99	2076.06
423.18	2069.03
423.37	2069.03
423.56	2122.87
423.75	2047.97
423.94	2040.95
424.13	1907.54
424.32	1916.90
424.50	2141.59
424.69	1994.14
424.88	1975.41
425.07	2087.76
425.26	2134.57
425.45	2010.52
425.64	2005.84
425.83	1886.47
426.01	2029.24
426.20	2029.24
426.39	2087.76
426.58	2148.61
426.77	2015.20
426.96	2150.95
427.15	2097.12
427.33	2083.08
427.52	2090.10
427.71	2230.53
427.90	2235.21
428.09	2258.62
428.28	2148.61
428.46	2286.70
428.65	2193.08
428.84	2169.68
429.03	2242.23
429.22	2246.91
429.40	2237.55
429.59	2200.10
429.78	2160.31
429.97	2235.21
430.16	2293.72
430.34	2319.47
430.53	2377.98
430.72	2342.88
430.91	2310.11
431.10	2277.34
431.28	2373.30
431.47	2314.79
431.66	2366.28
431.85	2401.39
432.03	2527.78
432.22	2415.43
432.41	2438.84
432.60	2504.37
432.79	2492.67
432.97	2487.99
433.16	2490.33
433.35	2431.82
433.54	2530.12
433.72	2518.42
433.91	2516.08
434.10	2649.49
434.28	2511.39
434.47	2668.21
434.66	2544.16
434.85	2698.64
435.03	2527.78
435.22	2684.59
435.41	2609.70
435.59	2555.86
435.78	2684.59
435.97	2630.76
436.16	2778.22
436.34	2668.21
436.53	2647.15
436.72	2829.71
436.90	2600.34
437.09	2733.75
437.28	2745.45
437.46	2700.98
437.65	2785.24
437.84	2724.38
438.02	2768.85
438.21	2825.03
438.40	2731.41
438.58	2930.35
438.77	2789.92
438.96	2871.84
439.14	3009.93
439.33	2909.29
439.52	2986.52
439.70	2965.46
439.89	3068.44
440.08	3045.04
440.26	3035.67
440.45	2995.89
440.63	3119.93
440.82	3171.43
441.01	3187.81
441.19	3192.49
441.38	3094.19
441.57	3199.51
441.75	3255.69
441.94	3353.99
442.12	3311.86
442.31	3248.66
442.50	3339.94
442.68	3199.51
442.87	3283.77
443.05	3414.84
443.24	3471.01
443.43	3382.07
443.61	3522.51
443.80	3482.72
443.98	3353.99
444.17	3251.00
444.35	3363.35
444.54	3454.63
444.73	3461.65
444.91	3414.84
445.10	3445.27
445.28	3370.37
445.47	3482.72
445.65	3426.54
445.84	3456.97
446.02	3440.59
446.21	3351.65
446.39	3370.37
446.58	3520.17
446.77	3428.88
446.95	3293.13
447.14	3585.70
447.32	3440.59
447.51	3585.70
447.69	3475.70
447.88	3578.68
448.06	3639.53
448.25	3555.27
448.43	3555.27
448.62	3592.72
448.80	3630.17
448.99	3660.60
449.17	3695.71
449.36	3616.13
449.54	3620.81
449.73	3808.05
449.91	3695.71
450.10	3782.31
450.28	3651.24
450.46	3679.32
450.65	3782.31
450.83	3775.28
451.02	3641.87
451.20	3794.01
451.39	3812.73
451.57	3627.83
451.76	3763.58
451.94	3918.06
452.13	3922.74
452.31	3906.35
452.49	3763.58
452.68	3892.31
452.86	3946.14
453.05	3960.19
453.23	3899.33
453.42	3899.33
453.60	3801.03
453.78	4025.72
453.97	3887.63
454.15	3941.46
454.34	3943.80
454.52	3983.59
454.70	4035.08
454.89	3955.51
455.07	4156.79
455.26	4032.74
455.44	4002.32
455.62	4084.23
455.81	4002.32
455.99	4145.09
456.17	4208.28
456.36	4215.30
456.54	4313.61
456.73	4152.11
456.91	4175.52
457.09	4133.39
457.28	4304.25
457.46	4322.97
457.64	4341.69
457.83	4454.04
458.01	4227.01
458.19	4348.72
458.38	4411.91
458.56	4442.34
458.74	4430.63
458.93	4470.42
459.11	4482.13
459.29	4301.90
459.48	4510.21
459.66	4578.09
459.84	4447.02
460.03	4667.03
460.21	4493.83
460.39	4418.93
460.57	4428.29
460.76	4458.72
460.94	4718.52
461.12	4713.84
461.31	4620.22
461.49	4524.26
461.67	4580.43
461.85	4713.84
462.04	4685.75
462.22	5036.83
462.40	4737.24
462.59	4660.01
462.77	4634.26
462.95	4692.77
463.13	4587.45
463.32	4854.27
463.50	4887.04
463.68	4800.44
463.86	4854.27
464.05	4873.00
464.23	4828.53
464.41	5039.17
464.59	4847.25
464.78	5001.72
464.96	4980.66
465.14	4917.47
465.32	5142.16
465.50	5074.28
465.69	4964.28
465.87	4987.68
466.05	5022.79
466.23	4978.32
466.41	5076.62
466.60	5111.73
466.78	4875.34
466.96	4994.70
467.14	5125.77
467.32	5114.07
467.51	5249.82
467.69	4959.60
467.87	5114.07
468.05	5191.31
468.23	5039.17
468.41	5102.37
468.60	5226.42
468.78	5198.33
468.96	5048.54
469.14	5362.17
469.32	5352.81
469.50	5238.12
469.69	5554.09
469.87	5476.85
470.05	5423.02
470.23	5406.64
470.41	5446.43
470.59	5504.94
470.77	5432.38
470.95	5673.46
471.14	5526.00
471.32	5521.32
471.50	5568.13
471.68	5446.43
471.86	5689.84
472.04	5746.02
472.22	5722.61
472.40	5575.16
472.58	5825.59
472.77	5668.78
472.95	5914.53
473.13	6073.69
473.31	5949.64
473.49	5802.19
473.67	5832.62
473.85	5888.79
474.03	6162.63
474.21	5968.37
474.39	6008.16
474.57	5940.28
474.75	6162.63
474.93	6338.17
475.12	6092.41
475.30	6274.98
475.48	6223.48
475.66	6293.70
475.84	6293.70
476.02	6333.49
476.20	6317.11
476.38	6560.52
476.56	6546.48
476.74	6600.31
476.92	6745.42
477.10	6731.38
477.28	6752.45
477.46	6616.69
477.64	6733.72
477.82	6920.96
478.00	6885.86
478.18	6993.52
478.36	7007.56
478.54	7194.81
478.72	7030.97
478.90	6998.20
479.08	7105.87
479.26	7370.35
479.44	7342.26
479.62	7382.05
479.80	7358.64
479.98	7634.83
480.16	7765.90
480.34	7562.27
480.52	7517.80
480.70	7838.45
480.88	7566.95
481.06	7698.02
481.24	7749.51
481.41	7843.14
481.59	8063.15
481.77	8023.36
481.95	8138.04
482.13	8304.22
482.31	8243.37
482.49	8283.16
482.67	8449.33
482.85	8355.71
483.03	8622.53
483.21	8446.99
483.39	8662.32
483.57	8528.91
483.74	8659.98
483.92	8767.65
484.10	8585.08
484.28	8784.03
484.46	9004.04
484.64	9135.11
484.82	9050.85
485.00	9235.75
485.18	9177.24
485.35	9277.88
485.53	9373.85
485.71	9413.63
485.89	9755.35
486.07	9411.29
486.25	9418.32
486.43	9750.67
486.61	9914.51
486.78	9933.23
486.96	10005.79
487.14	9951.96
487.32	10104.09
487.50	10059.62
487.68	10204.74
487.85	10394.32
488.03	10272.61
488.21	10527.73
488.39	10604.97
488.57	10677.52
488.75	10895.19
488.92	10806.25
489.10	10817.96
489.28	11021.58
489.46	11295.43
489.64	11033.29
489.81	11456.92
489.99	11323.51
490.17	11365.64
490.35	11466.28
490.53	11557.57
490.70	11742.47
490.88	11573.95
491.06	11702.68
491.24	11819.71
491.41	11812.68
491.59	12074.82
491.77	12135.68
491.95	12257.39
492.13	12287.81
492.30	12353.35
492.48	12498.46
492.66	12304.20
492.84	12224.62
493.01	12526.55
493.19	12638.89
493.37	12854.22
493.54	12823.80
493.72	12769.96
493.90	12854.22
494.08	12989.97
494.25	13249.77
494.43	13460.42
494.61	13252.11
494.79	13327.01
494.96	13256.79
495.14	13385.52
495.32	13708.52
495.49	13521.27
495.67	13584.47
495.85	13790.44
496.02	13989.38
496.20	13687.45
496.38	13987.04
496.55	14171.94
496.73	14272.59
496.91	14314.72
497.09	14331.10
497.26	14384.93
497.44	14462.17
497.62	14497.28
497.79	14513.66
497.97	14537.07
498.14	14757.08
498.32	14810.91
498.50	14822.61
498.67	15054.33
498.85	15030.92
499.03	15138.58
499.20	15248.59
499.38	15236.89
499.56	15138.58
499.73	15407.75
499.91	15435.83
500.08	15644.14
500.26	15342.21
500.44	15475.62
500.61	15648.82
500.79	15723.72
500.97	15932.03
501.14	15882.88
501.32	16046.71
501.49	15892.24
501.67	15543.50
501.84	16112.25
502.02	16175.44
502.20	15960.11
502.37	16336.94
502.55	16386.09
502.72	16390.77
502.90	16369.71
503.07	15913.30
503.25	16224.59
503.43	16233.96
503.60	16624.83
503.78	16917.39
503.95	16556.95
504.13	16643.55
504.30	16645.89
504.48	16500.78
504.65	16833.13
504.83	17034.42
505.01	17186.55
505.18	17261.45
505.36	17287.20
505.53	17085.91
505.71	17235.70
505.88	17369.12
506.06	17254.43
506.23	17359.75
506.41	17219.32
506.58	17280.18
506.76	17577.42
506.93	17577.42
507.11	17429.97
507.28	17490.82
507.46	17750.62
507.63	17652.32
507.81	17860.63
507.98	17844.24
508.16	17942.55
508.33	18125.11
508.50	17685.09
508.68	17802.11
508.85	18005.74
509.03	18370.86
509.20	18153.20
509.38	18480.87
509.55	18310.01
509.73	18668.11
509.90	18595.56
510.08	18192.98
510.25	18527.68
510.42	18700.88
510.60	18464.49
510.77	18728.97
510.95	19225.16
511.12	18471.51
511.30	18728.97
511.47	18930.25
511.64	19054.30
511.82	18963.02
511.99	19206.44
512.17	19218.14
512.34	18986.43
512.51	19204.10
512.69	19386.66
512.86	19384.32
513.04	19370.27
513.21	19786.89
513.38	19412.40
513.56	19578.58
513.73	19475.60
513.90	19754.12
514.08	19728.38
514.25	19791.57
514.43	19932.00
514.60	19948.39
514.77	20025.62
514.95	20013.92
515.12	19917.96
515.29	19768.16
515.47	19852.42
515.64	20283.08
515.81	20493.73
515.99	20203.50
516.16	20269.04
516.33	20336.91
516.51	20570.97
516.68	20266.70
516.85	20304.15
517.03	20800.34
517.20	20259.68
517.37	20561.61
517.54	20809.70
517.72	20662.25
517.89	20805.02
518.06	20938.43
518.24	20805.02
518.41	21081.21
518.58	20833.11
518.75	20868.22
518.93	20933.75
519.10	20947.79
519.27	21177.17
519.45	21104.61
519.62	20936.09
519.79	21006.31
519.96	21392.50
520.14	21301.22
520.31	21312.92
520.48	21516.54
520.65	21453.35
520.83	21685.06
521.00	21261.43
521.17	21565.70
521.34	21579.74
521.52	21469.73
521.69	21659.32
521.86	21750.60
522.03	22043.17
522.20	21848.90
522.38	22052.53
522.55	21968.27
522.72	21748.26
522.89	21921.46
523.07	22146.15
523.24	22551.06
523.41	22616.60
523.58	22190.62
523.75	22239.77
523.92	22059.55
524.10	21900.39
524.27	22321.69
524.44	22312.33
524.61	22537.02
524.78	22675.11
524.96	22328.71
525.13	22668.09
525.30	22530.00
525.47	22878.74
525.64	22663.41
525.81	22874.06
525.98	22817.88
526.16	22852.99
526.33	23140.88
526.50	23229.82
526.67	23108.11
526.84	22682.13
527.01	22939.59
527.18	23154.92
527.36	23030.87
527.53	22988.74
527.70	23651.11
527.87	23171.30
528.04	23239.18
528.21	23475.57
528.38	23300.03
528.55	23920.28
528.72	23491.96
528.89	23569.19
529.07	23335.14
529.24	23388.97
529.41	23843.04
529.58	23435.78
529.75	23487.28
529.92	23585.58
530.09	23655.79
530.26	23847.72
530.43	23814.95
530.60	23800.91
530.77	24140.29
530.94	24105.18
531.11	23824.31
531.28	23953.04
531.46	23852.40
531.63	23772.82
531.80	24121.56
531.97	24346.25
532.14	23873.46
532.31	24285.40
532.48	24287.74
532.65	24353.27
532.82	23953.04
532.99	24367.32
533.16	24041.98
533.33	24350.93
533.50	24833.08
533.67	24568.60
533.84	24573.28
534.01	24554.56
534.18	24465.62
534.35	24594.35
534.52	24379.02
534.69	24814.36
534.86	24790.95
535.03	24936.07
535.20	24882.24
535.37	24861.17
535.54	24971.18
535.71	24931.39
535.88	24842.45
536.05	24720.74
536.22	25181.82
536.38	25352.68
536.55	25095.22
536.72	25006.28
536.89	24996.92
537.06	25078.84
537.23	25151.40
537.40	25369.07
537.57	25076.50
537.74	24940.75
537.91	25376.09
538.08	25476.73
538.25	25221.61
538.42	25305.87
538.59	25397.15
538.75	25425.24
538.92	25701.42
539.09	25476.73
539.26	25640.57
539.43	25549.29
539.60	25797.38
539.77	25603.12
539.94	25820.79
540.11	25841.85
540.28	25930.80
540.44	25891.01
540.61	25853.56
540.78	25661.63
540.95	25682.70
541.12	25572.69
541.29	26001.01
541.46	26160.17
541.62	25923.77
541.79	25888.67
541.96	25682.70
542.13	25855.90
542.30	26171.87
542.47	26244.43
542.63	26363.79
542.80	26380.18
542.97	26576.78
543.14	26127.40
543.31	26272.51
543.48	26487.84
543.64	26827.22
543.81	26766.37
543.98	26684.45
544.15	26637.64
544.32	26665.72
544.48	26923.18
544.65	26703.17
544.82	26806.16
544.99	26522.95
545.16	26698.49
545.32	26572.10
545.49	27381.93
545.66	26934.88
545.83	27208.73
546.00	27087.02
546.16	27136.17
546.33	26867.01
546.50	26536.99
546.67	27108.08
546.83	26574.44
547.00	26728.92
547.17	26864.67
547.34	27056.59
547.50	26897.44
547.67	27232.13
547.84	27267.24
548.00	27477.89
548.17	27218.09
548.34	27332.78
548.51	27131.49
548.67	27426.40
548.84	27388.95
549.01	27178.30
549.18	27115.11
549.34	27562.15
549.51	27204.05
549.68	27513.00
549.84	27529.38
550.01	27590.24
550.18	27323.41
550.34	27503.64
550.51	27491.93
550.68	27885.14
550.84	27264.90
551.01	27709.60
551.18	27747.05
551.34	27353.84
551.51	27325.75
551.68	27545.76
551.84	28063.02
552.01	27768.12
552.18	27941.32
552.34	27974.08
552.51	27826.63
552.68	27772.80
552.84	28072.39
553.01	28018.55
553.18	28025.57
553.34	27861.74
553.51	28116.86
553.67	28187.07
553.84	28552.20
554.01	28388.36
554.17	28343.89
554.34	28100.47
554.51	28423.47
554.67	28332.18
554.84	28194.09
555.00	28065.36
555.17	28573.26
555.33	28201.11
555.50	28409.42
555.67	28163.67
555.83	28505.38
556.00	28418.78
556.16	28411.76
556.33	28210.48
556.50	28264.31
556.66	28238.56
556.83	28332.18
556.99	28741.78
557.16	28659.86
557.32	28650.50
557.49	28683.27
557.65	28472.62
557.82	28685.61
557.98	28524.11
558.15	29029.66
558.32	28673.90
558.48	28643.48
558.65	28821.36
558.81	28861.15
558.98	28797.95
559.14	28491.34
559.31	28776.89
559.47	28526.45
559.64	28804.97
559.80	28889.23
559.97	28971.15
560.13	28830.72
560.30	28933.70
560.46	28858.81
560.63	28936.04
560.79	28926.68
560.96	28905.62
561.12	28863.49
561.29	28587.30
561.45	28922.00
561.61	29029.66
561.78	28835.40
561.94	29170.10
562.11	29338.62
562.27	28936.04
562.44	29247.33
562.60	29006.26
562.77	29420.53
562.93	28847.10
563.10	29401.81
563.26	28936.04
563.42	29266.06
563.59	29319.89
563.75	29310.53
563.92	29626.50
564.08	29380.74
564.24	29322.23
564.41	29310.53
564.57	29188.82
564.74	29160.73
564.90	29329.25
565.07	29516.50
565.23	29493.09
565.39	29167.76
565.56	29252.02
565.72	29022.64
565.88	29362.02
566.05	29567.99
566.21	29085.84
566.38	29680.33
566.54	29181.80
566.70	29003.92
566.87	29390.11
567.03	29504.79
567.19	29345.64
567.36	29949.50
567.52	29305.85
567.68	29813.74
567.85	29457.98
568.01	29729.48
568.17	29362.02
568.34	29680.33
568.50	29476.71
568.66	29652.25
568.83	29610.12
568.99	29748.21
569.15	29462.66
569.32	29813.74
569.48	29104.56
569.64	29666.29
569.81	29425.22
569.97	29504.79
570.13	29692.04
570.30	29701.40
570.46	29736.51
570.62	29385.43
570.78	29392.45
570.95	29570.33
571.11	29841.83
571.27	29048.39
571.43	29497.77
571.60	29631.18
571.76	29635.86
571.92	29675.65
572.09	29874.60
572.25	29673.31
572.41	29612.46
572.57	29881.62
572.74	29701.40
572.90	29235.63
573.06	29427.56
573.22	29331.59
573.38	29483.73
573.55	29895.66
573.71	30157.80
573.87	30068.86
574.03	30066.52
574.20	29729.48
574.36	29694.38
574.52	29689.70
574.68	29322.23
574.84	30106.31
575.01	30066.52
575.17	29783.32
575.33	29907.37
575.49	29979.92
575.65	30096.95
575.82	29907.37
575.98	29766.93
576.14	29886.30
576.30	29685.01
576.46	29530.54
576.62	29759.91
576.79	29795.02
576.95	29600.76
577.11	29771.61
577.27	29970.56
577.43	30010.35
577.59	29734.17
577.75	29914.39
577.92	29846.51
578.08	29741.19
578.24	29668.63
578.40	29832.47
578.56	29666.29
578.72	29972.90
578.88	30192.91
579.04	30326.32
579.21	29668.63
579.37	30099.29
579.53	29998.65
579.69	30157.80
579.85	29720.12
580.01	30338.02
580.17	29448.62
580.33	29748.21
580.49	29802.04
580.65	30031.41
580.82	30246.74
580.98	29631.18
581.14	30141.42
581.30	30052.48
581.46	30260.79
581.62	30120.35
581.78	29846.51
581.94	30071.20
582.10	29898.00
582.26	30092.27
582.42	30087.59
582.58	30150.78
582.74	29963.54
582.90	29977.58
583.06	30134.40
583.22	30080.56
583.38	30017.37
583.54	30445.69
583.70	30092.27
583.86	30199.93
584.02	29895.66
584.18	30164.82
584.34	30197.59
584.50	30223.34
584.66	30209.29
584.82	30054.82
584.98	30019.71
585.14	30003.33
585.30	29890.98
585.46	29937.79
585.62	30176.53
585.78	29909.71
585.94	30082.91
586.10	30134.40
586.26	30192.91
586.42	30422.28
586.58	30169.51
586.74	30274.83
586.90	29912.05
587.06	30012.69
587.22	30146.10
587.38	30153.12
587.54	30127.38
587.70	30639.95
587.86	30195.25
588.02	30209.29
588.18	30588.46
588.34	30188.23
588.49	30256.11
588.65	30352.07
588.81	29928.43
588.97	30237.38
589.13	29993.97
589.29	30139.08
589.45	30288.87
589.61	30551.01
589.77	30532.29
589.93	30389.52
590.08	30471.43
590.24	30637.61
590.40	30754.64
590.56	30536.97
590.72	30419.94
590.88	30270.15
591.04	30129.72
591.20	30705.49
591.35	30820.17
591.51	30815.49
591.67	30663.36
591.83	31058.91
591.99	30462.07
592.15	30520.59
592.31	30448.03
592.46	30415.26
592.62	30663.36
592.78	30244.40
592.94	30490.16
593.10	30167.16
593.26	30581.44
593.41	30785.07
593.57	30696.13
593.73	30602.50
593.89	30728.89
594.05	30471.43
594.20	30288.87
594.36	30644.63
594.52	30225.68
594.68	30288.87
594.84	30569.74
594.99	30682.08
595.15	30714.85
595.31	30731.23
595.47	30883.37
595.62	30658.68
595.78	30551.01
595.94	30572.08
596.10	30436.33
596.25	30785.07
596.41	30394.20
596.57	30462.07
596.73	30876.35
596.88	30567.40
597.04	30972.31
597.20	31140.83
597.36	30658.68
597.51	30700.81
597.67	30712.51
597.83	30792.09
597.99	30871.67
598.14	30761.66
598.30	30478.46
598.46	30490.16
598.61	30906.77
598.77	30967.63
598.93	30642.29
599.09	30934.86
599.24	31140.83
599.40	30749.96
599.56	30810.81
599.71	30827.20
599.87	30806.13
600.03	30850.60
600.18	30368.45
600.34	30642.29
600.50	30848.26
600.65	30316.96
600.81	30686.76
600.97	30888.05
601.12	31061.25
601.28	30749.96
601.44	30766.34
601.59	30448.03
601.75	30771.02
601.91	31077.63
602.06	30642.29
602.22	30422.28
602.37	30604.84
602.53	30745.28
602.69	30658.68
602.84	30370.79
603.00	30583.78
603.16	30593.14
603.31	30670.38
603.47	30543.99
603.62	30827.20
603.78	30443.35
603.94	30923.16
604.09	30810.81
604.25	30642.29
604.40	30450.37
604.56	30562.72
604.71	30616.55
604.87	30649.32
605.03	30883.37
605.18	30782.73
605.34	30728.89
605.49	30668.04
605.65	30352.07
605.80	30401.22
605.96	30494.84
606.12	30764.00
606.27	30415.26
606.43	30326.32
606.58	30899.75
606.74	30866.98
606.89	30319.30
607.05	30965.29
607.20	30897.41
607.36	30944.22
607.51	30792.09
607.67	30185.89
607.82	30181.21
607.98	30555.69
608.13	30436.33
608.29	30546.33
608.44	30588.46
608.60	30515.90
608.75	30651.66
608.91	30532.29
609.06	30536.97
609.22	30998.06
609.37	30146.10
609.53	30391.86
609.68	30232.70
609.84	30412.92
609.99	30574.42
610.15	30356.75
610.30	30096.95
610.46	30258.45
610.61	30658.68
610.76	30632.93
610.92	30569.74
611.07	30546.33
611.23	30185.89
611.38	30522.93
611.54	29844.17
611.69	30288.87
611.84	29722.46
612.00	30249.08
612.15	30078.22
612.31	30085.25
612.46	29996.31
612.62	30478.46
612.77	30450.37
612.92	30232.70
613.08	30274.83
613.23	29937.79
613.39	30270.15
613.54	29982.26
613.69	29986.94
613.85	29830.13
614.00	30080.56
614.15	30017.37
614.31	29788.00
614.46	30520.59
614.62	30239.72
614.77	30129.72
614.92	30277.17
615.08	30216.32
615.23	29710.76
615.38	30134.40
615.54	29685.01
615.69	29984.60
615.84	29898.00
616.00	30066.52
616.15	29923.75
616.30	30052.48
616.46	29811.40
616.61	29685.01
616.76	30099.29
616.92	29982.26
617.07	30019.71
617.22	29703.74
617.37	29862.90
617.53	29825.45
617.68	29734.17
617.83	29727.14
617.99	29682.67
618.14	29553.94
618.29	29820.77
618.45	29670.97
618.60	30019.71
618.75	29923.75
618.90	29731.83
619.06	29504.79
619.21	29425.22
619.36	29876.94
619.51	29457.98
619.67	29425.22
619.82	29696.72
619.97	29509.47
620.12	29078.82
620.28	29490.75
620.43	29455.64
620.58	29542.24
620.73	29713.10
620.89	29790.34
621.04	30010.35
621.19	29511.81
621.34	29462.66
621.49	29558.63
621.65	29099.88
621.80	29366.70
621.95	29455.64
622.10	28978.17
622.25	29165.42
622.41	29340.96
622.56	29387.77
622.71	29619.48
622.86	29427.56
623.01	29392.45
623.16	29046.05
623.32	28975.83
623.47	29013.28
623.62	28823.70
623.77	29055.41
623.92	29479.05
624.07	28929.02
624.23	29144.35
624.38	29153.71
624.53	29399.47
624.68	29153.71
624.83	29102.22
624.98	29240.31
625.13	28973.49
625.29	29001.58
625.44	29156.05
625.59	29186.48
625.74	28802.63
625.89	28858.81
626.04	28865.83
626.19	29015.62
626.34	28627.09
626.49	28940.72
626.65	28980.51
626.80	28858.81
626.95	28641.14
627.10	28687.95
627.25	28676.24
627.40	28329.84
627.55	28582.62
627.70	28500.70
627.85	28474.96
628.00	28348.57
628.15	28573.26
628.30	28542.83
628.45	28048.98
628.60	28620.07
628.76	28811.99
628.91	28554.54
629.06	28856.46
629.21	28863.49
629.36	28559.22
629.51	28491.34
629.66	28297.08
629.81	28397.72
629.96	28467.94
630.11	28381.34
630.26	28198.77
630.41	28198.77
630.56	28009.19
630.71	27941.32
630.86	28561.56
631.01	28201.11
631.16	28318.14
631.31	28432.83
631.46	28140.26
631.61	28357.93
631.76	28603.69
631.91	28100.47
632.06	28058.34
632.21	28173.03
632.36	28292.40
632.51	28168.35
632.66	27763.43
632.81	27938.97
632.96	28311.12
633.10	28294.74
633.25	28198.77
633.40	28210.48
633.55	28102.81
633.70	28079.41
633.85	27800.88
634.00	27873.44
634.15	27871.10
634.30	27960.04
634.45	28004.51
634.60	27892.16
634.75	27590.24
634.90	27735.35
635.05	28086.43
635.19	27784.50
635.34	27889.82
635.49	27985.79
635.64	27910.89
635.79	27962.38
635.94	27662.79
636.09	27840.67
636.24	27604.28
636.39	27534.06
636.53	27374.91
636.68	27339.80
636.83	27407.67
636.98	27948.34
637.13	27470.87
637.28	27501.29
637.43	28156.64
637.57	27393.63
637.72	27480.23
637.87	27555.13
638.02	27716.62
638.17	27456.82
638.32	27522.36
638.46	27330.44
638.61	27002.76
638.76	27192.34
638.91	27276.60
639.06	27316.39
639.20	27377.25
639.35	27786.84
639.50	27185.32
639.65	27358.52
639.80	27772.80
639.94	27136.17
640.09	27110.43
640.24	27131.49
640.39	27075.32
640.54	26782.75
640.68	26981.70
640.83	26946.59
640.98	26948.93
641.13	27147.87
641.27	27180.64
641.42	27541.08
641.57	27136.17
641.72	27068.30
641.86	26969.99
642.01	26951.27
642.16	27264.90
642.31	26946.59
642.45	26855.31
642.60	26925.52
642.75	26714.87
642.90	26761.69
643.04	27236.81
643.19	26916.16
643.34	26859.99
643.48	26761.69
643.63	26913.82
643.78	26962.97
643.93	27040.21
644.07	26742.96
644.22	27056.59
644.37	26813.18
644.51	26611.89
644.66	26757.00
644.81	26551.04
644.95	26595.51
645.10	26735.94
645.25	26703.17
645.39	26733.60
645.54	26597.85
645.69	26752.32
645.83	26869.35
645.98	26857.65
646.13	26345.07
646.27	26450.39
646.42	26541.68
646.57	26382.52
646.71	26558.06
646.86	26389.54
647.00	26544.02
647.15	26977.01
647.30	26354.43
647.44	26216.34
647.59	26300.60
647.74	26068.89
647.88	26316.98
648.03	26298.26
648.17	26354.43
648.32	26668.06
648.47	26356.77
648.61	26522.95
648.76	26199.96
648.90	26307.62
649.05	26469.12
649.20	25809.09
649.34	26169.53
649.49	25993.99
649.63	25972.92
649.78	25902.71
649.92	25914.41
650.07	26197.62
650.21	26059.52
650.36	25954.20
650.51	25727.17
650.65	26352.09
650.80	25729.51
650.94	26113.36
651.09	26256.13
651.23	25881.64
651.38	25979.95
651.52	25766.96
651.67	26408.26
651.81	25933.14
651.96	26302.94
652.10	25699.08
652.25	26347.41
652.39	26218.68
652.54	25771.64
652.68	26064.21
652.83	26073.57
652.97	26054.84
653.12	26038.46
653.26	25493.12
653.41	25607.80
653.55	25706.10
653.70	25427.58
653.84	26012.71
653.99	25961.22
654.13	25638.23
654.27	25687.38
654.42	25228.63
654.56	25469.71
654.71	25654.61
654.85	25696.74
655.00	25930.80
655.14	25795.04
655.29	25553.97
655.43	25490.77
655.57	25474.39
655.72	25532.90
655.86	25605.46
656.01	25596.10
656.15	25521.20
656.30	25596.10
656.44	25404.17
656.58	25113.95
656.73	25277.79
656.87	25516.52
657.01	25106.93
657.16	25331.62
657.30	25771.64
657.45	25207.57
657.59	25193.53
657.73	24858.83
657.88	25081.18
658.02	24992.24
658.16	25097.56
658.31	25071.82
658.45	25345.66
658.60	25010.96
658.74	25025.01
658.88	25022.67
659.03	25137.35
659.17	24776.91
659.31	25146.72
659.46	25170.12
659.60	25118.63
659.74	24823.72
659.89	25078.84
660.03	24465.62
660.17	24919.68
660.32	24620.10
660.46	24746.48
660.60	24624.78
660.74	24746.48
660.89	24606.05
661.03	24510.09
661.17	24823.72
661.32	24484.34
661.46	24744.14
661.60	24514.77
661.74	24510.09
661.89	24793.29
662.03	24641.16
662.17	24519.45
662.31	24072.41
662.46	24409.45
662.60	24276.04
662.74	24292.42
662.88	24325.19
663.03	24154.33
663.17	23770.48
663.31	23880.49
663.45	24095.82
663.60	24173.05
663.74	24177.73
663.88	23754.10
664.02	23840.70
664.17	24250.29
664.31	24123.90
664.45	23625.37
664.59	23625.37
664.73	23798.57
664.88	24243.27
665.02	23239.18
665.16	23325.78
665.30	23506.00
665.44	23796.23
665.59	23360.89
665.73	23449.83
665.87	23332.80
666.01	23557.49
666.15	23775.16
666.29	23344.50
666.44	23541.11
666.58	23051.94
666.72	23204.07
666.86	23618.35
667.00	23770.48
667.14	23222.80
667.28	23232.16
667.43	23178.33
667.57	22958.31
667.71	23084.70
667.85	22721.92
667.99	22815.54
668.13	23330.46
668.27	23023.85
668.41	23197.05
668.56	23000.44
668.70	23269.61
668.84	22850.65
668.98	22668.09
669.12	22822.56
669.26	23143.22
669.40	22831.93
669.54	22766.39
669.68	22324.03
669.82	22183.60
669.96	22813.20
670.10	22134.45
670.25	22618.94
670.39	22434.03
670.53	22537.02
670.67	22293.60
670.81	22211.68
670.95	22366.16
671.09	22506.59
671.23	22473.82
671.37	22366.16
671.51	22537.02
671.65	22471.48
671.79	22075.93
671.93	22174.24
672.07	22157.85
672.21	22274.88
672.35	22122.74
672.49	21736.56
672.63	21696.77
672.77	21460.37
672.91	21659.32
673.05	21614.85
673.19	21776.34
673.33	21921.46
673.47	21546.97
673.61	21638.25
673.75	21544.63
673.89	21671.02
674.03	21757.62
674.17	21350.37
674.31	21411.22
674.45	21443.99
674.59	21507.18
674.73	21118.65
674.87	20802.68
675.01	21219.30
675.15	21212.28
675.29	21219.30
675.43	21261.43
675.56	20695.02
675.70	21263.77
675.84	21226.32
675.98	20477.35
676.12	20985.24
676.26	21233.34
676.40	20758.21
676.54	20814.38
676.68	20587.35
676.82	20280.74
676.96	20475.01
677.10	20404.79
677.23	20460.96
677.37	20339.26
677.51	20425.86
677.65	20421.17
677.79	20322.87
677.93	20079.46
678.07	19709.65
678.21	19894.55
678.34	20044.35
678.48	19868.81
678.62	20091.16
678.76	20079.46
678.90	19630.07
679.04	19658.16
679.18	19777.53
679.31	19384.32
679.45	19456.87
679.59	19557.52
679.73	19454.53
679.87	19037.92
680.00	19040.26
680.14	19023.87
680.28	18822.59
680.42	19414.74
680.56	19391.34
680.70	19302.40
680.83	19253.25
680.97	18838.97
681.11	19073.03
681.25	18721.95
681.39	18719.60
681.52	18979.40
681.66	18918.55
681.80	18349.80
681.94	18581.51
682.07	18759.39
682.21	18408.31
682.35	18478.53
682.49	18050.21
682.62	18375.55
682.76	18174.26
682.90	18146.17
683.04	18052.55
683.17	18321.71
683.31	18181.28
683.45	18204.69
683.59	17874.67
683.72	17912.12
683.86	17940.21
684.00	17788.07
684.13	18054.89
684.27	17369.12
684.41	17359.75
684.55	17364.43
684.68	17317.62
684.82	17441.67
684.96	17163.15
685.09	17195.92
685.23	17186.55
685.37	17221.66
685.50	17198.26
685.64	17268.47
685.78	17355.07
685.91	17191.23
686.05	16898.67
686.19	17043.78
686.32	17209.96
686.46	16849.52
686.60	16966.54
686.73	16863.56
686.87	16458.65
687.01	16491.41
687.14	16439.92
687.28	15974.16
687.42	16299.49
687.55	16180.12
687.69	16339.28
687.82	16643.55
687.96	16065.44
688.10	16257.36
688.23	16189.49
688.37	16109.91
688.50	15960.11
688.64	16093.52
688.78	15910.96
688.91	15686.27
689.05	15782.23
689.18	15850.11
689.32	15452.22
689.46	15454.56
689.59	15501.37
689.73	15569.24
689.86	15161.99
690.00	15363.28
690.13	15470.94
690.27	15229.87
690.41	15349.23
690.54	15117.52
690.68	15328.17
690.81	15206.46
690.95	15276.68
691.08	15157.31
691.22	14995.81
691.35	15014.54
691.49	15138.58
691.62	14677.50
691.76	14663.46
691.89	14218.75
692.03	14565.15
692.16	14457.49
692.30	14462.17
692.43	14279.61
692.57	14129.81
692.70	14188.33
692.84	14214.07
692.97	14211.73
693.11	13963.64
693.24	14221.10
693.38	14214.07
693.51	14295.99
693.65	14115.77
693.78	13947.25
693.92	13830.23
694.05	13689.79
694.19	13502.55
694.32	13804.48
694.45	13923.85
694.59	13685.11
694.72	13542.34
694.86	13186.58
694.99	13507.23
695.13	13193.60
695.26	13408.93
695.39	13532.98
695.53	13308.29
695.66	13425.31
695.80	13214.66
695.93	13291.90
696.07	13172.54
696.20	13327.01
696.33	13118.70
696.47	13032.10
696.60	12884.65
696.73	12737.20
696.87	12779.32
697.00	12681.02
697.14	12505.48
697.27	12294.83
697.40	12327.60
697.54	12463.35
697.67	12147.38
697.80	12231.64
697.94	12098.23
698.07	12168.45
698.21	12329.94
698.34	12187.17
698.47	12332.28
698.61	12049.08
698.74	12173.13
698.87	12287.81
699.01	11791.62
699.14	12072.48
699.27	11824.39
699.40	11878.22
699.54	11719.06
699.67	11726.08
699.80	11667.57
699.94	11583.31
700.07	11550.54
700.20	11129.25
700.34	11428.84
700.47	11529.48
700.60	11728.42
700.73	11403.09
700.87	11279.04
701.00	11234.57
701.13	11414.79
701.26	11365.64
701.40	11365.64
701.53	11190.10
701.66	11082.44
701.79	11052.01
701.93	11026.26
702.06	10846.04
702.19	10729.02
702.32	10750.08
702.46	10705.61
702.59	10658.80
702.72	10485.60
702.85	10731.36
702.99	10401.34
703.12	10272.61
703.25	10424.75
703.38	10492.62
703.51	10319.42
703.65	10452.83
703.78	10377.94
703.91	10410.70
704.04	10310.06
704.17	10326.44
704.31	10141.54
704.44	10214.10
704.57	9912.17
704.70	10057.28
704.83	9863.02
704.96	9774.08
705.10	9856.00
705.23	9865.36
>>>>>End Processed Spectral Data<<<<<
