SpectraSuite Data File
++++++++++++++++++++++++++++++++++++
Date: Fri Oct 18 13:58:04 GMT-05:00 2013
User: bianchi
Dark Spectrum Present: No
Reference Spectrum Present: No
Number of Sampled Component Spectra: 1
Spectrometers: USB2+H05261
Integration Time (usec): 50000 (USB2+H05261)
Spectra Averaged: 1 (USB2+H05261)
Boxcar Smoothing: 0 (USB2+H05261)
Correct for Electrical Dark: No (USB2+H05261)
Strobe/Lamp Enabled: No (USB2+H05261)
Correct for Detector Non-linearity: No (USB2+H05261)
Correct for Stray Light: No (USB2+H05261)
Number of Pixels in Processed Spectrum: 2048
>>>>>Begin Processed Spectral Data<<<<<
365.73	0.00
365.92	0.00
366.12	0.00
366.32	0.00
366.52	0.00
366.72	0.00
366.91	0.00
367.11	0.00
367.31	0.00
367.51	0.00
367.70	0.00
367.90	0.00
368.10	0.00
368.30	0.00
368.49	0.00
368.69	0.00
368.89	0.00
369.09	0.00
369.28	0.00
369.48	0.00
369.68	0.00
369.87	0.00
370.07	0.00
370.27	0.00
370.47	0.00
370.66	72.56
370.86	175.54
371.06	107.66
371.25	184.90
371.45	135.75
371.65	117.03
371.84	161.50
372.04	135.75
372.24	198.95
372.44	180.22
372.63	67.88
372.83	217.67
373.03	173.20
373.22	163.84
373.42	245.76
373.62	184.90
373.81	255.12
374.01	203.63
374.21	205.97
374.40	252.78
374.60	301.93
374.79	245.76
374.99	238.73
375.19	238.73
375.38	243.42
375.58	313.63
375.78	353.42
375.97	264.48
376.17	241.08
376.37	283.20
376.56	241.08
376.76	262.14
376.95	276.18
377.15	257.46
377.35	250.44
377.54	250.44
377.74	341.72
377.93	304.27
378.13	294.91
378.33	264.48
378.52	308.95
378.72	344.06
378.91	236.39
379.11	271.50
379.31	353.42
379.50	308.95
379.70	311.29
379.89	327.68
380.09	332.36
380.28	301.93
380.48	341.72
380.68	278.52
380.87	334.70
381.07	320.65
381.26	313.63
381.46	339.38
381.65	390.87
381.85	332.36
382.04	355.76
382.24	292.57
382.43	355.76
382.63	337.04
382.83	360.44
383.02	379.17
383.22	372.15
383.41	262.14
383.61	362.78
383.80	386.19
384.00	362.78
384.19	397.89
384.39	433.00
384.58	358.10
384.78	341.72
384.97	433.00
385.17	411.93
385.36	348.74
385.56	372.15
385.75	407.25
385.95	407.25
386.14	308.95
386.34	437.68
386.53	395.55
386.72	397.89
386.92	423.64
387.11	416.62
387.31	444.70
387.50	341.72
387.70	482.15
387.89	416.62
388.09	425.98
388.28	472.79
388.48	507.90
388.67	505.56
388.86	407.25
389.06	402.57
389.25	479.81
389.45	475.13
389.64	416.62
389.84	505.56
390.03	451.72
390.22	440.02
390.42	479.81
390.61	484.49
390.81	500.87
391.00	507.90
391.19	585.13
391.39	519.60
391.58	550.03
391.78	498.53
391.97	538.32
392.16	543.00
392.36	568.75
392.55	535.98
392.75	524.28
392.94	531.30
393.13	629.60
393.33	582.79
393.52	594.50
393.71	543.00
393.91	589.82
394.10	573.43
394.29	519.60
394.49	599.18
394.68	636.63
394.88	561.73
395.07	608.54
395.26	557.05
395.46	568.75
395.65	660.03
395.84	709.18
396.04	702.16
396.23	596.84
396.42	657.69
396.62	739.61
396.81	634.29
397.00	685.78
397.19	685.78
397.39	746.63
397.58	664.71
397.77	786.42
397.97	678.76
398.16	725.57
398.35	723.23
398.55	617.90
398.74	660.03
398.93	744.29
399.12	713.86
399.32	786.42
399.51	690.46
399.70	758.33
399.90	819.19
400.09	732.59
400.28	758.33
400.47	767.70
400.67	755.99
400.86	770.04
401.05	814.51
401.24	725.57
401.44	812.17
401.63	786.42
401.82	880.04
402.01	751.31
402.21	840.25
402.40	779.40
402.59	866.00
402.78	858.98
402.97	833.23
403.17	800.46
403.36	929.19
403.55	858.98
403.74	891.74
403.93	976.00
404.13	912.81
404.32	873.02
404.51	917.49
404.70	959.62
404.89	922.17
405.09	929.19
405.28	957.28
405.47	1008.77
405.66	877.70
405.85	898.77
406.05	964.30
406.24	943.24
406.43	976.00
406.62	1020.47
406.81	1006.43
407.00	1062.60
407.20	933.87
407.39	1022.81
407.58	1123.46
407.77	1050.90
407.96	999.41
408.15	1118.78
408.34	1109.41
408.54	1128.14
408.73	1207.72
408.92	1165.59
409.11	1043.88
409.30	1149.20
409.49	1142.18
409.68	1153.88
409.87	1090.69
410.07	1081.33
410.26	1165.59
410.45	1172.61
410.64	1139.84
410.83	1214.74
411.02	1125.80
411.21	1254.53
411.40	1299.00
411.59	1294.32
411.78	1294.32
411.98	1289.64
412.17	1310.70
412.36	1371.55
412.55	1303.68
412.74	1373.89
412.93	1427.73
413.12	1350.49
413.31	1495.60
413.50	1355.17
413.69	1399.64
413.88	1514.33
414.07	1453.47
414.26	1516.67
414.45	1537.73
414.64	1540.07
414.83	1502.62
415.02	1577.52
415.22	1645.40
415.41	1509.65
415.60	1554.12
415.79	1612.63
415.98	1708.59
416.17	1596.25
416.36	1661.78
416.55	1661.78
416.74	1675.82
416.93	1593.90
417.12	1661.78
417.31	1659.44
417.50	1689.87
417.69	1790.51
417.88	1685.19
418.07	1647.74
418.26	1778.81
418.45	1788.17
418.64	1823.28
418.83	1818.60
419.02	1741.36
419.21	1762.42
419.39	1863.07
419.58	1785.83
419.77	1846.68
419.96	1865.41
420.15	1834.98
420.34	1991.80
420.53	1839.66
420.72	1837.32
420.91	1865.41
421.10	1858.39
421.29	1919.24
421.48	1935.62
421.67	2008.18
421.86	2003.50
422.05	2071.37
422.24	2036.27
422.43	2052.65
422.61	1996.48
422.80	2127.55
422.99	2033.93
423.18	2047.97
423.37	1998.82
423.56	2101.80
423.75	2050.31
423.94	2073.71
424.13	1902.86
424.32	1928.60
424.50	1914.56
424.69	2031.58
424.88	2136.91
425.07	2036.27
425.26	2064.35
425.45	2031.58
425.64	1973.07
425.83	1968.39
426.01	2043.29
426.20	2005.84
426.39	2193.08
426.58	2162.66
426.77	2080.74
426.96	2031.58
427.15	2047.97
427.33	2129.89
427.52	2101.80
427.71	2190.74
427.90	2043.29
428.09	2335.85
428.28	2256.28
428.46	2282.02
428.65	2251.60
428.84	2267.98
429.03	2354.58
429.22	2176.70
429.40	2286.70
429.59	2277.34
429.78	2256.28
429.97	2209.47
430.16	2120.53
430.34	2370.96
430.53	2363.94
430.72	2284.36
430.91	2389.69
431.10	2293.72
431.28	2361.60
431.47	2436.50
431.66	2422.45
431.85	2361.60
432.03	2436.50
432.22	2525.44
432.41	2593.31
432.60	2389.69
432.79	2345.22
432.97	2487.99
433.16	2537.14
433.35	2469.27
433.54	2492.67
433.72	2525.44
433.91	2532.46
434.10	2530.12
434.28	2492.67
434.47	2523.10
434.66	2546.50
434.85	2560.55
435.03	2609.70
435.22	2686.94
435.41	2696.30
435.59	2661.19
435.78	2708.00
435.97	2619.06
436.16	2626.08
436.34	2682.25
436.53	2684.59
436.72	2724.38
436.90	2775.88
437.09	2700.98
437.28	2663.53
437.46	2747.79
437.65	2799.28
437.84	2846.09
438.02	2752.47
438.21	2853.11
438.40	2869.50
438.58	2906.95
438.77	3005.25
438.96	2796.94
439.14	2885.88
439.33	3068.44
439.52	2930.35
439.70	2946.73
439.89	3087.17
440.08	3052.06
440.26	3014.61
440.45	3143.34
440.63	3117.59
440.82	3082.49
441.01	2986.52
441.19	3258.03
441.38	3166.74
441.57	3297.81
441.75	3414.84
441.94	3414.84
442.12	3211.22
442.31	3283.77
442.50	3351.65
442.68	3300.16
442.87	3466.33
443.05	3410.16
443.24	3440.59
443.43	3421.86
443.61	3463.99
443.80	3646.55
443.98	3440.59
444.17	3255.69
444.35	3478.04
444.54	3466.33
444.73	3529.53
444.91	3524.85
445.10	3400.80
445.28	3389.10
445.47	3510.80
445.65	3527.19
445.84	3538.89
446.02	3569.32
446.21	3527.19
446.39	3517.83
446.58	3684.00
446.77	3478.04
446.95	3475.70
447.14	3459.31
447.32	3534.21
447.51	3492.08
447.69	3520.17
447.88	3616.13
448.06	3478.04
448.25	3449.95
448.43	3609.11
448.62	3595.06
448.80	3576.34
448.99	3576.34
449.17	3716.77
449.36	3510.80
449.54	3665.28
449.73	3777.62
449.91	3749.54
450.10	3751.88
450.28	3754.22
450.46	3728.47
450.65	3765.92
450.83	3751.88
451.02	3684.00
451.20	3779.97
451.39	3831.46
451.57	3796.35
451.76	3812.73
451.94	3871.25
452.13	3873.59
452.31	3997.64
452.49	3770.60
452.68	3988.27
452.86	3953.16
453.05	3875.93
453.23	3953.16
453.42	3836.14
453.60	3824.44
453.78	3960.19
453.97	3808.05
454.15	3955.51
454.34	3885.29
454.52	3978.91
454.70	4072.53
454.89	4081.89
455.07	4063.17
455.26	4065.51
455.44	4337.01
455.62	4145.09
455.81	4074.87
455.99	4248.07
456.17	4109.98
456.36	4016.36
456.54	4154.45
456.73	4201.26
456.91	4308.93
457.09	4358.08
457.28	4540.64
457.46	4299.56
457.64	4449.36
457.83	4299.56
458.01	4383.82
458.19	4393.19
458.38	4353.40
458.56	4470.42
458.74	4500.85
458.93	4388.50
459.11	4435.32
459.29	4454.04
459.48	4540.64
459.66	4423.61
459.84	4524.26
460.03	4674.05
460.21	4557.02
460.39	4472.76
460.57	4587.45
460.76	4671.71
460.94	4578.09
461.12	4746.61
461.31	4685.75
461.49	4564.04
461.67	4734.90
461.85	4709.16
462.04	4669.37
462.22	5109.39
462.40	4854.27
462.59	4835.55
462.77	4887.04
462.95	4894.06
463.13	4919.81
463.32	4793.42
463.50	4961.94
463.68	4767.67
463.86	4772.35
464.05	4880.02
464.23	4882.36
464.41	4917.47
464.59	4865.97
464.78	4992.36
464.96	5013.43
465.14	4940.87
465.32	4908.10
465.50	5050.88
465.69	5015.77
465.87	5060.24
466.05	5074.28
466.23	5004.07
466.41	5025.13
466.60	5214.71
466.78	5032.15
466.96	5011.09
467.14	5135.14
467.32	5212.37
467.51	5315.36
467.69	5308.34
467.87	5261.52
468.05	5378.55
468.23	5060.24
468.41	5144.50
468.60	5254.50
468.78	5434.72
468.96	5282.59
469.14	5413.66
469.32	5427.70
469.50	5188.97
469.69	5568.13
469.87	5458.13
470.05	5301.31
470.23	5334.08
470.41	5533.03
470.59	5591.54
470.77	5469.83
470.95	5434.72
471.14	5607.92
471.32	5413.66
471.50	5769.42
471.68	5643.03
471.86	5703.89
472.04	5694.52
472.22	6008.16
472.40	5664.10
472.58	5549.41
472.77	5767.08
472.95	6092.41
473.13	6003.47
473.31	5853.68
473.49	5816.23
473.67	5959.00
473.85	5961.34
474.03	6134.54
474.21	6108.80
474.39	6047.94
474.57	6216.46
474.75	6043.26
474.93	6122.84
475.12	6141.57
475.30	6361.58
475.48	6218.80
475.66	6523.07
475.84	6253.91
476.02	6443.49
476.20	6480.94
476.38	6579.25
476.56	6555.84
476.74	6558.18
476.92	6438.81
477.10	6558.18
477.28	6757.13
477.46	6663.51
477.64	6750.10
477.82	6937.35
478.00	6899.90
478.18	7000.54
478.36	7007.56
478.54	7117.57
478.72	7208.85
478.90	7183.10
479.08	7162.04
479.26	7318.86
479.44	7349.28
479.62	7265.02
479.80	7461.63
479.98	7632.49
480.16	7665.25
480.34	7683.98
480.52	7681.64
480.70	7625.47
480.88	7852.50
481.06	7665.25
481.24	7782.28
481.41	7899.31
481.59	8100.59
481.77	8016.33
481.95	8210.60
482.13	8116.98
482.31	8290.18
482.49	8287.84
482.67	8329.97
482.85	8566.36
483.03	8521.89
483.21	8622.53
483.39	8533.59
483.57	8566.36
483.74	8877.65
483.92	9034.47
484.10	8741.90
484.28	8954.89
484.46	9146.81
484.64	9191.28
484.82	8985.32
485.00	9266.18
485.18	9418.32
485.35	9535.34
485.53	9423.00
485.71	9280.22
485.89	9671.09
486.07	9621.94
486.25	9687.48
486.43	9743.65
486.61	9865.36
486.78	10008.13
486.96	10026.86
487.14	10150.90
487.32	10068.98
487.50	10209.42
487.68	10232.82
487.85	10363.89
488.03	10478.58
488.21	10736.04
488.39	10576.88
488.57	10850.72
488.75	10892.85
488.92	10801.57
489.10	11033.29
489.28	10920.94
489.46	11122.23
489.64	11147.97
489.81	11407.77
489.99	11510.75
490.17	11541.18
490.35	11768.21
490.53	11840.77
490.70	11723.74
490.88	11740.13
491.06	11992.90
491.24	12042.06
491.41	11896.94
491.59	12154.40
491.77	12226.96
491.95	12243.34
492.13	12334.62
492.30	12514.84
492.48	12456.33
492.66	12468.03
492.84	12503.14
493.01	12601.44
493.19	12865.92
493.37	12617.83
493.54	12889.33
493.72	12828.48
493.90	13064.87
494.08	13076.57
494.25	13233.39
494.43	13387.86
494.61	13453.40
494.79	13570.43
494.96	13425.31
495.14	13577.45
495.32	13741.29
495.49	13422.97
495.67	13872.36
495.85	13912.14
496.02	14132.15
496.20	14012.79
496.38	14230.46
496.55	14080.66
496.73	14406.00
496.91	14237.48
497.09	14485.58
497.26	14581.54
497.44	14520.68
497.62	14651.75
497.79	14712.61
497.97	14743.03
498.14	15049.64
498.32	15070.71
498.50	14979.43
498.67	15192.42
498.85	15159.65
499.03	15009.86
499.20	15061.35
499.38	15358.60
499.56	15407.75
499.73	15419.45
499.91	15346.89
500.08	15817.34
500.26	15676.91
500.44	15604.35
500.61	15749.46
500.79	15693.29
500.97	15822.02
501.14	15985.86
501.32	16116.93
501.49	15803.30
501.67	16273.74
501.84	16198.85
502.02	16084.16
502.20	16311.19
502.37	16573.33
502.55	16299.49
502.72	16245.66
502.90	16570.99
503.07	16540.57
503.25	16327.58
503.43	16746.53
503.60	16821.43
503.78	16931.44
503.95	16994.63
504.13	16898.67
504.30	16783.98
504.48	16753.55
504.65	16989.95
504.83	17275.49
505.01	17252.09
505.18	17401.88
505.36	17221.66
505.53	17380.82
505.71	17357.41
505.88	17254.43
506.06	17315.28
506.23	17539.97
506.41	17696.79
506.58	17570.40
506.76	17572.74
506.93	17671.04
507.11	17659.34
507.28	17689.77
507.46	17675.73
507.63	17731.90
507.81	17930.84
507.98	18204.69
508.16	17926.16
508.33	17919.14
508.50	17977.65
508.68	18132.13
508.85	18207.03
509.03	18738.33
509.20	18242.14
509.38	18661.09
509.55	18497.25
509.73	18478.53
509.90	18789.82
510.08	18597.90
510.25	18530.02
510.42	18824.93
510.60	19152.60
510.77	18808.54
510.95	19145.58
511.12	19054.30
511.30	18810.89
511.47	18958.34
511.64	19066.00
511.82	19370.27
511.99	19136.22
512.17	19239.20
512.34	19365.59
512.51	19330.48
512.69	19616.03
512.86	19389.00
513.04	19445.17
513.21	19810.29
513.38	20093.50
513.56	19756.46
513.73	19768.16
513.90	19566.88
514.08	19885.19
514.25	19889.87
514.43	20095.84
514.60	20063.07
514.77	19936.68
514.95	20098.18
515.12	20135.63
515.29	20091.16
515.47	20332.23
515.64	20205.84
515.81	20475.01
515.99	20753.53
516.16	20697.36
516.33	20482.03
516.51	20669.27
516.68	20285.42
516.85	20521.82
517.03	20587.35
517.20	20774.60
517.37	20524.16
517.54	21053.12
517.72	21128.02
517.89	20964.18
518.06	21013.33
518.24	21010.99
518.41	21078.86
518.58	21083.55
518.75	21104.61
518.93	21476.76
519.10	21149.08
519.27	21263.77
519.45	21322.28
519.62	21373.77
519.79	21055.46
519.96	21378.45
520.14	21841.88
520.31	21387.82
520.48	21757.62
520.65	21778.68
520.83	21675.70
521.00	21933.16
521.17	21963.59
521.34	21654.64
521.52	22122.74
521.69	21893.37
521.86	21951.88
522.03	22302.96
522.20	22190.62
522.38	22272.54
522.55	22242.11
522.72	22218.71
522.89	22230.41
523.07	22595.53
523.24	22073.59
523.41	22249.13
523.58	22450.42
523.75	22398.93
523.92	22335.73
524.10	22689.15
524.27	22796.82
524.44	22576.81
524.61	22836.61
524.78	22817.88
524.96	22822.56
525.13	22817.88
525.30	22948.95
525.47	22806.18
525.64	22984.06
525.81	23061.30
525.98	22731.28
526.16	23082.36
526.33	23133.86
526.50	23733.03
526.67	22993.42
526.84	23190.03
527.01	23204.07
527.18	23370.25
527.36	23126.83
527.53	23417.06
527.70	23740.05
527.87	23683.88
528.04	23438.12
528.21	23632.39
528.38	23339.82
528.55	23723.67
528.72	23597.28
528.89	23920.28
529.07	23828.99
529.24	23658.14
529.41	23658.14
529.58	23697.92
529.75	23943.68
529.92	23885.17
530.09	24332.21
530.26	23866.44
530.43	24030.28
530.60	24168.37
530.77	24379.02
530.94	24079.43
531.11	24016.24
531.28	23859.42
531.46	23997.51
531.63	24166.03
531.80	24489.03
531.97	24479.66
532.14	24723.08
532.31	24259.65
532.48	24533.50
532.65	24601.37
532.82	23927.30
532.99	24776.91
533.16	24482.00
533.33	24720.74
533.50	25167.78
533.67	24863.51
533.84	24243.27
534.01	24573.28
534.18	24400.08
534.35	24903.30
534.52	24786.27
534.69	24655.20
534.86	24992.24
535.03	25090.54
535.20	25301.19
535.37	25111.61
535.54	25263.74
535.71	24568.60
535.88	25064.80
536.05	24870.53
536.22	25088.20
536.38	25188.85
536.55	25357.36
536.72	25474.39
536.89	25392.47
537.06	24898.62
537.23	25652.27
537.40	25553.97
537.57	25504.82
537.74	25671.00
537.91	25579.71
538.08	25816.11
538.25	25685.04
538.42	25710.78
538.59	25902.71
538.75	25865.26
538.92	25970.58
539.09	25872.28
539.26	26134.42
539.43	25680.36
539.60	26029.10
539.77	25795.04
539.94	25781.00
540.11	26263.15
540.28	25729.51
540.44	26118.04
540.61	25841.85
540.78	25685.04
540.95	26377.84
541.12	25876.96
541.29	26206.98
541.46	26101.65
541.62	26122.72
541.79	26452.73
541.96	25993.99
542.13	26354.43
542.30	26422.31
542.47	26611.89
542.63	26176.55
542.80	26719.56
542.97	26836.58
543.14	26944.25
543.31	26731.26
543.48	26583.80
543.64	26946.59
543.81	26986.38
543.98	26576.78
544.15	26944.25
544.32	27173.62
544.48	27246.18
544.65	26864.67
544.82	26534.65
544.99	26817.86
545.16	27239.15
545.32	26897.44
545.49	27190.00
545.66	27302.35
545.83	27513.00
546.00	27243.84
546.16	27185.32
546.33	27311.71
546.50	26761.69
546.67	27615.98
546.83	27084.68
547.00	27297.67
547.17	27447.46
547.34	27426.40
547.50	27667.47
547.67	28081.75
547.84	27426.40
548.00	27222.77
548.17	27344.48
548.34	27316.39
548.51	27929.61
548.67	27953.02
548.84	27468.53
549.01	27508.32
549.18	27653.43
549.34	27599.60
549.51	27342.14
549.68	27578.53
549.84	27697.90
550.01	27419.38
550.18	27585.55
550.34	27800.88
550.51	27765.78
550.68	27871.10
550.84	27496.61
551.01	28046.64
551.18	27632.36
551.34	27763.43
551.51	27611.30
551.68	28201.11
551.84	28386.02
552.01	27950.68
552.18	28006.85
552.34	28315.80
552.51	28254.95
552.68	28315.80
552.84	28343.89
553.01	28430.49
553.18	28596.67
553.34	28395.38
553.51	28264.31
553.67	28065.36
553.84	28746.46
554.01	28622.41
554.17	28465.60
554.34	28411.76
554.51	28264.31
554.67	28505.38
554.84	28470.28
555.00	28446.87
555.17	28718.37
555.33	28959.45
555.50	28746.46
555.67	28655.18
555.83	28510.07
556.00	28884.55
556.16	28851.78
556.33	28730.08
556.50	28779.23
556.66	28762.84
556.83	28774.55
556.99	28800.29
557.16	28872.85
557.32	28872.85
557.49	28912.64
557.65	28596.67
557.82	28943.06
557.98	28659.86
558.15	29172.44
558.32	28968.81
558.48	28460.91
558.65	29294.14
558.81	29022.64
558.98	29024.98
559.14	28971.15
559.31	29298.83
559.47	29013.28
559.64	29146.69
559.80	29249.67
559.97	29226.27
560.13	29202.86
560.30	29163.08
560.46	29247.33
560.63	29216.91
560.79	29343.30
560.96	29067.11
561.12	29029.66
561.29	29006.26
561.45	29137.33
561.61	29268.40
561.78	29584.37
561.94	29455.64
562.11	29507.13
562.27	29350.32
562.44	29591.39
562.60	29153.71
562.77	29317.55
562.93	29495.43
563.10	29394.79
563.26	29436.92
563.42	29811.40
563.59	29507.13
563.75	29727.14
563.92	29546.92
564.08	29509.47
564.24	29282.44
564.41	29385.43
564.57	29263.72
564.74	29399.47
564.90	29589.05
565.07	29738.85
565.23	29813.74
565.39	29736.51
565.56	29673.31
565.72	29369.04
565.88	29930.77
566.05	29457.98
566.21	29677.99
566.38	29809.06
566.54	29497.77
566.70	29839.49
566.87	30101.63
567.03	29839.49
567.19	30246.74
567.36	29771.61
567.52	29851.19
567.68	29984.60
567.85	29659.27
568.01	30036.09
568.17	29837.15
568.34	30199.93
568.50	30085.25
568.66	29872.26
568.83	30022.05
568.99	29940.13
569.15	29795.02
569.32	29766.93
569.48	29783.32
569.64	29949.50
569.81	30038.44
569.97	30223.34
570.13	29818.42
570.30	29944.81
570.46	30033.75
570.62	29804.38
570.78	30113.33
570.95	29724.80
571.11	29895.66
571.27	29748.21
571.43	29603.10
571.60	30096.95
571.76	30167.16
571.92	29792.68
572.09	30279.51
572.25	30061.84
572.41	30061.84
572.57	30087.59
572.74	30157.80
572.90	29685.01
573.06	30176.53
573.22	29694.38
573.38	30302.92
573.55	29975.24
573.71	30225.68
573.87	30192.91
574.03	30389.52
574.20	30417.60
574.36	30298.23
574.52	30515.90
574.68	30073.54
574.84	30118.01
575.01	29989.28
575.17	30588.46
575.33	29984.60
575.49	29731.83
575.65	30590.80
575.82	30366.11
575.98	30478.46
576.14	30279.51
576.30	30019.71
576.46	30134.40
576.62	29752.89
576.79	30321.64
576.95	30047.80
577.11	30445.69
577.27	30319.30
577.43	30258.45
577.59	30331.00
577.75	30572.08
577.92	29928.43
578.08	30148.44
578.24	30263.13
578.40	29909.71
578.56	30560.37
578.72	30291.21
578.88	30541.65
579.04	30864.64
579.21	30366.11
579.37	30405.90
579.53	30506.54
579.69	30331.00
579.85	29977.58
580.01	30073.54
580.17	29867.58
580.33	30199.93
580.49	30127.38
580.65	30904.43
580.82	30569.74
580.98	30331.00
581.14	30548.67
581.30	30326.32
581.46	30387.18
581.62	30213.98
581.78	30333.34
581.94	29958.86
582.10	30312.28
582.26	30279.51
582.42	30548.67
582.58	30520.59
582.74	30356.75
582.90	30326.32
583.06	30705.49
583.22	30263.13
583.38	30658.68
583.54	30558.03
583.70	30265.47
583.86	30497.18
584.02	30412.92
584.18	30885.71
584.34	30707.83
584.50	30689.10
584.66	30321.64
584.82	30134.40
584.98	30504.20
585.14	30405.90
585.30	30249.08
585.46	30375.47
585.62	30387.18
585.78	30569.74
585.94	30263.13
586.10	30089.93
586.26	30377.81
586.42	30476.12
586.58	30541.65
586.74	30476.12
586.90	30326.32
587.06	30450.37
587.22	30314.62
587.38	30192.91
587.54	31009.76
587.70	30682.08
587.86	30609.53
588.02	30698.47
588.18	30902.09
588.34	30698.47
588.49	30567.40
588.65	30403.56
588.81	30738.26
588.97	30541.65
589.13	30808.47
589.29	30649.32
589.45	30534.63
589.61	30909.11
589.77	31292.96
589.93	31189.98
590.08	30937.20
590.24	30904.43
590.40	31192.32
590.56	30654.00
590.72	31009.76
590.88	30742.94
591.04	31124.44
591.20	30733.57
591.35	31047.21
591.51	31147.85
591.67	31358.50
591.83	30862.30
591.99	31159.55
592.15	31143.17
592.31	30927.84
592.46	31016.78
592.62	30948.90
592.78	30859.96
592.94	30686.76
593.10	30960.61
593.26	30927.84
593.41	31044.87
593.57	30829.54
593.73	30937.20
593.89	30944.22
594.05	31065.93
594.20	30639.95
594.36	31030.82
594.52	30766.34
594.68	30581.44
594.84	30944.22
594.99	31112.74
595.15	30841.24
595.31	31335.09
595.47	30979.33
595.62	30951.24
595.78	31164.23
595.94	31075.29
596.10	31508.29
596.25	30726.55
596.41	30670.38
596.57	30466.75
596.73	31328.07
596.88	30504.20
597.04	31192.32
597.20	31084.65
597.36	31178.28
597.51	31445.10
597.67	30775.70
597.83	31346.79
597.99	30689.10
598.14	31152.53
598.30	30838.90
598.46	30895.07
598.61	31204.02
598.77	31328.07
598.93	31241.47
599.09	31136.15
599.24	31325.73
599.40	31435.74
599.56	31384.24
599.71	31126.78
599.87	31466.16
600.03	31089.34
600.18	30925.50
600.34	31276.58
600.50	30923.16
600.65	31241.47
600.81	31290.62
600.97	31316.37
601.12	31592.55
601.28	31122.10
601.44	31285.94
601.59	31421.69
601.75	31079.97
601.91	31274.24
602.06	30932.52
602.22	31051.89
602.37	31290.62
602.53	31091.68
602.69	31456.80
602.84	31082.31
603.00	31175.94
603.16	31449.78
603.31	31070.61
603.47	30988.69
603.62	31182.96
603.78	31246.15
603.94	30866.98
604.09	31388.92
604.25	31103.38
604.40	30876.35
604.56	31136.15
604.71	31234.45
604.87	31288.28
605.03	31489.57
605.18	31714.26
605.34	31143.17
605.49	30904.43
605.65	31379.56
605.80	30766.34
605.96	30955.93
606.12	31054.23
606.27	31211.04
606.43	31065.93
606.58	31101.04
606.74	31175.94
606.89	30958.27
607.05	31201.68
607.20	31463.82
607.36	31054.23
607.51	31243.81
607.67	31023.80
607.82	30782.73
607.98	30923.16
608.13	30979.33
608.29	31201.68
608.44	30822.51
608.60	31019.12
608.75	31285.94
608.91	31077.63
609.06	30869.33
609.22	30993.37
609.37	30742.94
609.53	30532.29
609.68	30838.90
609.84	31033.16
609.99	30953.58
610.15	31026.14
610.30	31065.93
610.46	30934.86
610.61	31234.45
610.76	31023.80
610.92	30616.55
611.07	30988.69
611.23	30630.59
611.38	30658.68
611.54	30408.24
611.69	30623.57
611.84	30494.84
612.00	30958.27
612.15	30651.66
612.31	31070.61
612.46	30558.03
612.62	30862.30
612.77	30597.82
612.92	30953.58
613.08	30668.04
613.23	30424.62
613.39	30635.27
613.54	30639.95
613.69	30562.72
613.85	30443.35
614.00	30403.56
614.15	30609.53
614.31	30553.35
614.46	30305.26
614.62	30717.19
614.77	30469.09
614.92	30373.13
615.08	30164.82
615.23	30239.72
615.38	30511.22
615.54	30085.25
615.69	30153.12
615.84	30569.74
616.00	30213.98
616.15	30738.26
616.30	30829.54
616.46	30675.06
616.61	30693.79
616.76	30431.65
616.92	30422.28
617.07	30410.58
617.22	30005.67
617.37	30204.61
617.53	30169.51
617.68	30384.83
617.83	30113.33
617.99	29935.45
618.14	29916.73
618.29	30192.91
618.45	29998.65
618.60	30157.80
618.75	30164.82
618.90	30206.95
619.06	29947.15
619.21	30057.16
619.36	29940.13
619.51	30061.84
619.67	29895.66
619.82	29834.81
619.97	29914.39
620.12	30024.39
620.28	30221.00
620.43	29907.37
620.58	30211.64
620.73	30047.80
620.89	30274.83
621.04	29935.45
621.19	30232.70
621.34	29961.20
621.49	29677.99
621.65	29996.31
621.80	29956.52
621.95	29577.35
622.10	29685.01
622.25	29418.19
622.41	29792.68
622.56	29612.46
622.71	29722.46
622.86	29778.64
623.01	29600.76
623.16	29776.30
623.32	29670.97
623.47	29383.09
623.62	29570.33
623.77	29443.94
623.92	29624.16
624.07	29406.49
624.23	29366.70
624.38	29701.40
624.53	29355.00
624.68	29661.61
624.83	29984.60
624.98	29593.73
625.13	29598.41
625.29	29661.61
625.44	29701.40
625.59	29212.23
625.74	29605.44
625.89	29090.52
626.04	29411.17
626.19	29476.71
626.34	29237.97
626.49	29184.14
626.65	29497.77
626.80	29347.98
626.95	29364.36
627.10	29369.04
627.25	29022.64
627.40	28917.32
627.55	28924.34
627.70	29055.41
627.85	29158.39
628.00	28936.04
628.15	28795.61
628.30	28746.46
628.45	28821.36
628.60	28922.00
628.76	28978.17
628.91	28975.83
629.06	29097.54
629.21	28896.25
629.36	29156.05
629.51	28964.13
629.66	28725.39
629.81	28910.30
629.96	28957.11
630.11	28814.34
630.26	28811.99
630.41	29118.60
630.56	28772.21
630.71	28912.64
630.86	28350.91
631.01	28765.18
631.16	28910.30
631.31	29158.39
631.46	28453.89
631.61	28877.53
631.76	28734.76
631.91	28746.46
632.06	28491.34
632.21	28233.88
632.36	28762.84
632.51	28371.97
632.66	28739.44
632.81	28531.13
632.96	28435.17
633.10	28575.60
633.25	28496.02
633.40	28528.79
633.55	28596.67
633.70	28093.45
633.85	28238.56
634.00	28257.29
634.15	28264.31
634.30	28250.27
634.45	28481.98
634.60	28357.93
634.75	28414.10
634.90	28444.53
635.05	28458.57
635.19	28257.29
635.34	28318.14
635.49	28580.28
635.64	28498.36
635.79	28407.08
635.94	28154.30
636.09	28020.89
636.24	28554.54
636.39	28027.92
636.53	27695.56
636.68	28203.46
636.83	27838.33
636.98	28119.20
637.13	28133.24
637.28	28063.02
637.43	28421.13
637.57	28271.33
637.72	27938.97
637.87	27880.46
638.02	27800.88
638.17	27843.01
638.32	27850.03
638.46	28093.45
638.61	27920.25
638.76	27627.68
638.91	27730.67
639.06	27796.20
639.20	27754.07
639.35	27686.20
639.50	27901.53
639.65	27833.65
639.80	27765.78
639.94	27784.50
640.09	27922.59
640.24	27679.18
640.39	27461.51
640.54	27232.13
640.68	27754.07
640.83	27641.73
640.98	27285.97
641.13	27316.39
641.27	27690.88
641.42	27583.21
641.57	27960.04
641.72	27559.81
641.86	27480.23
642.01	27175.96
642.16	27580.87
642.31	27384.27
642.45	27197.02
642.60	27431.08
642.75	27166.60
642.90	27096.38
643.04	26852.97
643.19	27140.85
643.34	27510.66
643.48	27377.25
643.63	27592.58
643.78	27164.26
643.93	27442.78
644.07	27496.61
644.22	27239.15
644.37	27115.11
644.51	27637.05
644.66	27019.14
644.81	27182.98
644.95	26876.37
645.10	26735.94
645.25	26979.36
645.39	26876.37
645.54	27173.62
645.69	26820.20
645.83	27161.92
645.98	27054.25
646.13	27428.74
646.27	27208.73
646.42	26988.72
646.57	26934.88
646.71	26874.03
646.86	26728.92
647.00	27173.62
647.15	27103.40
647.30	27218.09
647.44	26480.82
647.59	26782.75
647.74	26965.31
647.88	27026.17
648.03	26757.00
648.17	26869.35
648.32	27192.34
648.47	27190.00
648.61	26761.69
648.76	26735.94
648.90	26665.72
649.05	26457.42
649.20	26445.71
649.34	26581.46
649.49	26216.34
649.63	26228.04
649.78	26324.01
649.92	26331.03
650.07	26733.60
650.21	26450.39
650.36	26661.04
650.51	26195.28
650.65	26565.08
650.80	26572.10
650.94	26331.03
651.09	26274.85
651.23	26286.56
651.38	26448.05
651.52	26754.66
651.67	26438.69
651.81	26164.85
651.96	26450.39
652.10	26031.44
652.25	26251.45
652.39	26815.52
652.54	26235.06
652.68	26480.82
652.83	26434.01
652.97	26307.62
653.12	26181.23
653.26	25944.84
653.41	26534.65
653.55	25872.28
653.70	26136.76
653.84	26092.29
653.99	26129.74
654.13	25907.39
654.27	26150.81
654.42	26316.98
654.56	26300.60
654.71	26249.11
654.85	25968.24
655.00	25979.95
655.14	25991.65
655.29	26340.39
655.43	25998.67
655.57	26001.01
655.72	25769.30
655.86	26118.04
656.01	25883.98
656.15	25521.20
656.30	25851.22
656.44	25626.53
656.58	26071.23
656.73	25795.04
656.87	25717.81
657.01	25972.92
657.16	25738.87
657.30	25647.59
657.45	25652.27
657.59	25694.40
657.73	25738.87
657.88	25439.28
658.02	25624.18
658.16	25195.87
658.31	25759.94
658.45	25708.44
658.60	25153.74
658.74	25432.26
658.88	25252.04
659.03	25322.26
659.17	25394.81
659.31	25666.31
659.46	25331.62
659.60	25500.14
659.74	25362.04
659.89	25212.25
660.03	25156.08
660.17	25696.74
660.32	25081.18
660.46	25055.43
660.60	24917.34
660.74	24929.05
660.89	25046.07
661.03	24713.72
661.17	24966.49
661.32	24996.92
661.46	25621.84
661.60	24790.95
661.74	25111.61
661.89	25109.27
662.03	24805.00
662.17	24655.20
662.31	24587.33
662.46	24812.02
662.60	24451.58
662.74	24915.00
662.88	24196.46
663.03	24329.87
663.17	24751.17
663.31	24222.20
663.45	24521.79
663.60	24320.51
663.74	23913.25
663.88	24276.04
664.02	24297.10
664.17	24437.53
664.31	24383.70
664.45	23917.93
664.59	24388.38
664.73	24292.42
664.88	24294.76
665.02	23789.20
665.16	24341.57
665.30	23868.78
665.44	24095.82
665.59	23733.03
665.73	23814.95
665.87	23646.43
666.01	23899.21
666.15	24163.69
666.29	23922.62
666.44	24339.23
666.58	24041.98
666.72	24034.96
666.86	23730.69
667.00	24081.77
667.14	23695.58
667.28	23445.15
667.43	23819.63
667.57	23590.26
667.71	23363.23
667.85	23367.91
667.99	23445.15
668.13	23372.59
668.27	23302.37
668.41	23585.58
668.56	23293.01
668.70	23482.59
668.84	23566.85
668.98	23143.22
669.12	23653.45
669.26	23091.73
669.40	23028.53
669.54	23253.22
669.68	23288.33
669.82	22637.66
669.96	22918.53
670.10	22661.07
670.25	23044.91
670.39	22820.22
670.53	22745.33
670.67	22600.21
670.81	22618.94
670.95	22920.87
671.09	22883.42
671.23	22796.82
671.37	22595.53
671.51	23075.34
671.65	22581.49
671.79	22860.01
671.93	22403.61
672.07	22534.68
672.21	22441.06
672.35	22085.30
672.49	22197.64
672.63	22171.89
672.77	22284.24
672.91	22036.14
673.05	22225.73
673.19	22466.80
673.33	21865.28
673.47	22209.34
673.61	22113.38
673.75	21879.33
673.89	21844.22
674.03	21905.07
674.17	22075.93
674.31	21900.39
674.45	21612.51
674.59	21544.63
674.73	21816.13
674.87	21558.67
675.01	21565.70
675.15	21511.86
675.29	21263.77
675.43	21266.11
675.56	21518.89
675.70	21273.13
675.84	21427.60
675.98	20538.20
676.12	21233.34
676.26	21596.12
676.40	21289.51
676.54	21280.15
676.68	21228.66
676.82	20664.59
676.96	21156.10
677.10	20603.74
677.23	20428.20
677.37	20531.18
677.51	20753.53
677.65	20430.54
677.79	20460.96
677.93	20711.40
678.07	20718.42
678.21	20311.17
678.34	20198.82
678.48	20252.66
678.62	20215.21
678.76	19838.38
678.90	20393.09
679.04	20107.54
679.18	20025.62
679.31	19810.29
679.45	19868.81
679.59	19632.41
679.73	19704.97
679.87	19323.46
680.00	19730.72
680.14	19435.81
680.28	19386.66
680.42	19290.70
680.56	19431.13
680.70	19297.72
680.83	19618.37
680.97	19049.62
681.11	19002.81
681.25	19112.81
681.39	19016.85
681.52	19040.26
681.66	18981.74
681.80	18892.80
681.94	18820.25
682.07	19023.87
682.21	18782.80
682.35	18611.94
682.49	18743.01
682.62	18501.93
682.76	18520.66
682.90	18246.82
683.04	18487.89
683.17	18398.95
683.31	18331.08
683.45	18483.21
683.59	18455.12
683.72	18162.56
683.86	18181.28
684.00	18366.18
684.13	17965.95
684.27	17944.89
684.41	17820.84
684.55	17696.79
684.68	17324.65
684.82	17605.51
684.96	17593.81
685.09	17418.27
685.23	17373.80
685.37	17158.47
685.50	17338.69
685.64	17338.69
685.78	17345.71
685.91	17348.05
686.05	17565.72
686.19	17287.20
686.32	17266.13
686.46	16936.12
686.60	16903.35
686.73	16910.37
686.87	16865.90
687.01	16730.15
687.14	16650.57
687.28	16657.59
687.42	16720.79
687.55	16666.95
687.69	16669.30
687.82	16533.54
687.96	16486.73
688.10	16355.66
688.23	16355.66
688.37	16510.14
688.50	16423.54
688.64	16493.76
688.78	16453.97
688.91	15908.62
689.05	16196.51
689.18	16173.10
689.32	15793.94
689.46	15803.30
689.59	15941.39
689.73	15709.68
689.86	15775.21
690.00	15447.54
690.13	15758.83
690.27	15541.16
690.41	15377.32
690.54	15580.95
690.68	15660.52
690.81	15740.10
690.95	15424.13
691.08	15288.38
691.22	15428.81
691.35	15264.97
691.49	14970.07
691.62	15236.89
691.76	15250.93
691.89	15030.92
692.03	15180.71
692.16	14993.47
692.30	14656.43
692.43	14490.26
692.57	14672.82
692.70	14593.24
692.84	14485.58
692.97	14420.04
693.11	14455.15
693.24	14298.33
693.38	14483.24
693.51	14200.03
693.65	14370.89
693.78	14225.78
693.92	13968.32
694.05	14057.26
694.19	14216.41
694.32	14015.13
694.45	13973.00
694.59	13668.73
694.72	13806.82
694.86	13781.07
694.99	13446.38
695.13	13422.97
695.26	13523.62
695.39	13532.98
695.53	13666.39
695.66	13317.65
695.80	13312.97
695.93	13324.67
696.07	13418.29
696.20	13364.46
696.33	13362.12
696.47	13254.45
696.60	12982.95
696.73	13107.00
696.87	12805.07
697.00	12812.09
697.14	12624.85
697.27	12823.80
697.40	12564.00
697.54	12655.28
697.67	12603.78
697.80	12519.53
697.94	12287.81
698.07	12308.88
698.21	12336.96
698.34	12283.13
698.47	12367.39
698.61	12287.81
698.74	12351.01
698.87	12219.94
699.01	12280.79
699.14	12035.03
699.27	12093.55
699.40	12091.21
699.54	11978.86
699.67	11838.43
699.80	12135.68
699.94	11756.51
700.07	11817.36
700.20	11620.76
700.34	11454.58
700.47	11585.65
700.60	11522.46
700.73	11501.39
700.87	11555.22
701.00	11634.80
701.13	11492.03
701.26	11311.81
701.40	11513.10
701.53	11393.73
701.66	11267.34
701.79	11073.07
701.93	11250.96
702.06	11002.86
702.19	11098.82
702.32	10906.90
702.46	11164.36
702.59	10766.46
702.72	10609.65
702.85	10768.80
702.99	10747.74
703.12	10403.68
703.25	10532.41
703.38	10675.18
703.51	10511.35
703.65	10410.70
703.78	10408.36
703.91	10623.69
704.04	10333.47
704.17	10427.09
704.31	10604.97
704.44	10221.12
704.57	10230.48
704.70	10008.13
704.83	10085.37
704.96	10033.88
705.10	9914.51
705.23	9841.95
>>>>>End Processed Spectral Data<<<<<
