SpectraSuite Data File
++++++++++++++++++++++++++++++++++++
Date: Fri Oct 18 13:58:39 GMT-05:00 2013
User: bianchi
Dark Spectrum Present: No
Reference Spectrum Present: No
Number of Sampled Component Spectra: 1
Spectrometers: USB2+H05261
Integration Time (usec): 50000 (USB2+H05261)
Spectra Averaged: 1 (USB2+H05261)
Boxcar Smoothing: 0 (USB2+H05261)
Correct for Electrical Dark: No (USB2+H05261)
Strobe/Lamp Enabled: No (USB2+H05261)
Correct for Detector Non-linearity: No (USB2+H05261)
Correct for Stray Light: No (USB2+H05261)
Number of Pixels in Processed Spectrum: 2048
>>>>>Begin Processed Spectral Data<<<<<
365.73	0.00
365.92	0.00
366.12	0.00
366.32	0.00
366.52	0.00
366.72	0.00
366.91	0.00
367.11	0.00
367.31	0.00
367.51	0.00
367.70	0.00
367.90	0.00
368.10	0.00
368.30	0.00
368.49	0.00
368.69	0.00
368.89	0.00
369.09	0.00
369.28	0.00
369.48	0.00
369.68	0.00
369.87	0.00
370.07	0.00
370.27	0.00
370.47	0.00
370.66	93.62
370.86	147.45
371.06	142.77
371.25	173.20
371.45	65.54
371.65	131.07
371.84	145.11
372.04	133.41
372.24	131.07
372.44	154.48
372.63	128.73
372.83	285.55
373.03	147.45
373.22	287.89
373.42	210.65
373.62	238.73
373.81	227.03
374.01	201.29
374.21	187.24
374.40	257.46
374.60	203.63
374.79	215.33
374.99	229.37
375.19	227.03
375.38	292.57
375.58	208.31
375.78	276.18
375.97	220.01
376.17	358.10
376.37	248.10
376.56	290.23
376.76	306.61
376.95	269.16
377.15	306.61
377.35	241.08
377.54	236.39
377.74	271.50
377.93	217.67
378.13	308.95
378.33	285.55
378.52	358.10
378.72	376.83
378.91	290.23
379.11	248.10
379.31	285.55
379.50	276.18
379.70	306.61
379.89	208.31
380.09	271.50
380.28	322.99
380.48	212.99
380.68	294.91
380.87	241.08
381.07	301.93
381.26	320.65
381.46	381.51
381.65	276.18
381.85	325.33
382.04	390.87
382.24	241.08
382.43	315.97
382.63	344.06
382.83	369.80
383.02	376.83
383.22	435.34
383.41	355.76
383.61	341.72
383.80	421.30
384.00	423.64
384.19	376.83
384.39	379.17
384.58	322.99
384.78	287.89
384.97	388.53
385.17	369.80
385.36	409.59
385.56	365.12
385.75	423.64
385.95	374.49
386.14	337.04
386.34	266.82
386.53	355.76
386.72	395.55
386.92	435.34
387.11	386.19
387.31	463.43
387.50	418.96
387.70	416.62
387.89	374.49
388.09	454.06
388.28	447.04
388.48	372.15
388.67	463.43
388.86	421.30
389.06	456.40
389.25	463.43
389.45	425.98
389.64	517.26
389.84	482.15
390.03	477.47
390.22	477.47
390.42	468.11
390.61	500.87
390.81	383.85
391.00	479.81
391.19	493.85
391.39	571.09
391.58	496.19
391.78	512.58
391.97	550.03
392.16	550.03
392.36	517.26
392.55	521.94
392.75	517.26
392.94	526.62
393.13	578.11
393.33	603.86
393.52	571.09
393.71	540.66
393.91	573.43
394.10	521.94
394.29	493.85
394.49	561.73
394.68	528.96
394.88	561.73
395.07	533.64
395.26	624.92
395.46	615.56
395.65	634.29
395.84	664.71
396.04	725.57
396.23	622.58
396.42	603.86
396.62	620.24
396.81	669.39
397.00	613.22
397.19	514.92
397.39	662.37
397.58	638.97
397.77	615.56
397.97	671.73
398.16	631.94
398.35	741.95
398.55	751.31
398.74	713.86
398.93	730.25
399.12	730.25
399.32	664.71
399.51	713.86
399.70	809.83
399.90	828.55
400.09	744.29
400.28	800.46
400.47	664.71
400.67	849.61
400.86	774.72
401.05	765.36
401.24	772.38
401.44	833.23
401.63	840.25
401.82	791.10
402.01	713.86
402.21	826.21
402.40	854.30
402.59	844.93
402.78	828.55
402.97	823.87
403.17	791.10
403.36	882.38
403.55	901.11
403.74	819.19
403.93	861.32
404.13	971.32
404.32	917.49
404.51	952.60
404.70	976.00
404.89	980.68
405.09	940.90
405.28	940.90
405.47	877.70
405.66	917.49
405.85	929.19
406.05	983.02
406.24	961.96
406.43	1041.54
406.62	1048.56
406.81	1036.86
407.00	950.26
407.20	1022.81
407.39	1057.92
407.58	1022.81
407.77	1097.71
407.96	1055.58
408.15	1001.75
408.34	1043.88
408.54	1132.82
408.73	1088.35
408.92	1109.41
409.11	1158.57
409.30	1083.67
409.49	1123.46
409.68	1116.44
409.87	1100.05
410.07	1137.50
410.26	1179.63
410.45	1116.44
410.64	1324.74
410.83	1191.33
411.02	1219.42
411.21	1238.14
411.40	1142.18
411.59	1231.12
411.78	1313.04
411.98	1238.14
412.17	1205.38
412.36	1219.42
412.55	1350.49
412.74	1277.93
412.93	1432.41
413.12	1301.34
413.31	1462.83
413.50	1345.81
413.69	1373.89
413.88	1416.02
414.07	1273.25
414.26	1547.09
414.45	1495.60
414.64	1441.77
414.83	1565.82
415.02	1406.66
415.22	1575.18
415.41	1640.72
415.60	1514.33
415.79	1507.30
415.98	1624.33
416.17	1556.46
416.36	1687.53
416.55	1568.16
416.74	1568.16
416.93	1696.89
417.12	1675.82
417.31	1558.80
417.50	1657.10
417.69	1802.21
417.88	1650.08
418.07	1680.50
418.26	1708.59
418.45	1760.08
418.64	1804.55
418.83	1788.17
419.02	1816.26
419.21	1788.17
419.39	1844.34
419.58	1748.38
419.77	1839.66
419.96	1760.08
420.15	1853.70
420.34	1774.13
420.53	1937.96
420.72	1937.96
420.91	1912.22
421.10	1900.52
421.29	1977.75
421.48	1923.92
421.67	1902.86
421.86	1923.92
422.05	1942.64
422.24	1989.46
422.43	1902.86
422.61	1982.43
422.80	1870.09
422.99	1928.60
423.18	2052.65
423.37	2087.76
423.56	1973.07
423.75	1893.49
423.94	2043.29
424.13	1813.92
424.32	1895.83
424.50	2017.54
424.69	2019.88
424.88	2125.21
425.07	2026.90
425.26	1984.77
425.45	1970.73
425.64	1989.46
425.83	1984.77
426.01	2010.52
426.20	2080.74
426.39	2050.31
426.58	1912.22
426.77	2169.68
426.96	2024.56
427.15	2026.90
427.33	2073.71
427.52	2036.27
427.71	2232.87
427.90	2190.74
428.09	2183.72
428.28	2136.91
428.46	2059.67
428.65	2090.10
428.84	2272.66
429.03	2190.74
429.22	2120.53
429.40	2211.81
429.59	2174.36
429.78	2094.78
429.97	2113.50
430.16	2197.76
430.34	2286.70
430.53	2237.55
430.72	2284.36
430.91	2272.66
431.10	2239.89
431.28	2321.81
431.47	2298.41
431.66	2246.91
431.85	2310.11
432.03	2396.71
432.22	2389.69
432.41	2380.32
432.60	2499.69
432.79	2450.54
432.97	2427.14
433.16	2541.82
433.35	2457.56
433.54	2471.61
433.72	2506.71
433.91	2523.10
434.10	2483.31
434.28	2389.69
434.47	2588.63
434.66	2607.36
434.85	2546.50
435.03	2630.76
435.22	2495.01
435.41	2665.87
435.59	2567.57
435.78	2642.46
435.97	2651.83
436.16	2644.81
436.34	2602.68
436.53	2628.42
436.72	2738.43
436.90	2686.94
437.09	2752.47
437.28	2719.70
437.46	2642.46
437.65	2672.89
437.84	2745.45
438.02	2750.13
438.21	2761.83
438.40	2822.69
438.58	2857.79
438.77	2869.50
438.96	2846.09
439.14	2775.88
439.33	2899.92
439.52	2949.08
439.70	3056.74
439.89	3077.80
440.08	3028.65
440.26	3049.72
440.45	3155.04
440.63	3089.51
440.82	3105.89
441.01	3084.83
441.19	3000.57
441.38	3204.19
441.57	3169.09
441.75	3323.56
441.94	3201.85
442.12	3131.64
442.31	3241.64
442.50	3162.06
442.68	3241.64
442.87	3255.69
443.05	3328.24
443.24	3356.33
443.43	3267.39
443.61	3396.12
443.80	3325.90
443.98	3286.11
444.17	3375.05
444.35	3255.69
444.54	3356.33
444.73	3382.07
444.91	3447.61
445.10	3454.63
445.28	3344.63
445.47	3304.84
445.65	3349.31
445.84	3346.97
446.02	3550.59
446.21	3513.14
446.39	3449.95
446.58	3454.63
446.77	3581.02
446.95	3426.54
447.14	3375.05
447.32	3424.20
447.51	3384.41
447.69	3520.17
447.88	3379.73
448.06	3461.65
448.25	3414.84
448.43	3578.68
448.62	3330.58
448.80	3552.93
448.99	3548.25
449.17	3595.06
449.36	3459.31
449.54	3688.68
449.73	3702.73
449.91	3684.00
450.10	3639.53
450.28	3768.26
450.46	3665.28
450.65	3611.45
450.83	3665.28
451.02	3716.77
451.20	3810.39
451.39	3784.65
451.57	3735.50
451.76	3695.71
451.94	3822.09
452.13	3819.75
452.31	3831.46
452.49	3756.56
452.68	3742.52
452.86	3882.95
453.05	3843.16
453.23	3733.15
453.42	3826.78
453.60	3737.84
453.78	3997.64
453.97	3904.01
454.15	3904.01
454.34	3822.09
454.52	4007.00
454.70	4009.34
454.89	3962.53
455.07	3932.10
455.26	3953.16
455.44	4084.23
455.62	4042.11
455.81	3950.82
455.99	4014.02
456.17	4056.15
456.36	4142.75
456.54	4208.28
456.73	4184.88
456.91	4109.98
457.09	4042.11
457.28	4369.78
457.46	4306.59
457.64	4341.69
457.83	4264.46
458.01	4173.18
458.19	4262.12
458.38	4369.78
458.56	4269.14
458.74	4301.90
458.93	4390.84
459.11	4423.61
459.29	4269.14
459.48	4423.61
459.66	4456.38
459.84	4491.49
460.03	4482.13
460.21	4505.53
460.39	4545.32
460.57	4475.10
460.76	4404.89
460.94	4496.17
461.12	4664.69
461.31	4400.21
461.49	4620.22
461.67	4599.15
461.85	4725.54
462.04	4777.03
462.22	4971.30
462.40	4802.78
462.59	4554.68
462.77	4564.04
462.95	4798.10
463.13	4903.42
463.32	4777.03
463.50	4908.10
463.68	4645.96
463.86	4765.33
464.05	4795.76
464.23	4830.87
464.41	4837.89
464.59	4702.14
464.78	4940.87
464.96	4926.83
465.14	4830.87
465.32	4978.32
465.50	4894.06
465.69	5107.05
465.87	4964.28
466.05	4926.83
466.23	5088.32
466.41	5111.73
466.60	5036.83
466.78	5076.62
466.96	4964.28
467.14	4971.30
467.32	5083.64
467.51	5132.79
467.69	4959.60
467.87	5219.39
468.05	5221.74
468.23	5221.74
468.41	5160.88
468.60	5085.98
468.78	5121.09
468.96	5146.84
469.14	5270.89
469.32	5362.17
469.50	5053.22
469.69	5270.89
469.87	5399.62
470.05	5203.01
470.23	5373.87
470.41	5376.21
470.59	5371.53
470.77	5275.57
470.95	5416.00
471.14	5430.04
471.32	5373.87
471.50	5369.19
471.68	5544.73
471.86	5610.26
472.04	5535.37
472.22	5603.24
472.40	5551.75
472.58	5591.54
472.77	5755.38
472.95	5729.63
473.13	5853.68
473.31	5643.03
473.49	5678.14
473.67	5905.17
473.85	5713.25
474.03	6024.54
474.21	5877.09
474.39	6129.86
474.57	6057.31
474.75	5935.60
474.93	6139.23
475.12	6045.60
475.30	6228.17
475.48	6176.67
475.66	6239.87
475.84	6179.01
476.02	6272.64
476.20	6347.53
476.38	6310.08
476.56	6347.53
476.74	6480.94
476.92	6478.60
477.10	6607.33
477.28	6541.80
477.46	6693.93
477.64	6630.74
477.82	6848.41
478.00	6967.77
478.18	6839.05
478.36	6867.13
478.54	7087.14
478.72	7187.79
478.90	7068.42
479.08	7061.40
479.26	7258.00
479.44	7122.25
479.62	7227.57
479.80	7288.43
479.98	7454.61
480.16	7482.69
480.34	7358.64
480.52	7405.46
480.70	7564.61
480.88	7709.72
481.06	7705.04
481.24	7648.87
481.41	7896.97
481.59	7927.39
481.77	8100.59
481.95	7751.85
482.13	7887.61
482.31	7906.33
482.49	8273.79
482.67	8285.50
482.85	8231.66
483.03	8241.03
483.21	8669.34
483.39	8526.57
483.57	8393.16
483.74	8645.94
483.92	8631.90
484.10	8603.81
484.28	8858.93
484.46	8814.46
484.64	8997.02
484.82	8868.29
485.00	9188.94
485.18	9355.12
485.35	9233.41
485.53	9060.21
485.71	9305.97
485.89	9551.73
486.07	9446.40
486.25	9610.24
486.43	9710.88
486.61	9624.28
486.78	9767.06
486.96	10026.86
487.14	10141.54
487.32	10092.39
487.50	10281.97
487.68	10228.14
487.85	10221.12
488.03	10609.65
488.21	10497.30
488.39	10349.85
488.57	10633.05
488.75	10670.50
488.92	10705.61
489.10	10932.64
489.28	10869.45
489.46	10920.94
489.64	10965.41
489.81	11173.72
489.99	11318.83
490.17	11389.05
490.35	11363.30
490.53	11353.94
490.70	11489.69
490.88	11419.47
491.06	11660.55
491.24	11705.02
491.41	11850.13
491.59	11690.98
491.77	11683.95
491.95	12028.01
492.13	11981.20
492.30	12107.59
492.48	12287.81
492.66	12166.10
492.84	12067.80
493.01	12341.64
493.19	12463.35
493.37	12404.84
493.54	12695.07
493.72	12730.17
493.90	12973.59
494.08	12779.32
494.25	13015.72
494.43	12917.42
494.61	13217.01
494.79	13231.05
494.96	13549.36
495.14	13200.62
495.32	13504.89
495.49	13518.93
495.67	13427.65
495.85	13738.94
496.02	13963.64
496.20	13654.69
496.38	13741.29
496.55	13942.57
496.73	13853.63
496.91	14019.81
497.09	14263.22
497.26	14443.45
497.44	14174.28
497.62	14286.63
497.79	14410.68
497.97	14476.21
498.14	14691.54
498.32	14508.98
498.50	14956.02
498.67	14731.33
498.85	14740.69
499.03	14923.26
499.20	15049.64
499.38	14841.34
499.56	15000.49
499.73	15194.76
499.91	15363.28
500.08	15452.22
500.26	15269.66
500.44	15234.55
500.61	15517.75
500.79	15365.62
500.97	15440.51
501.14	15470.94
501.32	15719.04
501.49	15496.69
501.67	15700.31
501.84	15812.66
502.02	15728.40
502.20	15896.92
502.37	16119.27
502.55	15988.20
502.72	16123.95
502.90	16264.38
503.07	15934.37
503.25	16018.63
503.43	16145.02
503.60	16404.81
503.78	16290.13
503.95	16453.97
504.13	16301.83
504.30	16627.17
504.48	16531.20
504.65	16578.01
504.83	16706.74
505.01	17027.40
505.18	16828.45
505.36	16971.22
505.53	16917.39
505.71	16908.03
505.88	16931.44
506.06	17039.10
506.23	17198.26
506.41	17249.75
506.58	17074.21
506.76	17008.67
506.93	17216.98
507.11	17034.42
507.28	17532.95
507.46	17390.18
507.63	17631.26
507.81	17659.34
507.98	17427.63
508.16	17654.66
508.33	17542.32
508.50	17647.64
508.68	17596.15
508.85	17816.16
509.03	17874.67
509.20	18040.85
509.38	18445.76
509.55	18295.97
509.73	18359.16
509.90	18204.69
510.08	17987.02
510.25	18232.77
510.42	18497.25
510.60	18684.50
510.77	18663.43
510.95	18696.20
511.12	18534.70
511.30	18670.45
511.47	18754.71
511.64	18703.22
511.82	19051.96
511.99	18752.37
512.17	19040.26
512.34	18862.38
512.51	18918.55
512.69	19176.01
512.86	19005.15
513.04	19445.17
513.21	19234.52
513.38	19239.20
513.56	19143.24
513.73	19005.15
513.90	19281.33
514.08	19314.10
514.25	19564.54
514.43	19789.23
514.60	19508.37
514.77	19609.01
514.95	19765.82
515.12	19660.50
515.29	19625.39
515.47	19779.87
515.64	19857.10
515.81	19971.79
515.99	20130.95
516.16	20292.44
516.33	20128.61
516.51	20142.65
516.68	19964.77
516.85	20453.94
517.03	20301.81
517.20	20177.76
517.37	20194.14
517.54	20774.60
517.72	20332.23
517.89	20299.47
518.06	20460.96
518.24	20521.82
518.41	20482.03
518.58	20458.62
518.75	20734.81
518.93	20940.77
519.10	20718.42
519.27	21010.99
519.45	20807.36
519.62	20788.64
519.79	20580.33
519.96	20580.33
520.14	21209.93
520.31	20840.13
520.48	21458.03
520.65	21029.71
520.83	21465.05
521.00	21231.00
521.17	21369.09
521.34	21378.45
521.52	21507.18
521.69	21226.32
521.86	21680.38
522.03	21654.64
522.20	21408.88
522.38	21500.16
522.55	21460.37
522.72	21661.66
522.89	21598.46
523.07	21876.99
523.24	21816.13
523.41	21830.18
523.58	21575.06
523.75	21874.65
523.92	22019.76
524.10	22326.37
524.27	22338.07
524.44	22188.28
524.61	22515.95
524.78	22202.32
524.96	22272.54
525.13	22192.96
525.30	22324.03
525.47	22651.70
525.64	22492.55
525.81	22593.19
525.98	22668.09
526.16	22588.51
526.33	22375.52
526.50	23185.35
526.67	22796.82
526.84	22640.00
527.01	22569.79
527.18	22923.21
527.36	23428.76
527.53	23080.02
527.70	22984.06
527.87	23110.45
528.04	23096.41
528.21	23002.78
528.38	23328.12
528.55	23456.85
528.72	22988.74
528.89	23281.31
529.07	23377.27
529.24	23370.25
529.41	23592.60
529.58	23201.73
529.75	22876.40
529.92	23246.20
530.09	23442.81
530.26	23398.34
530.43	23201.73
530.60	23452.17
530.77	23974.11
530.94	23623.03
531.11	23440.47
531.28	23817.29
531.46	23910.91
531.63	23845.38
531.80	23768.14
531.97	24121.56
532.14	24018.58
532.31	24009.22
532.48	24044.32
532.65	23971.77
532.82	24084.11
532.99	23894.53
533.16	23660.48
533.33	24208.16
533.50	24451.58
533.67	24154.33
533.84	23941.34
534.01	24067.73
534.18	24240.93
534.35	24507.75
534.52	24460.94
534.69	24313.48
534.86	24577.97
535.03	24507.75
535.20	24615.41
535.37	24456.26
535.54	24580.31
535.71	24285.40
535.88	24435.19
536.05	24507.75
536.22	24659.88
536.38	24828.40
536.55	25163.10
536.72	24556.90
536.89	24418.81
537.06	24666.91
537.23	25158.42
537.40	24730.10
537.57	24774.57
537.74	24758.19
537.91	25273.10
538.08	25090.54
538.25	24849.47
538.42	25146.72
538.59	25371.41
538.75	24709.04
538.92	25158.42
539.09	25109.27
539.26	24952.45
539.43	25324.60
539.60	25149.06
539.77	25422.90
539.94	25266.08
540.11	25577.37
540.28	25069.48
540.44	25516.52
540.61	25352.68
540.78	25429.92
540.95	25474.39
541.12	25500.14
541.29	25408.86
541.46	25535.24
541.62	25469.71
541.79	25378.43
541.96	25261.40
542.13	25593.76
542.30	25586.74
542.47	26118.04
542.63	25902.71
542.80	26232.72
542.97	26029.10
543.14	26328.69
543.31	26052.50
543.48	25963.56
543.64	26181.23
543.81	26171.87
543.98	26340.39
544.15	26190.59
544.32	26410.60
544.48	26244.43
544.65	26288.90
544.82	26122.72
544.99	25989.31
545.16	26331.03
545.32	26302.94
545.49	26576.78
545.66	26499.55
545.83	26738.28
546.00	26878.71
546.16	26857.65
546.33	26731.26
546.50	26312.30
546.67	26539.33
546.83	26354.43
547.00	27054.25
547.17	26637.64
547.34	26338.05
547.50	26450.39
547.67	26836.58
547.84	26672.74
548.00	26761.69
548.17	26988.72
548.34	26586.15
548.51	27257.88
548.67	27175.96
548.84	27101.06
549.01	27016.80
549.18	26927.86
549.34	27028.51
549.51	26836.58
549.68	26923.18
549.84	26738.28
550.01	27171.28
550.18	27042.55
550.34	27255.54
550.51	26913.82
550.68	27541.08
550.84	27012.12
551.01	27325.75
551.18	27070.64
551.34	27012.12
551.51	27662.79
551.68	27445.12
551.84	27339.80
552.01	27433.42
552.18	27175.96
552.34	27253.20
552.51	27473.21
552.68	27192.34
552.84	27821.95
553.01	27754.07
553.18	27641.73
553.34	27765.78
553.51	27365.54
553.67	28032.60
553.84	28079.41
554.01	27707.26
554.17	27992.81
554.34	27915.57
554.51	27807.90
554.67	27985.79
554.84	27840.67
555.00	27812.59
555.17	27807.90
555.33	27737.69
555.50	28121.54
555.67	28041.96
555.83	28114.52
556.00	27805.56
556.16	28156.64
556.33	28116.86
556.50	28212.82
556.66	28088.77
556.83	28390.70
556.99	28327.50
557.16	28404.74
557.32	27924.93
557.49	28203.46
557.65	27960.04
557.82	28189.41
557.98	28243.24
558.15	27908.55
558.32	28409.42
558.48	28259.63
558.65	28194.09
558.81	28624.75
558.98	28369.63
559.14	28453.89
559.31	28276.01
559.47	28357.93
559.64	28325.16
559.80	28615.39
559.97	28594.32
560.13	28407.08
560.30	28842.42
560.46	28386.02
560.63	28304.10
560.79	28381.34
560.96	28692.63
561.12	28379.00
561.29	28606.03
561.45	28402.40
561.61	28725.39
561.78	28994.56
561.94	28655.18
562.11	28914.98
562.27	28599.01
562.44	28826.04
562.60	28364.95
562.77	28861.15
562.93	28624.75
563.10	29067.11
563.26	28215.16
563.42	28851.78
563.59	28802.63
563.75	28973.49
563.92	28807.31
564.08	28755.82
564.24	28582.62
564.41	28566.24
564.57	28725.39
564.74	28917.32
564.90	28929.02
565.07	29186.48
565.23	28882.21
565.39	28992.22
565.56	29106.90
565.72	28950.09
565.88	28847.10
566.05	28577.94
566.21	28790.93
566.38	29010.94
566.54	28957.11
566.70	28716.03
566.87	29364.36
567.03	29163.08
567.19	29315.21
567.36	29064.77
567.52	28931.36
567.68	29029.66
567.85	29188.82
568.01	29085.84
568.17	29130.31
568.34	29275.42
568.50	29319.89
568.66	29345.64
568.83	29394.79
568.99	28821.36
569.15	29060.09
569.32	29249.67
569.48	29032.00
569.64	28994.56
569.81	29083.50
569.97	29032.00
570.13	29247.33
570.30	29186.48
570.46	29413.51
570.62	29465.00
570.78	28996.90
570.95	28968.81
571.11	29352.66
571.27	28858.81
571.43	29212.23
571.60	29523.52
571.76	28870.51
571.92	29294.14
572.09	29322.23
572.25	29542.24
572.41	29507.13
572.57	29252.02
572.74	29308.19
572.90	29144.35
573.06	29235.63
573.22	29509.47
573.38	29221.59
573.55	28982.85
573.71	29483.73
573.87	29324.57
574.03	29235.63
574.20	29340.96
574.36	29296.49
574.52	29441.60
574.68	29369.04
574.84	29413.51
575.01	29661.61
575.17	29633.52
575.33	29649.91
575.49	29242.65
575.65	29420.53
575.82	29570.33
575.98	29291.80
576.14	29401.81
576.30	29518.84
576.46	29256.70
576.62	29511.81
576.79	29610.12
576.95	29254.36
577.11	29713.10
577.27	29809.06
577.43	29816.08
577.59	29687.36
577.75	29631.18
577.92	29106.90
578.08	29738.85
578.24	29532.88
578.40	29532.88
578.56	29467.34
578.72	29291.80
578.88	29703.74
579.04	29593.73
579.21	29649.91
579.37	29315.21
579.53	29462.66
579.69	29532.88
579.85	29277.76
580.01	29790.34
580.17	29214.57
580.33	29701.40
580.49	29425.22
580.65	29476.71
580.82	29649.91
580.98	29759.91
581.14	29462.66
581.30	29495.43
581.46	29699.06
581.62	29230.95
581.78	29291.80
581.94	29277.76
582.10	29434.58
582.26	29692.04
582.42	29687.36
582.58	29626.50
582.74	29439.26
582.90	29701.40
583.06	29890.98
583.22	29692.04
583.38	29663.95
583.54	29762.25
583.70	29345.64
583.86	29694.38
584.02	29399.47
584.18	29523.52
584.34	29876.94
584.50	29905.02
584.66	29514.16
584.82	29579.69
584.98	29853.53
585.14	29500.11
585.30	29483.73
585.46	29621.82
585.62	29645.23
585.78	29722.46
585.94	29214.57
586.10	29970.56
586.26	29898.00
586.42	29968.22
586.58	29591.39
586.74	29659.27
586.90	29345.64
587.06	29333.93
587.22	29605.44
587.38	29677.99
587.54	29890.98
587.70	29476.71
587.86	29862.90
588.02	29902.68
588.18	29886.30
588.34	29848.85
588.49	29752.89
588.65	29720.12
588.81	29799.70
588.97	30235.04
589.13	30015.03
589.29	29989.28
589.45	29902.68
589.61	29933.11
589.77	30267.81
589.93	29937.79
590.08	30127.38
590.24	30143.76
590.40	29589.05
590.56	29858.21
590.72	29869.92
590.88	29605.44
591.04	29834.81
591.20	30202.27
591.35	30202.27
591.51	30562.72
591.67	30256.11
591.83	30134.40
591.99	29764.59
592.15	30206.95
592.31	30026.73
592.46	30054.82
592.62	29759.91
592.78	30141.42
592.94	30085.25
593.10	30000.99
593.26	30120.35
593.41	29991.62
593.57	30099.29
593.73	29998.65
593.89	30242.06
594.05	30202.27
594.20	30160.14
594.36	30000.99
594.52	30221.00
594.68	29685.01
594.84	30366.11
594.99	29839.49
595.15	30108.65
595.31	30363.77
595.47	30405.90
595.62	30492.50
595.78	30209.29
595.94	29986.94
596.10	30288.87
596.25	30359.09
596.41	29898.00
596.57	30022.05
596.73	29879.28
596.88	30141.42
597.04	30595.48
597.20	30436.33
597.36	30361.43
597.51	30356.75
597.67	30312.28
597.83	30015.03
597.99	30232.70
598.14	30085.25
598.30	30096.95
598.46	30171.85
598.61	30314.62
598.77	29862.90
598.93	30110.99
599.09	30335.68
599.24	30527.61
599.40	30499.52
599.56	30548.67
599.71	30361.43
599.87	30377.81
600.03	29652.25
600.18	30061.84
600.34	30412.92
600.50	30026.73
600.65	30225.68
600.81	30333.34
600.97	30548.67
601.12	30115.67
601.28	29736.51
601.44	30476.12
601.59	30466.75
601.75	30061.84
601.91	30354.41
602.06	30300.58
602.22	30265.47
602.37	30286.53
602.53	30366.11
602.69	30211.64
602.84	30190.57
603.00	30272.49
603.16	30682.08
603.31	30433.99
603.47	30401.22
603.62	30040.78
603.78	30450.37
603.94	30218.66
604.09	30146.10
604.25	30141.42
604.40	29998.65
604.56	30387.18
604.71	30377.81
604.87	30087.59
605.03	30302.92
605.18	30246.74
605.34	30480.80
605.49	29797.36
605.65	30244.40
605.80	29804.38
605.96	30202.27
606.12	30237.38
606.27	29975.24
606.43	30019.71
606.58	30242.06
606.74	30342.70
606.89	30103.97
607.05	30675.06
607.20	30134.40
607.36	30089.93
607.51	30298.23
607.67	29755.23
607.82	30197.59
607.98	29968.22
608.13	29738.85
608.29	29612.46
608.44	30181.21
608.60	30045.46
608.75	29937.79
608.91	30562.72
609.06	29954.18
609.22	30499.52
609.37	29991.62
609.53	30164.82
609.68	30216.32
609.84	29663.95
609.99	30115.67
610.15	29689.70
610.30	29928.43
610.46	29879.28
610.61	30153.12
610.76	29907.37
610.92	29963.54
611.07	29928.43
611.23	29876.94
611.38	29867.58
611.54	29649.91
611.69	29572.67
611.84	29799.70
612.00	29570.33
612.15	29909.71
612.31	30036.09
612.46	29551.60
612.62	29926.09
612.77	29748.21
612.92	30115.67
613.08	29996.31
613.23	29837.15
613.39	29682.67
613.54	29890.98
613.69	29790.34
613.85	29308.19
614.00	29743.53
614.15	29755.23
614.31	29675.65
614.46	29998.65
614.62	30108.65
614.77	29692.04
614.92	29586.71
615.08	29237.97
615.23	29670.97
615.38	29724.80
615.54	29195.84
615.69	29420.53
615.84	29387.77
616.00	29701.40
616.15	29383.09
616.30	29584.37
616.46	29649.91
616.61	29640.54
616.76	29474.37
616.92	29127.97
617.07	29507.13
617.22	29039.03
617.37	29221.59
617.53	29790.34
617.68	29511.81
617.83	29418.19
617.99	29008.60
618.14	28943.06
618.29	29638.20
618.45	29446.28
618.60	29584.37
618.75	29418.19
618.90	29060.09
619.06	29280.10
619.21	29067.11
619.36	29167.76
619.51	29221.59
619.67	29186.48
619.82	29027.32
619.97	28945.41
620.12	29275.42
620.28	28741.78
620.43	28999.24
620.58	29336.27
620.73	29301.17
620.89	28961.79
621.04	29483.73
621.19	29345.64
621.34	29268.40
621.49	28947.75
621.65	28737.10
621.80	29167.76
621.95	28723.05
622.10	28648.16
622.25	28741.78
622.41	28734.76
622.56	28734.76
622.71	28701.99
622.86	28985.19
623.01	28732.42
623.16	28947.75
623.32	28540.49
623.47	28657.52
623.62	29003.92
623.77	28570.92
623.92	28842.42
624.07	28685.61
624.23	28615.39
624.38	28837.74
624.53	28374.31
624.68	28709.01
624.83	28999.24
624.98	28723.05
625.13	28528.79
625.29	28833.06
625.44	28903.28
625.59	28250.27
625.74	28032.60
625.89	28292.40
626.04	28283.03
626.19	28334.53
626.34	28304.10
626.49	28526.45
626.65	28203.46
626.80	28428.15
626.95	28451.55
627.10	28264.31
627.25	28320.48
627.40	28428.15
627.55	28205.80
627.70	28327.50
627.85	28114.52
628.00	28257.29
628.15	27999.83
628.30	27934.29
628.45	28184.73
628.60	28154.30
628.76	28369.63
628.91	28350.91
629.06	27833.65
629.21	28371.97
629.36	28109.83
629.51	27985.79
629.66	27871.10
629.81	27740.03
629.96	27674.49
630.11	27941.32
630.26	27672.15
630.41	27667.47
630.56	27749.39
630.71	27908.55
630.86	27864.08
631.01	28030.26
631.16	27950.68
631.31	27903.87
631.46	27723.65
631.61	27969.40
631.76	27658.11
631.91	27625.34
632.06	27641.73
632.21	27531.72
632.36	27723.65
632.51	27548.11
632.66	27571.51
632.81	27623.00
632.96	28189.41
633.10	27543.42
633.25	27744.71
633.40	27550.45
633.55	27709.60
633.70	27377.25
633.85	27548.11
634.00	27218.09
634.15	27716.62
634.30	27161.92
634.45	27365.54
634.60	27295.33
634.75	27028.51
634.90	27555.13
635.05	27784.50
635.19	27239.15
635.34	27594.92
635.49	27243.84
635.64	27618.32
635.79	27494.27
635.94	27119.79
636.09	27285.97
636.24	27077.66
636.39	27262.56
636.53	27058.93
636.68	27239.15
636.83	27143.19
636.98	27718.96
637.13	27147.87
637.28	27009.78
637.43	27314.05
637.57	27175.96
637.72	27171.28
637.87	27285.97
638.02	27014.46
638.17	27087.02
638.32	27269.58
638.46	26834.24
638.61	26836.58
638.76	26686.79
638.91	26810.84
639.06	26773.39
639.20	26932.54
639.35	26834.24
639.50	26579.12
639.65	27007.44
639.80	27398.31
639.94	26934.88
640.09	26871.69
640.24	26403.58
640.39	26881.05
640.54	26623.59
640.68	26892.76
640.83	26859.99
640.98	26656.36
641.13	26410.60
641.27	26658.70
641.42	26984.04
641.57	26724.24
641.72	26920.84
641.86	26562.74
642.01	26757.00
642.16	26391.88
642.31	26366.13
642.45	26415.29
642.60	26232.72
642.75	26551.04
642.90	26307.62
643.04	26080.59
643.19	26647.00
643.34	26424.65
643.48	26583.80
643.63	26466.78
643.78	26726.58
643.93	26426.99
644.07	26443.37
644.22	26265.49
644.37	26445.71
644.51	26277.19
644.66	26398.90
644.81	26352.09
644.95	25986.97
645.10	26045.48
645.25	26312.30
645.39	25874.62
645.54	26286.56
645.69	26366.13
645.83	26284.22
645.98	26183.57
646.13	26157.83
646.27	26270.17
646.42	26078.25
646.57	26232.72
646.71	26080.59
646.86	26122.72
647.00	26047.82
647.15	25806.75
647.30	25930.80
647.44	25647.59
647.59	26307.62
647.74	26022.08
647.88	25928.45
648.03	26118.04
648.17	26118.04
648.32	26113.36
648.47	26036.12
648.61	25888.67
648.76	25816.11
648.90	25921.43
649.05	25923.77
649.20	25605.46
649.34	25883.98
649.49	25539.93
649.63	25923.77
649.78	25394.81
649.92	25453.33
650.07	25792.70
650.21	25799.73
650.36	25865.26
650.51	25825.47
650.65	25656.95
650.80	25731.85
650.94	25741.21
651.09	25514.18
651.23	25453.33
651.38	25619.50
651.52	25521.20
651.67	25432.26
651.81	25521.20
651.96	25390.13
652.10	25802.07
652.25	25724.83
652.39	25820.79
652.54	25575.03
652.68	25516.52
652.83	25678.02
652.97	25689.72
653.12	25804.41
653.26	25268.42
653.41	25984.63
653.55	25392.47
653.70	25062.46
653.84	25036.71
653.99	25041.39
654.13	25149.06
654.27	25207.57
654.42	25062.46
654.56	25268.42
654.71	25343.32
654.85	25127.99
655.00	25338.64
655.14	25549.29
655.29	25275.45
655.43	25310.55
655.57	25130.33
655.72	24996.92
655.86	24954.79
656.01	25221.61
656.15	24842.45
656.30	24765.21
656.44	24809.68
656.58	24680.95
656.73	24900.96
656.87	24931.39
657.01	25132.67
657.16	24936.07
657.30	24978.20
657.45	24985.22
657.59	25221.61
657.73	25116.29
657.88	25048.41
658.02	24856.49
658.16	24678.61
658.31	24678.61
658.45	24409.45
658.60	24608.39
658.74	24697.33
658.88	24510.09
659.03	24758.19
659.17	24769.89
659.31	24769.89
659.46	24599.03
659.60	24622.44
659.74	24397.74
659.89	24528.81
660.03	24577.97
660.17	24547.54
660.32	24416.47
660.46	24322.85
660.60	24151.99
660.74	23693.24
660.89	24044.32
661.03	23908.57
661.17	24081.77
661.32	24006.87
661.46	24304.12
661.60	24196.46
661.74	24236.25
661.89	24147.31
662.03	24404.77
662.17	24016.24
662.31	23917.93
662.46	24056.03
662.60	23859.42
662.74	23840.70
662.88	23917.93
663.03	23477.91
663.17	23618.35
663.31	23630.05
663.45	23679.20
663.60	23398.34
663.74	23491.96
663.88	23690.90
664.02	23388.97
664.17	24081.77
664.31	23555.15
664.45	23433.44
664.59	23843.04
664.73	23548.13
664.88	23346.84
665.02	23164.28
665.16	23190.03
665.30	23040.23
665.44	23185.35
665.59	23239.18
665.73	23068.32
665.87	23056.62
666.01	22925.55
666.15	23278.97
666.29	23257.90
666.44	23161.94
666.58	22824.90
666.72	23012.15
666.86	22984.06
667.00	23337.48
667.14	23026.19
667.28	22813.20
667.43	22663.41
667.57	22963.00
667.71	22452.76
667.85	22799.16
667.99	22607.23
668.13	22469.14
668.27	22684.47
668.41	22953.63
668.56	22508.93
668.70	22948.95
668.84	22663.41
668.98	22693.83
669.12	22478.50
669.26	22654.05
669.40	22309.99
669.54	22487.87
669.68	22228.07
669.82	21900.39
669.96	22125.08
670.10	21860.60
670.25	22094.66
670.39	22160.19
670.53	22111.04
670.67	22141.47
670.81	22134.45
670.95	21834.86
671.09	22181.26
671.23	22099.34
671.37	21968.27
671.51	22115.72
671.65	22284.24
671.79	21825.50
671.93	21921.46
672.07	21703.79
672.21	21764.64
672.35	21345.69
672.49	21413.56
672.63	21685.06
672.77	21561.02
672.91	21177.17
673.05	21656.98
673.19	21617.19
673.33	21308.24
673.47	21345.69
673.61	21256.75
673.75	21397.18
673.89	21397.18
674.03	21296.53
674.17	21027.37
674.31	20896.30
674.45	21329.30
674.59	21329.30
674.73	21238.02
674.87	20891.62
675.01	20884.60
675.15	20765.23
675.29	20652.89
675.43	20917.37
675.56	20585.01
675.70	20725.44
675.84	20575.65
675.98	20196.48
676.12	20695.02
676.26	20732.47
676.40	20531.18
676.54	20231.59
676.68	20617.78
676.82	20023.28
676.96	20325.21
677.10	19985.83
677.23	20372.02
677.37	20072.43
677.51	20112.22
677.65	19726.04
677.79	19700.29
677.93	19459.21
678.07	19920.30
678.21	19536.45
678.34	19669.86
678.48	19564.54
678.62	19601.99
678.76	19370.27
678.90	19470.92
679.04	19548.15
679.18	19304.74
679.31	19056.64
679.45	19047.28
679.59	18958.34
679.73	19108.13
679.87	19075.37
680.00	18892.80
680.14	18937.27
680.28	18934.93
680.42	18956.00
680.56	18918.55
680.70	18588.53
680.83	18745.35
680.97	18312.35
681.11	18668.11
681.25	18621.30
681.39	18480.87
681.52	18391.93
681.66	18253.84
681.80	18352.14
681.94	18232.77
682.07	18148.51
682.21	18120.43
682.35	17947.23
682.49	17893.40
682.62	17905.10
682.76	18029.15
682.90	17975.31
683.04	17820.84
683.17	18047.87
683.31	17682.75
683.45	17722.54
683.59	17893.40
683.72	17411.25
683.86	17671.04
684.00	17268.47
684.13	17467.42
684.27	17334.01
684.41	17352.73
684.55	17123.36
684.68	17338.69
684.82	16952.50
684.96	16985.27
685.09	17071.87
685.23	17064.85
685.37	17062.51
685.50	17160.81
685.64	16950.16
685.78	16645.89
685.91	16938.46
686.05	16884.62
686.19	16699.72
686.32	16744.19
686.46	16416.52
686.60	16486.73
686.73	16453.97
686.87	16477.37
687.01	16411.84
687.14	16046.71
687.28	16137.99
687.42	15805.64
687.55	16196.51
687.69	15995.22
687.82	16042.03
687.96	16170.76
688.10	15843.09
688.23	15791.59
688.37	15686.27
688.50	15824.36
688.64	15786.91
688.78	15616.05
688.91	15410.09
689.05	15515.41
689.18	15440.51
689.32	15257.95
689.46	15318.81
689.59	15119.86
689.73	15094.11
689.86	15126.88
690.00	15035.60
690.13	15089.43
690.27	14892.83
690.41	15077.73
690.54	15077.73
690.68	15023.90
690.81	15143.27
690.95	14939.64
691.08	14803.89
691.22	14665.80
691.35	14635.37
691.49	14909.21
691.62	14530.05
691.76	14640.05
691.89	14476.21
692.03	14284.29
692.16	14221.10
692.30	14312.38
692.43	14256.20
692.57	14017.47
692.70	14036.19
692.84	13844.27
692.97	13865.33
693.11	13989.38
693.24	13790.44
693.38	13867.67
693.51	14050.24
693.65	13547.02
693.78	13717.88
693.92	13769.37
694.05	13715.54
694.19	13397.23
694.32	13542.34
694.45	13177.22
694.59	13287.22
694.72	13137.43
694.86	13165.51
694.99	13062.53
695.13	13132.75
695.26	12929.12
695.39	13144.45
695.53	13083.59
695.66	13298.92
695.80	12870.61
695.93	12849.54
696.07	12884.65
696.20	12898.69
696.33	12858.90
696.47	12386.12
696.60	12875.29
696.73	12479.74
696.87	12526.55
697.00	12407.18
697.14	12329.94
697.27	12238.66
697.40	12203.55
697.54	12290.15
697.67	12042.06
697.80	12072.48
697.94	12046.74
698.07	11810.34
698.21	11934.39
698.34	11967.16
698.47	11936.73
698.61	11768.21
698.74	11791.62
698.87	11822.05
699.01	11798.64
699.14	11421.81
699.27	11712.04
699.40	11669.91
699.54	11632.46
699.67	11440.54
699.80	11761.19
699.94	11477.99
700.07	11520.12
700.20	11119.89
700.34	11309.47
700.47	11063.71
700.60	11222.87
700.73	11239.25
700.87	11199.46
701.00	11066.05
701.13	10822.64
701.26	10869.45
701.40	11030.94
701.53	10857.75
701.66	10970.09
701.79	10588.58
701.93	10712.63
702.06	10691.57
702.19	10520.71
702.32	10296.02
702.46	10506.66
702.59	10499.64
702.72	10354.53
702.85	10265.59
702.99	10347.51
703.12	10298.36
703.25	10162.61
703.38	10111.11
703.51	10310.06
703.65	10076.01
703.78	9851.31
703.91	10188.35
704.04	10310.06
704.17	9891.10
704.31	10057.28
704.44	9944.94
704.57	9851.31
704.70	9823.23
704.83	9598.54
704.96	9659.39
705.10	9643.01
705.23	9439.38
>>>>>End Processed Spectral Data<<<<<
