SpectraSuite Data File
++++++++++++++++++++++++++++++++++++
Date: Fri Oct 18 13:57:59 GMT-05:00 2013
User: bianchi
Dark Spectrum Present: No
Reference Spectrum Present: No
Number of Sampled Component Spectra: 1
Spectrometers: USB2+H05261
Integration Time (usec): 50000 (USB2+H05261)
Spectra Averaged: 1 (USB2+H05261)
Boxcar Smoothing: 0 (USB2+H05261)
Correct for Electrical Dark: No (USB2+H05261)
Strobe/Lamp Enabled: No (USB2+H05261)
Correct for Detector Non-linearity: No (USB2+H05261)
Correct for Stray Light: No (USB2+H05261)
Number of Pixels in Processed Spectrum: 2048
>>>>>Begin Processed Spectral Data<<<<<
365.73	0.00
365.92	0.00
366.12	0.00
366.32	0.00
366.52	0.00
366.72	0.00
366.91	0.00
367.11	0.00
367.31	0.00
367.51	0.00
367.70	0.00
367.90	0.00
368.10	0.00
368.30	0.00
368.49	0.00
368.69	0.00
368.89	0.00
369.09	0.00
369.28	0.00
369.48	0.00
369.68	0.00
369.87	0.00
370.07	0.00
370.27	0.00
370.47	0.00
370.66	84.26
370.86	126.39
371.06	173.20
371.25	182.56
371.45	187.24
371.65	81.92
371.84	175.54
372.04	107.66
372.24	114.69
372.44	231.71
372.63	177.88
372.83	152.13
373.03	180.22
373.22	166.18
373.42	255.12
373.62	184.90
373.81	187.24
374.01	205.97
374.21	222.35
374.40	229.37
374.60	241.08
374.79	259.80
374.99	259.80
375.19	287.89
375.38	234.05
375.58	252.78
375.78	224.69
375.97	276.18
376.17	234.05
376.37	271.50
376.56	224.69
376.76	241.08
376.95	252.78
377.15	198.95
377.35	220.01
377.54	334.70
377.74	257.46
377.93	264.48
378.13	320.65
378.33	355.76
378.52	276.18
378.72	212.99
378.91	290.23
379.11	360.44
379.31	278.52
379.50	222.35
379.70	252.78
379.89	369.80
380.09	327.68
380.28	367.46
380.48	353.42
380.68	299.59
380.87	390.87
381.07	395.55
381.26	313.63
381.46	353.42
381.65	318.31
381.85	346.40
382.04	344.06
382.24	346.40
382.43	358.10
382.63	322.99
382.83	411.93
383.02	411.93
383.22	428.32
383.41	358.10
383.61	318.31
383.80	397.89
384.00	402.57
384.19	372.15
384.39	299.59
384.58	362.78
384.78	334.70
384.97	376.83
385.17	348.74
385.36	297.25
385.56	381.51
385.75	451.72
385.95	425.98
386.14	400.23
386.34	383.85
386.53	365.12
386.72	414.27
386.92	433.00
387.11	498.53
387.31	395.55
387.50	320.65
387.70	397.89
387.89	416.62
388.09	395.55
388.28	442.36
388.48	491.51
388.67	433.00
388.86	433.00
389.06	449.38
389.25	458.74
389.45	512.58
389.64	496.19
389.84	447.04
390.03	367.46
390.22	425.98
390.42	463.43
390.61	496.19
390.81	507.90
391.00	587.47
391.19	557.05
391.39	498.53
391.58	507.90
391.78	489.17
391.97	507.90
392.16	486.83
392.36	472.79
392.55	580.45
392.75	540.66
392.94	575.77
393.13	479.81
393.33	531.30
393.52	610.88
393.71	645.99
393.91	519.60
394.10	573.43
394.29	594.50
394.49	547.69
394.68	601.52
394.88	592.16
395.07	603.86
395.26	676.41
395.46	620.24
395.65	566.41
395.84	697.48
396.04	674.07
396.23	596.84
396.42	645.99
396.62	664.71
396.81	702.16
397.00	641.31
397.19	697.48
397.39	704.50
397.58	704.50
397.77	601.52
397.97	709.18
398.16	765.36
398.35	758.33
398.55	655.35
398.74	709.18
398.93	748.97
399.12	727.91
399.32	667.05
399.51	737.27
399.70	746.63
399.90	777.06
400.09	748.97
400.28	777.06
400.47	800.46
400.67	835.57
400.86	725.57
401.05	795.78
401.24	795.78
401.44	786.42
401.63	781.74
401.82	805.14
402.01	849.61
402.21	784.08
402.40	894.08
402.59	840.25
402.78	889.40
402.97	863.66
403.17	887.06
403.36	866.00
403.55	999.41
403.74	908.13
403.93	922.17
404.13	854.30
404.32	912.81
404.51	929.19
404.70	957.28
404.89	858.98
405.09	896.43
405.28	978.34
405.47	978.34
405.66	1013.45
405.85	990.05
406.05	961.96
406.24	987.71
406.43	997.07
406.62	1001.75
406.81	1020.47
407.00	1043.88
407.20	992.39
407.39	1018.13
407.58	1071.97
407.77	1139.84
407.96	1144.52
408.15	1022.81
408.34	1097.71
408.54	1069.62
408.73	1006.43
408.92	1181.97
409.11	1137.50
409.30	1165.59
409.49	1217.08
409.68	1158.57
409.87	1214.74
410.07	1219.42
410.26	1149.20
410.45	1252.19
410.64	1254.53
410.83	1238.14
411.02	1294.32
411.21	1224.10
411.40	1282.61
411.59	1299.00
411.78	1329.42
411.98	1270.91
412.17	1315.38
412.36	1306.02
412.55	1451.13
412.74	1322.40
412.93	1362.19
413.12	1306.02
413.31	1458.15
413.50	1434.75
413.69	1507.30
413.88	1479.22
414.07	1530.71
414.26	1472.20
414.45	1542.41
414.64	1500.28
414.83	1575.18
415.02	1533.05
415.22	1582.20
415.41	1551.78
415.60	1614.97
415.79	1504.96
415.98	1629.01
416.17	1692.21
416.36	1549.43
416.55	1558.80
416.74	1629.01
416.93	1593.90
417.12	1809.23
417.31	1802.21
417.50	1785.83
417.69	1727.32
417.88	1788.17
418.07	1678.16
418.26	1753.06
418.45	1811.57
418.64	1816.26
418.83	1891.15
419.02	1753.06
419.21	1844.34
419.39	1790.51
419.58	1867.75
419.77	1905.20
419.96	1905.20
420.15	1919.24
420.34	1886.47
420.53	1856.04
420.72	2015.20
420.91	1919.24
421.10	1940.30
421.29	2003.50
421.48	1952.01
421.67	1956.69
421.86	2038.61
422.05	1994.14
422.24	1959.03
422.43	2024.56
422.61	2008.18
422.80	2090.10
422.99	2108.82
423.18	2064.35
423.37	2066.69
423.56	2118.18
423.75	2087.76
423.94	1989.46
424.13	1898.17
424.32	1842.00
424.50	2090.10
424.69	2059.67
424.88	2099.46
425.07	2054.99
425.26	2059.67
425.45	2118.18
425.64	2050.31
425.83	2090.10
426.01	2092.44
426.20	2073.71
426.39	2122.87
426.58	2099.46
426.77	2108.82
426.96	2176.70
427.15	2188.40
427.33	2235.21
427.52	2153.29
427.71	2307.77
427.90	2246.91
428.09	2310.11
428.28	2279.68
428.46	2321.81
428.65	2293.72
428.84	2354.58
429.03	2338.20
429.22	2352.24
429.40	2232.87
429.59	2338.20
429.78	2113.50
429.97	2195.42
430.16	2282.02
430.34	2394.37
430.53	2370.96
430.72	2335.85
430.91	2382.67
431.10	2443.52
431.28	2448.20
431.47	2431.82
431.66	2612.04
431.85	2370.96
432.03	2403.73
432.22	2576.93
432.41	2370.96
432.60	2476.29
432.79	2544.16
432.97	2476.29
433.16	2614.38
433.35	2511.39
433.54	2560.55
433.72	2640.12
433.91	2516.08
434.10	2487.99
434.28	2541.82
434.47	2532.46
434.66	2621.40
434.85	2689.28
435.03	2705.66
435.22	2537.14
435.41	2785.24
435.59	2747.79
435.78	2818.00
435.97	2647.15
436.16	2724.38
436.34	2775.88
436.53	2738.43
436.72	2829.71
436.90	2708.00
437.09	2789.92
437.28	2640.12
437.46	2698.64
437.65	2841.41
437.84	2747.79
438.02	2853.11
438.21	2806.30
438.40	2895.24
438.58	2869.50
438.77	2935.03
438.96	3000.57
439.14	2993.55
439.33	2967.80
439.52	3073.12
439.70	2939.71
439.89	3049.72
440.08	3089.51
440.26	3194.83
440.45	3255.69
440.63	3288.45
440.82	3124.62
441.01	3035.67
441.19	3148.02
441.38	3297.81
441.57	3403.14
441.75	3421.86
441.94	3365.69
442.12	3201.85
442.31	3403.14
442.50	3325.90
442.68	3384.41
442.87	3431.23
443.05	3288.45
443.24	3377.39
443.43	3449.95
443.61	3346.97
443.80	3611.45
443.98	3445.27
444.17	3424.20
444.35	3557.61
444.54	3531.87
444.73	3461.65
444.91	3531.87
445.10	3396.12
445.28	3485.06
445.47	3384.41
445.65	3506.12
445.84	3585.70
446.02	3632.51
446.21	3637.19
446.39	3503.78
446.58	3665.28
446.77	3674.64
446.95	3499.10
447.14	3686.34
447.32	3679.32
447.51	3641.87
447.69	3588.04
447.88	3662.94
448.06	3574.00
448.25	3583.36
448.43	3613.79
448.62	3449.95
448.80	3620.81
448.99	3789.33
449.17	3639.53
449.36	3815.07
449.54	3772.94
449.73	3782.31
449.91	3789.33
450.10	3847.84
450.28	3833.80
450.46	3765.92
450.65	3889.97
450.83	3824.44
451.02	3801.03
451.20	3971.89
451.39	3852.52
451.57	3892.31
451.76	3829.12
451.94	3801.03
452.13	3810.39
452.31	3953.16
452.49	3920.40
452.68	3922.74
452.86	3929.76
453.05	3962.53
453.23	3990.61
453.42	4014.02
453.60	3887.63
453.78	3988.27
453.97	4058.49
454.15	4056.15
454.34	4095.94
454.52	4051.47
454.70	4086.58
454.89	4046.79
455.07	4074.87
455.26	4070.19
455.44	4142.75
455.62	4367.44
455.81	4091.26
455.99	4189.56
456.17	4318.29
456.36	4418.93
456.54	4191.90
456.73	4269.14
456.91	4535.96
457.09	4348.72
457.28	4425.95
457.46	4470.42
457.64	4479.79
457.83	4362.76
458.01	4587.45
458.19	4461.06
458.38	4425.95
458.56	4557.02
458.74	4571.07
458.93	4423.61
459.11	4524.26
459.29	4564.04
459.48	4503.19
459.66	4568.73
459.84	4711.50
460.03	4788.74
460.21	4613.20
460.39	4592.13
460.57	4461.06
460.76	4765.33
460.94	4596.81
461.12	4760.65
461.31	4755.97
461.49	4774.69
461.67	4678.73
461.85	4891.72
462.04	4741.93
462.22	4915.12
462.40	5025.13
462.59	4847.25
462.77	4861.29
462.95	5088.32
463.13	5006.41
463.32	4910.44
463.50	4915.12
463.68	4938.53
463.86	4926.83
464.05	4875.34
464.23	4884.70
464.41	4938.53
464.59	5064.92
464.78	4917.47
464.96	4983.00
465.14	4971.30
465.32	5004.07
465.50	5074.28
465.69	5193.65
465.87	5132.79
466.05	5142.16
466.23	5137.48
466.41	5128.11
466.60	5310.68
466.78	5076.62
466.96	5114.07
467.14	5008.75
467.32	5263.86
467.51	5362.17
467.69	5097.69
467.87	5338.76
468.05	5238.12
468.23	5270.89
468.41	5153.86
468.60	5338.76
468.78	5394.93
468.96	5338.76
469.14	5453.45
469.32	5448.77
469.50	5336.42
469.69	5458.13
469.87	5441.75
470.05	5558.77
470.23	5607.92
470.41	5516.64
470.59	5511.96
470.77	5481.53
470.95	5614.95
471.14	5654.73
471.32	5458.13
471.50	5806.87
471.68	5792.83
471.86	5834.96
472.04	5853.68
472.22	5940.28
472.40	5659.42
472.58	5760.06
472.77	5858.36
472.95	5944.96
473.13	6164.97
473.31	5966.03
473.49	5872.40
473.67	5935.60
473.85	5947.30
474.03	6202.42
474.21	6115.82
474.39	6328.81
474.57	6370.94
474.75	6251.57
474.93	6211.78
475.12	6396.68
475.30	6349.87
475.48	6431.79
475.66	6340.51
475.84	6237.53
476.02	6490.31
476.20	6494.99
476.38	6480.94
476.56	6581.59
476.74	6609.67
476.92	6651.80
477.10	6712.66
477.28	6738.40
477.46	6644.78
477.64	6860.11
477.82	6796.92
478.00	7052.03
478.18	7087.14
478.36	7192.47
478.54	7211.19
478.72	7183.10
478.90	7386.73
479.08	7550.57
479.26	7274.38
479.44	7386.73
479.62	7463.97
479.80	7487.37
479.98	7829.09
480.16	7646.53
480.34	7700.36
480.52	7833.77
480.70	7833.77
480.88	7735.47
481.06	7866.54
481.24	7824.41
481.41	7943.78
481.59	8063.15
481.77	8051.44
481.95	8194.22
482.13	8238.69
482.31	8381.46
482.49	8421.25
482.67	8479.76
482.85	8549.98
483.03	8608.49
483.21	8557.00
483.39	8826.16
483.57	8854.25
483.74	8856.59
483.92	8833.18
484.10	8823.82
484.28	9121.07
484.46	9301.29
484.64	9331.72
484.82	9022.77
485.00	9317.67
485.18	9554.07
485.35	9533.00
485.53	9469.81
485.71	9490.87
485.89	9816.21
486.07	9858.34
486.25	9668.75
486.43	9937.91
486.61	10178.99
486.78	10235.16
486.96	9984.73
487.14	10394.32
487.32	10155.58
487.50	10565.18
487.68	10429.43
487.85	10420.06
488.03	10743.06
488.21	10614.33
488.39	10857.75
488.57	10902.22
488.75	10682.20
488.92	11124.57
489.10	11077.76
489.28	11103.50
489.46	11503.73
489.64	11506.07
489.81	11564.59
489.99	11646.51
490.17	11658.21
490.35	11859.49
490.53	11910.99
490.70	11754.17
490.88	11847.79
491.06	12013.97
491.24	12098.23
491.41	12187.17
491.59	12210.57
491.77	12294.83
491.95	12430.59
492.13	12458.67
492.30	12430.59
492.48	12819.11
492.66	12685.70
492.84	12606.13
493.01	12697.41
493.19	13001.68
493.37	12957.21
493.54	13034.44
493.72	13362.12
493.90	13090.62
494.08	13310.63
494.25	13516.59
494.43	13399.57
494.61	13465.10
494.79	13638.30
494.96	13696.82
495.14	13703.84
495.32	13898.10
495.49	13846.61
495.67	14120.45
495.85	14108.75
496.02	14221.10
496.20	14211.73
496.38	14406.00
496.55	14331.10
496.73	14562.81
496.91	14602.60
497.09	14787.50
497.26	14668.14
497.44	14513.66
497.62	14813.25
497.79	14906.87
497.97	14728.99
498.14	15253.27
498.32	15309.44
498.50	15192.42
498.67	15552.86
498.85	15208.80
499.03	15229.87
499.20	15311.78
499.38	15517.75
499.56	15646.48
499.73	15470.94
499.91	15721.38
500.08	15932.03
500.26	15756.49
500.44	16025.65
500.61	15843.09
500.79	15887.56
500.97	15903.94
501.14	16194.17
501.32	16589.72
501.49	16229.27
501.67	16390.77
501.84	16322.90
502.02	16297.15
502.20	16465.67
502.37	16587.38
502.55	16325.24
502.72	16947.82
502.90	16437.58
503.07	16552.27
503.25	16603.76
503.43	16643.55
503.60	17046.12
503.78	16847.18
503.95	16989.95
504.13	17078.89
504.30	17153.79
504.48	17156.13
504.65	17207.62
504.83	17429.97
505.01	17568.06
505.18	17392.52
505.36	17500.19
505.53	17490.82
505.71	17458.06
505.88	17584.44
506.06	17284.86
506.23	17734.24
506.41	17727.22
506.58	17675.73
506.76	17804.46
506.93	17738.92
507.11	18092.34
507.28	17872.33
507.46	17804.46
507.63	17937.87
507.81	18246.82
507.98	18085.32
508.16	18120.43
508.33	18045.53
508.50	18424.70
508.68	18506.62
508.85	18595.56
509.03	18618.96
509.20	18764.07
509.38	18948.98
509.55	19028.56
509.73	18614.28
509.90	18986.43
510.08	18539.38
510.25	18803.86
510.42	19185.37
510.60	19215.80
510.77	19206.44
510.95	19103.45
511.12	19190.05
511.30	19101.11
511.47	19337.51
511.64	19164.31
511.82	19829.02
511.99	19192.39
512.17	19384.32
512.34	19311.76
512.51	19730.72
512.69	19655.82
512.86	19531.77
513.04	19878.17
513.21	20109.88
513.38	19873.49
513.56	20065.41
513.73	19915.62
513.90	20222.23
514.08	20102.86
514.25	20362.66
514.43	20327.55
514.60	20395.43
514.77	20056.05
514.95	20376.70
515.12	20140.31
515.29	20357.98
515.47	20465.64
515.64	20716.08
515.81	20538.20
515.99	20526.50
516.16	21090.57
516.33	20727.78
516.51	20847.15
516.68	20634.16
516.85	20793.32
517.03	21102.27
517.20	20900.98
517.37	20971.20
517.54	20964.18
517.72	21074.18
517.89	20893.96
518.06	21301.22
518.24	21191.21
518.41	21198.23
518.58	21338.66
518.75	21516.54
518.93	21453.35
519.10	21273.13
519.27	21614.85
519.45	21418.24
519.62	21603.14
519.79	21422.92
519.96	21764.64
520.14	21949.54
520.31	21954.22
520.48	22085.30
520.65	21881.67
520.83	21872.31
521.00	21874.65
521.17	21661.66
521.34	22211.68
521.52	22427.01
521.69	21919.12
521.86	22473.82
522.03	22520.63
522.20	22260.84
522.38	22242.11
522.55	22555.74
522.72	22244.45
522.89	22237.43
523.07	22757.03
523.24	22209.34
523.41	22473.82
523.58	22347.44
523.75	22773.41
523.92	22527.66
524.10	22841.29
524.27	22965.34
524.44	23110.45
524.61	22845.97
524.78	23136.20
524.96	23049.60
525.13	23276.63
525.30	22918.53
525.47	23173.64
525.64	23180.67
525.81	23403.02
525.98	23318.76
526.16	23276.63
526.33	23396.00
526.50	23686.22
526.67	23372.59
526.84	23147.90
527.01	23201.73
527.18	23541.11
527.36	23157.26
527.53	23740.05
527.70	23800.91
527.87	23999.85
528.04	23768.14
528.21	23728.35
528.38	23906.23
528.55	23861.76
528.72	24041.98
528.89	24070.07
529.07	24144.97
529.24	24025.60
529.41	24325.19
529.58	24086.45
529.75	23861.76
529.92	23864.10
530.09	24128.58
530.26	24194.12
530.43	24552.22
530.60	24191.78
530.77	24245.61
530.94	24526.47
531.11	24416.47
531.28	24084.11
531.46	24423.49
531.63	24629.46
531.80	24713.72
531.97	24744.14
532.14	24964.15
532.31	24758.19
532.48	24489.03
532.65	25067.14
532.82	24540.52
532.99	24720.74
533.16	24477.32
533.33	24968.84
533.50	24840.11
533.67	25371.41
533.84	24797.98
534.01	24727.76
534.18	25174.80
534.35	24985.22
534.52	25238.00
534.69	25394.81
534.86	25317.57
535.03	25188.85
535.20	25242.68
535.37	25387.79
535.54	25476.73
535.71	25144.38
535.88	25486.09
536.05	25345.66
536.22	25216.93
536.38	25762.28
536.55	25523.54
536.72	25752.91
536.89	25558.65
537.06	25713.13
537.23	25764.62
537.40	25769.30
537.57	25942.50
537.74	25769.30
537.91	26253.79
538.08	26129.74
538.25	25764.62
538.42	25886.32
538.59	26033.78
538.75	25743.55
538.92	26108.68
539.09	26272.51
539.26	26235.06
539.43	26010.37
539.60	26272.51
539.77	25982.29
539.94	26331.03
540.11	25963.56
540.28	26366.13
540.44	25963.56
540.61	26132.08
540.78	26096.97
540.95	26452.73
541.12	26209.32
541.29	26710.19
541.46	26316.98
541.62	26253.79
541.79	26759.34
541.96	26398.90
542.13	26457.42
542.30	26672.74
542.47	26771.05
542.63	27005.10
542.80	27044.89
542.97	27147.87
543.14	27152.55
543.31	26871.69
543.48	27288.31
543.64	27459.16
543.81	26911.48
543.98	27213.41
544.15	27236.81
544.32	27604.28
544.48	27625.34
544.65	27227.45
544.82	27307.03
544.99	27208.73
545.16	27264.90
545.32	27108.08
545.49	27601.94
545.66	27426.40
545.83	27620.66
546.00	27920.25
546.16	27679.18
546.33	27613.64
546.50	27009.78
546.67	27559.81
546.83	27342.14
547.00	27428.74
547.17	27810.25
547.34	27548.11
547.50	27845.35
547.67	27957.70
547.84	27667.47
548.00	27597.26
548.17	28011.53
548.34	27889.82
548.51	28037.28
548.67	28109.83
548.84	28271.33
549.01	28137.92
549.18	27754.07
549.34	27859.40
549.51	28180.05
549.68	28100.47
549.84	28091.11
550.01	27784.50
550.18	28137.92
550.34	28135.58
550.51	28489.00
550.68	28599.01
550.84	28056.00
551.01	28144.94
551.18	28135.58
551.34	28339.21
551.51	28512.41
551.68	28374.31
551.84	28456.23
552.01	28226.86
552.18	28624.75
552.34	28706.67
552.51	28430.49
552.68	28428.15
552.84	28718.37
553.01	28826.04
553.18	28669.22
553.34	28531.13
553.51	28811.99
553.67	29013.28
553.84	28849.44
554.01	29174.78
554.17	29118.60
554.34	28975.83
554.51	28393.04
554.67	28790.93
554.84	28985.19
555.00	28809.65
555.17	29205.20
555.33	29273.08
555.50	29127.97
555.67	29092.86
555.83	28914.98
556.00	28952.43
556.16	29228.61
556.33	28952.43
556.50	28971.15
556.66	29212.23
556.83	28950.09
556.99	29179.46
557.16	29015.62
557.32	29369.04
557.49	29179.46
557.65	29146.69
557.82	29134.99
557.98	29067.11
558.15	29376.06
558.32	29287.12
558.48	29457.98
558.65	29462.66
558.81	29357.34
558.98	29483.73
559.14	29326.91
559.31	29467.34
559.47	29472.03
559.64	29436.92
559.80	29755.23
559.97	29919.07
560.13	29369.04
560.30	29654.59
560.46	29717.78
560.63	29722.46
560.79	29631.18
560.96	29687.36
561.12	29804.38
561.29	29633.52
561.45	29429.90
561.61	29593.73
561.78	29518.84
561.94	29790.34
562.11	29745.87
562.27	29624.16
562.44	29685.01
562.60	29635.86
562.77	29839.49
562.93	29596.07
563.10	29811.40
563.26	29773.95
563.42	30188.23
563.59	29750.55
563.75	30015.03
563.92	29862.90
564.08	29841.83
564.24	29823.11
564.41	29813.74
564.57	29762.25
564.74	29914.39
564.90	29998.65
565.07	30279.51
565.23	30249.08
565.39	29818.42
565.56	30244.40
565.72	30017.37
565.88	30082.91
566.05	29865.24
566.21	29926.09
566.38	30110.99
566.54	30328.66
566.70	30473.78
566.87	30476.12
567.03	30080.56
567.19	30363.77
567.36	30022.05
567.52	30045.46
567.68	30181.21
567.85	30115.67
568.01	30244.40
568.17	29886.30
568.34	30024.39
568.50	30424.62
568.66	30132.06
568.83	30644.63
568.99	29984.60
569.15	30237.38
569.32	30169.51
569.48	30026.73
569.64	30326.32
569.81	30335.68
569.97	30132.06
570.13	30178.87
570.30	30361.43
570.46	30462.07
570.62	30426.96
570.78	30263.13
570.95	30242.06
571.11	30326.32
571.27	30389.52
571.43	30157.80
571.60	30457.39
571.76	30136.74
571.92	30342.70
572.09	30614.21
572.25	30574.42
572.41	30405.90
572.57	30836.56
572.74	30368.45
572.90	30307.60
573.06	30396.54
573.22	30387.18
573.38	30679.74
573.55	30494.84
573.71	30899.75
573.87	30675.06
574.03	30239.72
574.20	30380.15
574.36	30118.01
574.52	30595.48
574.68	30433.99
574.84	31000.40
575.01	30328.66
575.17	30466.75
575.33	30593.14
575.49	30497.18
575.65	31075.29
575.82	30513.56
575.98	30712.51
576.14	30850.60
576.30	30553.35
576.46	30342.70
576.62	30487.82
576.79	30426.96
576.95	30565.06
577.11	30593.14
577.27	30639.95
577.43	30831.88
577.59	30712.51
577.75	30543.99
577.92	30551.01
578.08	30122.69
578.24	30682.08
578.40	30768.68
578.56	30607.19
578.72	30888.05
578.88	30703.15
579.04	30881.03
579.21	31042.53
579.37	30927.84
579.53	30595.48
579.69	30801.45
579.85	30677.40
580.01	30614.21
580.17	30703.15
580.33	30740.60
580.49	30792.09
580.65	30930.18
580.82	30923.16
580.98	30824.86
581.14	30551.01
581.30	30820.17
581.46	30771.02
581.62	30756.98
581.78	30593.14
581.94	30841.24
582.10	30574.42
582.26	30960.61
582.42	31040.18
582.58	31262.54
582.74	31087.00
582.90	30852.94
583.06	30764.00
583.22	30785.07
583.38	30691.44
583.54	30771.02
583.70	30682.08
583.86	30794.43
584.02	30543.99
584.18	30471.43
584.34	30892.73
584.50	30785.07
584.66	30831.88
584.82	30808.47
584.98	31009.76
585.14	30766.34
585.30	30476.12
585.46	30972.31
585.62	30536.97
585.78	30684.42
585.94	30541.65
586.10	31096.36
586.26	31213.38
586.42	31033.16
586.58	30946.56
586.74	30785.07
586.90	30857.62
587.06	30712.51
587.22	30787.41
587.38	30771.02
587.54	31005.08
587.70	31126.78
587.86	31077.63
588.02	31220.41
588.18	31267.22
588.34	30998.06
588.49	30988.69
588.65	31021.46
588.81	30642.29
588.97	31147.85
589.13	30742.94
589.29	30871.67
589.45	31363.18
589.61	31391.26
589.77	31262.54
589.93	31077.63
590.08	31515.31
590.24	31569.15
590.40	31185.30
590.56	31470.84
590.72	30988.69
590.88	30881.03
591.04	31108.06
591.20	31262.54
591.35	31688.51
591.51	31681.49
591.67	31157.21
591.83	31316.37
591.99	31108.06
592.15	31232.11
592.31	31292.96
592.46	31168.91
592.62	31117.42
592.78	31154.87
592.94	30892.73
593.10	31339.77
593.26	31398.29
593.41	30953.58
593.57	31243.81
593.73	31115.08
593.89	31325.73
594.05	31182.96
594.20	31402.97
594.36	31028.48
594.52	31405.31
594.68	31494.25
594.84	31342.11
594.99	31257.85
595.15	31548.08
595.31	31309.35
595.47	31290.62
595.62	31569.15
595.78	31557.44
595.94	31634.68
596.10	31405.31
596.25	31072.95
596.41	31330.41
596.57	31154.87
596.73	31583.19
596.88	30885.71
597.04	31400.63
597.20	31840.65
597.36	31517.65
597.51	31903.84
597.67	31393.61
597.83	31096.36
597.99	31475.52
598.14	31318.71
598.30	31159.55
598.46	31400.63
598.61	31316.37
598.77	31206.36
598.93	31438.08
599.09	32023.21
599.24	31789.16
599.40	31529.36
599.56	31611.28
599.71	31761.07
599.87	31702.56
600.03	31311.69
600.18	31449.78
600.34	31386.58
600.50	31030.82
600.65	31690.85
600.81	31880.44
600.97	31969.38
601.12	31864.05
601.28	31508.29
601.44	31728.30
601.59	31578.51
601.75	31218.07
601.91	31344.45
602.06	31307.01
602.22	31143.17
602.37	31620.64
602.53	31505.95
602.69	31573.83
602.84	31894.48
603.00	31379.56
603.16	31934.27
603.31	31725.96
603.47	31599.57
603.62	31166.57
603.78	31564.46
603.94	31075.29
604.09	31239.13
604.25	31346.79
604.40	31061.25
604.56	31519.99
604.71	31695.53
604.87	31714.26
605.03	31318.71
605.18	31810.22
605.34	31386.58
605.49	31288.28
605.65	31468.50
605.80	31079.97
605.96	31365.52
606.12	31316.37
606.27	31157.21
606.43	31136.15
606.58	31749.37
606.74	31545.74
606.89	31644.04
607.05	31931.93
607.20	31615.96
607.36	31498.93
607.51	31454.46
607.67	31150.19
607.82	31438.08
607.98	31587.87
608.13	31131.47
608.29	31421.69
608.44	31182.96
608.60	31508.29
608.75	31690.85
608.91	31292.96
609.06	31232.11
609.22	31775.11
609.37	30946.56
609.53	31119.76
609.68	31119.76
609.84	31028.48
609.99	31307.01
610.15	30923.16
610.30	31094.02
610.46	31339.77
610.61	31194.66
610.76	31108.06
610.92	31161.89
611.07	31192.32
611.23	31204.02
611.38	31304.67
611.54	31152.53
611.69	31028.48
611.84	30876.35
612.00	31000.40
612.15	30834.22
612.31	31269.56
612.46	31012.10
612.62	30993.37
612.77	31110.40
612.92	30855.28
613.08	31007.42
613.23	30511.22
613.39	30969.97
613.54	30904.43
613.69	30670.38
613.85	30586.12
614.00	30735.92
614.15	30951.24
614.31	30981.67
614.46	31035.50
614.62	31075.29
614.77	31342.11
614.92	30972.31
615.08	31105.72
615.23	30890.39
615.38	30981.67
615.54	30789.75
615.69	31021.46
615.84	30817.83
616.00	30796.77
616.15	30672.72
616.30	30939.54
616.46	31028.48
616.61	30845.92
616.76	30892.73
616.92	30761.66
617.07	30756.98
617.22	30904.43
617.37	30321.64
617.53	30518.25
617.68	30232.70
617.83	30586.12
617.99	30607.19
618.14	30857.62
618.29	30497.18
618.45	30401.22
618.60	31023.80
618.75	30614.21
618.90	30471.43
619.06	30508.88
619.21	30635.27
619.36	30478.46
619.51	30703.15
619.67	30122.69
619.82	30345.05
619.97	30134.40
620.12	30553.35
620.28	30457.39
620.43	30443.35
620.58	30382.49
620.73	30618.89
620.89	30206.95
621.04	30682.08
621.19	30459.73
621.34	30185.89
621.49	30059.50
621.65	30174.19
621.80	29900.34
621.95	29797.36
622.10	30157.80
622.25	29755.23
622.41	30033.75
622.56	30279.51
622.71	30284.19
622.86	29998.65
623.01	30024.39
623.16	30237.38
623.32	29795.02
623.47	30073.54
623.62	30082.91
623.77	29991.62
623.92	29848.85
624.07	29923.75
624.23	29605.44
624.38	30078.22
624.53	29839.49
624.68	30162.48
624.83	30082.91
624.98	29825.45
625.13	30157.80
625.29	29928.43
625.44	29860.55
625.59	29565.65
625.74	29586.71
625.89	29654.59
626.04	29986.94
626.19	29706.08
626.34	29619.48
626.49	29612.46
626.65	29525.86
626.80	29560.97
626.95	29666.29
627.10	29521.18
627.25	29476.71
627.40	29326.91
627.55	29034.35
627.70	29069.45
627.85	29591.39
628.00	29261.38
628.15	29074.13
628.30	29104.56
628.45	29326.91
628.60	29586.71
628.76	29542.24
628.91	29228.61
629.06	29158.39
629.21	29614.80
629.36	29383.09
629.51	29366.70
629.66	29425.22
629.81	29340.96
629.96	29411.17
630.11	28926.68
630.26	29067.11
630.41	28870.51
630.56	28910.30
630.71	29020.30
630.86	28879.87
631.01	28877.53
631.16	28699.65
631.31	28858.81
631.46	28589.64
631.61	29160.73
631.76	29039.03
631.91	29324.57
632.06	28673.90
632.21	28643.48
632.36	28716.03
632.51	28491.34
632.66	28999.24
632.81	28835.40
632.96	28783.91
633.10	29055.41
633.25	29198.18
633.40	29104.56
633.55	28622.41
633.70	28936.04
633.85	28432.83
634.00	28744.12
634.15	28720.71
634.30	28662.20
634.45	28584.96
634.60	28711.35
634.75	28339.21
634.90	28189.41
635.05	28673.90
635.19	28629.43
635.34	28807.31
635.49	28912.64
635.64	28549.85
635.79	28741.78
635.94	28467.94
636.09	28388.36
636.24	28240.90
636.39	28189.41
636.53	28278.35
636.68	28294.74
636.83	28606.03
636.98	28339.21
637.13	28362.61
637.28	28814.34
637.43	28781.57
637.57	28383.68
637.72	28484.32
637.87	28542.83
638.02	28369.63
638.17	28238.56
638.32	28027.92
638.46	28245.58
638.61	27929.61
638.76	28219.84
638.91	27899.19
639.06	28212.82
639.20	28098.13
639.35	28126.22
639.50	28086.43
639.65	28367.29
639.80	27910.89
639.94	28151.96
640.09	28233.88
640.24	28173.03
640.39	28086.43
640.54	28196.43
640.68	27679.18
640.83	27714.28
640.98	27742.37
641.13	27828.97
641.27	27896.85
641.42	27861.74
641.57	27927.27
641.72	28109.83
641.86	27948.34
642.01	27749.39
642.16	27765.78
642.31	27674.49
642.45	27402.99
642.60	27861.74
642.75	27646.41
642.90	27653.43
643.04	27662.79
643.19	27344.48
643.34	27725.99
643.48	27063.61
643.63	27747.05
643.78	27468.53
643.93	27665.13
644.07	27461.51
644.22	27803.22
644.37	27599.60
644.51	27810.25
644.66	27662.79
644.81	27412.35
644.95	27307.03
645.10	27384.27
645.25	27342.14
645.39	27367.88
645.54	27206.39
645.69	27828.97
645.83	27349.16
645.98	27346.82
646.13	27328.10
646.27	27566.83
646.42	27594.92
646.57	27239.15
646.71	27154.90
646.86	27094.04
647.00	27311.71
647.15	26843.60
647.30	27433.42
647.44	27063.61
647.59	27051.91
647.74	26883.39
647.88	27112.77
648.03	27304.69
648.17	27122.13
648.32	27232.13
648.47	27182.98
648.61	27278.94
648.76	27281.28
648.90	27421.72
649.05	27108.08
649.20	26874.03
649.34	26780.41
649.49	26642.32
649.63	26682.11
649.78	26354.43
649.92	26572.10
650.07	27129.15
650.21	27023.83
650.36	27072.98
650.51	26817.86
650.65	26878.71
650.80	27058.93
650.94	26965.31
651.09	26827.22
651.23	26848.29
651.38	26710.19
651.52	26670.40
651.67	26754.66
651.81	26974.67
651.96	26679.77
652.10	26340.39
652.25	26689.13
652.39	26897.44
652.54	26703.17
652.68	26712.53
652.83	26625.93
652.97	26801.47
653.12	26834.24
653.26	26237.41
653.41	26391.88
653.55	26560.40
653.70	26485.50
653.84	26246.77
653.99	26518.27
654.13	26520.61
654.27	26342.73
654.42	26583.80
654.56	26345.07
654.71	26361.45
654.85	26555.72
655.00	26586.15
655.14	26195.28
655.29	26412.95
655.43	26127.40
655.57	26132.08
655.72	25867.60
655.86	26368.48
656.01	26333.37
656.15	26382.52
656.30	26143.78
656.44	25998.67
656.58	25919.09
656.73	25853.56
656.87	26529.97
657.01	25961.22
657.16	26178.89
657.30	25823.13
657.45	26174.21
657.59	25902.71
657.73	25935.48
657.88	25984.63
658.02	26017.40
658.16	25935.48
658.31	25722.49
658.45	25647.59
658.60	26043.14
658.74	25869.94
658.88	25951.86
659.03	25322.26
659.17	25778.66
659.31	25701.42
659.46	25582.06
659.60	25818.45
659.74	25537.59
659.89	25362.04
660.03	25855.90
660.17	25692.06
660.32	25504.82
660.46	25495.46
660.60	25294.17
660.74	25127.99
660.89	25607.80
661.03	25153.74
661.17	25345.66
661.32	25291.83
661.46	25008.62
661.60	25390.13
661.74	25455.67
661.89	25427.58
662.03	24954.79
662.17	24886.92
662.31	25205.23
662.46	25118.63
662.60	25268.42
662.74	25095.22
662.88	24847.13
663.03	24587.33
663.17	24645.84
663.31	24603.71
663.45	24568.60
663.60	25041.39
663.74	24596.69
663.88	24718.40
664.02	24589.67
664.17	25020.33
664.31	24486.68
664.45	24549.88
664.59	24734.78
664.73	24533.50
664.88	24273.70
665.02	24287.74
665.16	24208.16
665.30	24357.96
665.44	24126.24
665.59	24030.28
665.73	23850.06
665.87	23866.44
666.01	23861.76
666.15	23934.32
666.29	23999.85
666.44	24034.96
666.58	24063.05
666.72	24210.50
666.86	23817.29
667.00	23871.12
667.14	24161.35
667.28	24264.33
667.43	23939.00
667.57	23700.26
667.71	23917.93
667.85	23723.67
667.99	23730.69
668.13	23580.90
668.27	23644.09
668.41	23845.38
668.56	23353.87
668.70	23831.33
668.84	24041.98
668.98	23761.12
669.12	23709.63
669.26	23655.79
669.40	23585.58
669.54	23300.03
669.68	23321.10
669.82	23014.49
669.96	23274.29
670.10	23133.86
670.25	23241.52
670.39	23087.04
670.53	23103.43
670.67	23075.34
670.81	22871.72
670.95	23168.96
671.09	22719.58
671.23	22836.61
671.37	22843.63
671.51	23023.85
671.65	22930.23
671.79	22890.44
671.93	22670.43
672.07	22782.77
672.21	22778.09
672.35	22494.89
672.49	22415.31
672.63	22473.82
672.77	22546.38
672.91	22490.21
673.05	22562.76
673.19	22085.30
673.33	22192.96
673.47	22251.47
673.61	22588.51
673.75	22380.20
673.89	22349.78
674.03	22253.81
674.17	22218.71
674.31	21848.90
674.45	21893.37
674.59	21818.47
674.73	22022.10
674.87	22012.74
675.01	21577.40
675.15	22005.72
675.29	21451.01
675.43	21888.69
675.56	21549.31
675.70	21259.09
675.84	21565.70
675.98	21020.35
676.12	21429.94
676.26	21886.35
676.40	21359.73
676.54	21656.98
676.68	21479.10
676.82	20985.24
676.96	21174.83
677.10	20966.52
677.23	21020.35
677.37	20697.36
677.51	20727.78
677.65	21029.71
677.79	20795.66
677.93	20835.45
678.07	20531.18
678.21	20463.30
678.34	20695.02
678.48	20430.54
678.62	20346.28
678.76	20247.97
678.90	20130.95
679.04	20133.29
679.18	20074.77
679.31	20091.16
679.45	19824.34
679.59	19489.64
679.73	19892.21
679.87	19604.33
680.00	19845.40
680.14	19857.10
680.28	19943.70
680.42	19807.95
680.56	19428.79
680.70	19499.00
680.83	19768.16
680.97	19702.63
681.11	19618.37
681.25	19513.05
681.39	19379.64
681.52	19379.64
681.66	19197.07
681.80	19047.28
681.94	18970.04
682.07	19047.28
682.21	19131.54
682.35	18778.12
682.49	18487.89
682.62	18752.37
682.76	18920.89
682.90	18925.57
683.04	18951.32
683.17	18700.88
683.31	18782.80
683.45	18792.16
683.59	18373.21
683.72	18356.82
683.86	18279.58
684.00	18111.07
684.13	18424.70
684.27	18090.00
684.41	18050.21
684.55	17841.90
684.68	17727.22
684.82	17561.04
684.96	17708.49
685.09	18104.04
685.23	17652.32
685.37	17329.33
685.50	17717.86
685.64	17664.02
685.78	17816.16
685.91	17619.55
686.05	17511.89
686.19	17132.72
686.32	17530.61
686.46	17249.75
686.60	17233.36
686.73	17085.91
686.87	16992.29
687.01	17085.91
687.14	16718.45
687.28	17111.66
687.42	16580.36
687.55	16723.13
687.69	16877.60
687.82	16491.41
687.96	16989.95
688.10	16704.40
688.23	16716.11
688.37	16475.03
688.50	16528.86
688.64	16456.31
688.78	16400.13
688.91	16203.53
689.05	16081.82
689.18	16137.99
689.32	15873.51
689.46	15915.64
689.59	15971.82
689.73	15903.94
689.86	15758.83
690.00	15667.55
690.13	15899.26
690.27	15742.44
690.41	15646.48
690.54	15850.11
690.68	15775.21
690.81	15648.82
690.95	15634.78
691.08	15592.65
691.22	15576.27
691.35	15269.66
691.49	15573.92
691.62	15122.20
691.76	14691.54
691.89	15192.42
692.03	15115.18
692.16	14778.14
692.30	14738.35
692.43	14569.83
692.57	15103.48
692.70	15051.99
692.84	14787.50
692.97	14724.31
693.11	14754.74
693.24	14951.34
693.38	14462.17
693.51	14527.71
693.65	14256.20
693.78	14270.25
693.92	14363.87
694.05	14284.29
694.19	14218.75
694.32	14160.24
694.45	13923.85
694.59	14040.87
694.72	13923.85
694.86	13633.62
694.99	13675.75
695.13	13626.60
695.26	13383.18
695.39	13586.81
695.53	13521.27
695.66	13710.86
695.80	13551.70
695.93	13518.93
696.07	13701.50
696.20	13434.68
696.33	13589.15
696.47	13483.83
696.60	13233.39
696.73	13165.51
696.87	13331.69
697.00	13067.21
697.14	13039.12
697.27	12603.78
697.40	12760.60
697.54	12910.40
697.67	12657.62
697.80	12737.20
697.94	12484.42
698.07	12795.71
698.21	12568.68
698.34	12601.44
698.47	12674.00
698.61	12276.11
698.74	12566.34
698.87	12531.23
699.01	12372.07
699.14	12313.56
699.27	12208.23
699.40	12266.75
699.54	12219.94
699.67	12154.40
699.80	12107.59
699.94	12060.78
700.07	11700.34
700.20	11903.96
700.34	11719.06
700.47	11672.25
700.60	11777.58
700.73	11765.87
700.87	11667.57
701.00	11564.59
701.13	11477.99
701.26	11534.16
701.40	11786.94
701.53	11321.17
701.66	11571.61
701.79	11297.77
701.93	11379.68
702.06	11178.40
702.19	11040.31
702.32	11218.19
702.46	10963.07
702.59	11077.76
702.72	10834.34
702.85	10883.49
702.99	10848.38
703.12	10789.87
703.25	10581.56
703.38	10696.25
703.51	10630.71
703.65	10771.15
703.78	10516.03
703.91	10565.18
704.04	10506.66
704.17	10516.03
704.31	10480.92
704.44	10410.70
704.57	10174.31
704.70	10143.88
704.83	10108.77
704.96	9970.68
705.10	10202.40
705.23	9886.42
>>>>>End Processed Spectral Data<<<<<
