SpectraSuite Data File
++++++++++++++++++++++++++++++++++++
Date: Fri Oct 18 13:57:56 GMT-05:00 2013
User: bianchi
Dark Spectrum Present: No
Reference Spectrum Present: No
Number of Sampled Component Spectra: 1
Spectrometers: USB2+H05261
Integration Time (usec): 50000 (USB2+H05261)
Spectra Averaged: 1 (USB2+H05261)
Boxcar Smoothing: 0 (USB2+H05261)
Correct for Electrical Dark: No (USB2+H05261)
Strobe/Lamp Enabled: No (USB2+H05261)
Correct for Detector Non-linearity: No (USB2+H05261)
Correct for Stray Light: No (USB2+H05261)
Number of Pixels in Processed Spectrum: 2048
>>>>>Begin Processed Spectral Data<<<<<
365.73	0.00
365.92	0.00
366.12	0.00
366.32	0.00
366.52	0.00
366.72	0.00
366.91	0.00
367.11	0.00
367.31	0.00
367.51	0.00
367.70	0.00
367.90	0.00
368.10	0.00
368.30	0.00
368.49	0.00
368.69	0.00
368.89	0.00
369.09	0.00
369.28	0.00
369.48	0.00
369.68	0.00
369.87	0.00
370.07	0.00
370.27	0.00
370.47	0.00
370.66	95.96
370.86	142.77
371.06	117.03
371.25	133.41
371.45	205.97
371.65	74.90
371.84	126.39
372.04	100.64
372.24	187.24
372.44	210.65
372.63	159.16
372.83	280.86
373.03	189.58
373.22	224.69
373.42	231.71
373.62	196.60
373.81	308.95
374.01	205.97
374.21	182.56
374.40	236.39
374.60	241.08
374.79	184.90
374.99	170.86
375.19	245.76
375.38	271.50
375.58	299.59
375.78	224.69
375.97	234.05
376.17	367.46
376.37	266.82
376.56	245.76
376.76	341.72
376.95	264.48
377.15	273.84
377.35	313.63
377.54	229.37
377.74	285.55
377.93	212.99
378.13	201.29
378.33	264.48
378.52	252.78
378.72	273.84
378.91	283.20
379.11	337.04
379.31	269.16
379.50	297.25
379.70	334.70
379.89	330.02
380.09	358.10
380.28	315.97
380.48	327.68
380.68	273.84
380.87	280.86
381.07	297.25
381.26	353.42
381.46	311.29
381.65	318.31
381.85	297.25
382.04	372.15
382.24	358.10
382.43	360.44
382.63	337.04
382.83	409.59
383.02	339.38
383.22	278.52
383.41	318.31
383.61	344.06
383.80	390.87
384.00	348.74
384.19	376.83
384.39	374.49
384.58	355.76
384.78	376.83
384.97	337.04
385.17	376.83
385.36	386.19
385.56	390.87
385.75	374.49
385.95	386.19
386.14	435.34
386.34	362.78
386.53	404.91
386.72	409.59
386.92	451.72
387.11	416.62
387.31	414.27
387.50	468.11
387.70	407.25
387.89	395.55
388.09	435.34
388.28	468.11
388.48	423.64
388.67	423.64
388.86	491.51
389.06	435.34
389.25	451.72
389.45	468.11
389.64	458.74
389.84	484.49
390.03	489.17
390.22	402.57
390.42	505.56
390.61	395.55
390.81	503.22
391.00	507.90
391.19	503.22
391.39	587.47
391.58	559.39
391.78	564.07
391.97	552.37
392.16	552.37
392.36	517.26
392.55	528.96
392.75	554.71
392.94	631.94
393.13	538.32
393.33	486.83
393.52	613.22
393.71	543.00
393.91	575.77
394.10	589.82
394.29	587.47
394.49	557.05
394.68	582.79
394.88	594.50
395.07	641.31
395.26	657.69
395.46	645.99
395.65	601.52
395.84	624.92
396.04	718.54
396.23	650.67
396.42	662.37
396.62	683.44
396.81	702.16
397.00	657.69
397.19	674.07
397.39	667.05
397.58	678.76
397.77	681.10
397.97	629.60
398.16	720.88
398.35	786.42
398.55	765.36
398.74	706.84
398.93	636.63
399.12	709.18
399.32	781.74
399.51	713.86
399.70	814.51
399.90	720.88
400.09	814.51
400.28	751.31
400.47	734.93
400.67	840.25
400.86	847.27
401.05	763.01
401.24	851.96
401.44	791.10
401.63	798.12
401.82	809.83
402.01	798.12
402.21	851.96
402.40	798.12
402.59	784.08
402.78	873.02
402.97	858.98
403.17	905.79
403.36	912.81
403.55	908.13
403.74	870.68
403.93	922.17
404.13	901.11
404.32	959.62
404.51	891.74
404.70	971.32
404.89	901.11
405.09	943.24
405.28	924.51
405.47	973.66
405.66	1001.75
405.85	1032.18
406.05	1041.54
406.24	1029.84
406.43	961.96
406.62	1043.88
406.81	1074.31
407.00	999.41
407.20	1078.99
407.39	1006.43
407.58	1067.28
407.77	1086.01
407.96	1160.91
408.15	1083.67
408.34	1090.69
408.54	1116.44
408.73	1081.33
408.92	1121.12
409.11	1196.01
409.30	1188.99
409.49	1137.50
409.68	1172.61
409.87	1163.25
410.07	1214.74
410.26	1226.44
410.45	1294.32
410.64	1179.63
410.83	1217.08
411.02	1254.53
411.21	1270.91
411.40	1275.59
411.59	1207.72
411.78	1277.93
411.98	1181.97
412.17	1378.58
412.36	1291.98
412.55	1390.28
412.74	1310.70
412.93	1401.98
413.12	1364.53
413.31	1451.13
413.50	1397.30
413.69	1418.36
413.88	1446.45
414.07	1589.22
414.26	1465.18
414.45	1448.79
414.64	1462.83
414.83	1533.05
415.02	1497.94
415.22	1526.03
415.41	1479.22
415.60	1509.65
415.79	1626.67
415.98	1607.95
416.17	1760.08
416.36	1689.87
416.55	1675.82
416.74	1664.12
416.93	1743.70
417.12	1696.89
417.31	1614.97
417.50	1724.97
417.69	1825.62
417.88	1701.57
418.07	1771.79
418.26	1769.44
418.45	1764.76
418.64	1774.13
418.83	1760.08
419.02	1820.94
419.21	1827.96
419.39	1877.11
419.58	1863.07
419.77	1809.23
419.96	1905.20
420.15	1935.62
420.34	1813.92
420.53	1830.30
420.72	1956.69
420.91	1919.24
421.10	2040.95
421.29	1998.82
421.48	1937.96
421.67	1898.17
421.86	2029.24
422.05	1998.82
422.24	1994.14
422.43	1987.11
422.61	2085.42
422.80	2071.37
422.99	2108.82
423.18	2050.31
423.37	2003.50
423.56	2115.84
423.75	2069.03
423.94	1991.80
424.13	1905.20
424.32	1970.73
424.50	2026.90
424.69	2050.31
424.88	2029.24
425.07	2153.29
425.26	2052.65
425.45	2008.18
425.64	2087.76
425.83	2024.56
426.01	2122.87
426.20	2043.29
426.39	2157.97
426.58	2057.33
426.77	2071.37
426.96	2104.14
427.15	2200.10
427.33	2200.10
427.52	2129.89
427.71	2115.84
427.90	2204.78
428.09	2284.36
428.28	2230.53
428.46	2188.40
428.65	2197.76
428.84	2179.04
429.03	2174.36
429.22	2183.72
429.40	2256.28
429.59	2303.09
429.78	2242.23
429.97	2251.60
430.16	2300.75
430.34	2368.62
430.53	2338.20
430.72	2363.94
430.91	2354.58
431.10	2366.28
431.28	2370.96
431.47	2509.05
431.66	2394.37
431.85	2424.80
432.03	2406.07
432.22	2600.34
432.41	2413.09
432.60	2656.51
432.79	2497.35
432.97	2455.22
433.16	2560.55
433.35	2539.48
433.54	2516.08
433.72	2644.81
433.91	2506.71
434.10	2553.52
434.28	2661.19
434.47	2635.44
434.66	2708.00
434.85	2565.23
435.03	2593.31
435.22	2621.40
435.41	2649.49
435.59	2677.57
435.78	2619.06
435.97	2626.08
436.16	2565.23
436.34	2855.45
436.53	2785.24
436.72	2736.09
436.90	2773.53
437.09	2754.81
437.28	2607.36
437.46	2766.51
437.65	2810.98
437.84	2839.07
438.02	2806.30
438.21	2827.37
438.40	2853.11
438.58	2862.48
438.77	2939.71
438.96	2930.35
439.14	3038.02
439.33	3021.63
439.52	3016.95
439.70	3038.02
439.89	2991.20
440.08	2949.08
440.26	3026.31
440.45	3126.96
440.63	3183.13
440.82	3251.00
441.01	3213.56
441.19	3059.08
441.38	3225.26
441.57	3222.92
441.75	3218.24
441.94	3332.92
442.12	3332.92
442.31	3358.67
442.50	3365.69
442.68	3356.33
442.87	3405.48
443.05	3337.60
443.24	3353.99
443.43	3449.95
443.61	3447.61
443.80	3609.11
443.98	3368.03
444.17	3344.63
444.35	3534.21
444.54	3611.45
444.73	3581.02
444.91	3494.42
445.10	3449.95
445.28	3536.55
445.47	3536.55
445.65	3471.01
445.84	3557.61
446.02	3625.49
446.21	3522.51
446.39	3463.99
446.58	3543.57
446.77	3616.13
446.95	3576.34
447.14	3562.30
447.32	3550.59
447.51	3543.57
447.69	3452.29
447.88	3499.10
448.06	3660.60
448.25	3548.25
448.43	3648.90
448.62	3510.80
448.80	3693.37
448.99	3585.70
449.17	3618.47
449.36	3632.51
449.54	3779.97
449.73	3777.62
449.91	3728.47
450.10	3660.60
450.28	3896.99
450.46	3775.28
450.65	3866.56
450.83	3730.81
451.02	3873.59
451.20	3906.35
451.39	3836.14
451.57	3801.03
451.76	3899.33
451.94	3847.84
452.13	3964.87
452.31	3981.25
452.49	3983.59
452.68	4018.70
452.86	3845.50
453.05	3953.16
453.23	4007.00
453.42	3976.57
453.60	3852.52
453.78	3992.95
453.97	3894.65
454.15	4091.26
454.34	4086.58
454.52	4161.47
454.70	4189.56
454.89	4126.36
455.07	4044.45
455.26	4177.86
455.44	4311.27
455.62	4250.41
455.81	4112.32
455.99	4301.90
456.17	4222.33
456.36	4262.12
456.54	4416.59
456.73	4297.22
456.91	4231.69
457.09	4390.84
457.28	4397.87
457.46	4423.61
457.64	4479.79
457.83	4503.19
458.01	4365.10
458.19	4507.87
458.38	4390.84
458.56	4681.07
458.74	4542.98
458.93	4643.62
459.11	4732.56
459.29	4496.17
459.48	4557.02
459.66	4559.36
459.84	4660.01
460.03	4856.61
460.21	4557.02
460.39	4524.26
460.57	4538.30
460.76	4641.28
460.94	4648.30
461.12	4678.73
461.31	4802.78
461.49	4648.30
461.67	4765.33
461.85	4887.04
462.04	4713.84
462.22	5102.37
462.40	4786.40
462.59	4795.76
462.77	4814.48
462.95	4854.27
463.13	4786.40
463.32	4940.87
463.50	4990.02
463.68	4880.02
463.86	4875.34
464.05	4870.65
464.23	5071.94
464.41	4898.74
464.59	5013.43
464.78	4898.74
464.96	5039.17
465.14	4959.60
465.32	5064.92
465.50	5174.92
465.69	5001.72
465.87	4898.74
466.05	4936.19
466.23	5013.43
466.41	5114.07
466.60	5268.55
466.78	5097.69
466.96	5062.58
467.14	5219.39
467.32	5242.80
467.51	5357.49
467.69	5203.01
467.87	5392.59
468.05	5226.42
468.23	5172.58
468.41	5252.16
468.60	5320.04
468.78	5453.45
468.96	5327.06
469.14	5376.21
469.32	5453.45
469.50	5200.67
469.69	5453.45
469.87	5584.52
470.05	5380.89
470.23	5673.46
470.41	5469.83
470.59	5577.50
470.77	5530.69
470.95	5549.41
471.14	5657.07
471.32	5638.35
471.50	5755.38
471.68	5706.23
471.86	5568.13
472.04	5703.89
472.22	5919.21
472.40	5776.44
472.58	5874.74
472.77	5830.27
472.95	5982.41
473.13	6073.69
473.31	5954.32
473.49	5956.66
473.67	6005.81
473.85	6148.59
474.03	6101.78
474.21	6078.37
474.39	6101.78
474.57	6132.20
474.75	6324.13
474.93	6274.98
475.12	6232.85
475.30	6267.95
475.48	6284.34
475.66	6026.88
475.84	6368.60
476.02	6478.60
476.20	6619.04
476.38	6616.69
476.56	6628.40
476.74	6583.93
476.92	6616.69
477.10	6707.98
477.28	6850.75
477.46	6902.24
477.64	6899.90
477.82	6972.46
478.00	7133.95
478.18	7190.13
478.36	6993.52
478.54	7126.93
478.72	7183.10
478.90	7281.41
479.08	7337.58
479.26	7311.83
479.44	7454.61
479.62	7463.97
479.80	7531.84
479.98	7662.91
480.16	7548.23
480.34	7737.81
480.52	7822.07
480.70	7707.38
480.88	7686.32
481.06	7918.03
481.24	7887.61
481.41	7985.91
481.59	8238.69
481.77	8161.45
481.95	8290.18
482.13	8226.98
482.31	8397.84
482.49	8465.72
482.67	8456.36
482.85	8676.37
483.03	8837.86
483.21	8631.90
483.39	8725.52
483.57	8748.92
483.74	8793.39
483.92	8777.01
484.10	8650.62
484.28	9090.64
484.46	9146.81
484.64	9219.37
484.82	9090.64
485.00	9270.86
485.18	9696.84
485.35	9430.02
485.53	9586.83
485.71	9563.43
485.89	9694.50
486.07	9778.76
486.25	9916.85
486.43	10003.45
486.61	9860.68
486.78	10169.63
486.96	10237.50
487.14	10352.19
487.32	10485.60
487.50	10370.91
487.68	10436.45
487.85	10480.92
488.03	10700.93
488.21	10860.09
488.39	10890.51
488.57	10857.75
488.75	10738.38
488.92	11101.16
489.10	11218.19
489.28	11225.21
489.46	11204.14
489.64	11536.50
489.81	11637.14
489.99	11485.01
490.17	11625.44
490.35	11836.09
490.53	11875.88
490.70	12109.93
490.88	12042.06
491.06	11597.35
491.24	12093.55
491.41	12088.87
491.59	12182.49
491.77	12332.28
491.95	12322.92
492.13	12472.71
492.30	12568.68
492.48	12484.42
492.66	12524.21
492.84	12711.45
493.01	12812.09
493.19	12980.61
493.37	12959.55
493.54	13163.17
493.72	13118.70
493.90	13092.96
494.08	13128.06
494.25	13341.05
494.43	13177.22
494.61	13441.70
494.79	13530.64
494.96	13678.09
495.14	13713.20
495.32	13867.67
495.49	14104.07
495.67	14204.71
495.85	14190.67
496.02	14303.01
496.20	14150.88
496.38	14295.99
496.55	14106.41
496.73	14523.02
496.91	14370.89
497.09	14595.58
497.26	14621.33
497.44	14745.38
497.62	14768.78
497.79	14810.91
497.97	14958.36
498.14	14967.73
498.32	15342.21
498.50	15201.78
498.67	15190.08
498.85	15300.08
499.03	15339.87
499.20	15428.81
499.38	15456.90
499.56	15501.37
499.73	15580.95
499.91	15641.80
500.08	15730.74
500.26	15807.98
500.44	15730.74
500.61	15854.79
500.79	15639.46
500.97	16053.73
501.14	16182.46
501.32	16170.76
501.49	16100.55
501.67	16004.58
501.84	16140.33
502.02	16276.09
502.20	16318.22
502.37	16367.37
502.55	16835.47
502.72	16582.70
502.90	16643.55
503.07	16718.45
503.25	16648.23
503.43	16575.67
503.60	16711.42
503.78	16947.82
503.95	16886.97
504.13	17055.48
504.30	17003.99
504.48	17114.00
504.65	16978.25
504.83	17357.41
505.01	17341.03
505.18	17289.54
505.36	17664.02
505.53	17605.51
505.71	17301.24
505.88	17649.98
506.06	17385.50
506.23	17507.21
506.41	17614.87
506.58	17642.96
506.76	17937.87
506.93	17844.24
507.11	17682.75
507.28	17743.60
507.46	18115.75
507.63	18352.14
507.81	18396.61
507.98	18106.38
508.16	18082.98
508.33	18146.17
508.50	18181.28
508.68	18141.49
508.85	18544.06
509.03	18471.51
509.20	18424.70
509.38	18560.45
509.55	18967.70
509.73	18934.93
509.90	18796.84
510.08	18602.58
510.25	18913.87
510.42	18855.36
510.60	19431.13
510.77	19185.37
510.95	19316.44
511.12	18885.78
511.30	18843.65
511.47	19241.54
511.64	19183.03
511.82	19690.93
511.99	19346.87
512.17	19496.66
512.34	19321.12
512.51	19569.22
512.69	19704.97
512.86	19655.82
513.04	19707.31
513.21	19871.15
513.38	19896.89
513.56	20147.33
513.73	19786.89
513.90	19861.79
514.08	19915.62
514.25	20283.08
514.43	20091.16
514.60	20056.05
514.77	20322.87
514.95	20627.14
515.12	20156.69
515.29	20503.09
515.47	20608.42
515.64	20416.49
515.81	20545.22
515.99	20421.17
516.16	20917.37
516.33	20549.90
516.51	21139.72
516.68	20500.75
516.85	20580.33
517.03	20781.62
517.20	21015.67
517.37	20594.37
517.54	21116.31
517.72	21029.71
517.89	21015.67
518.06	21385.47
518.24	21319.94
518.41	20989.92
518.58	21357.39
518.75	21406.54
518.93	21474.42
519.10	21504.84
519.27	21626.55
519.45	21350.37
519.62	21418.24
519.79	21577.40
519.96	21432.29
520.14	21930.82
520.31	21680.38
520.48	21926.14
520.65	21816.13
520.83	22078.27
521.00	21991.67
521.17	22160.19
521.34	21851.24
521.52	22078.27
521.69	22214.02
521.86	22366.16
522.03	22274.88
522.20	21986.99
522.38	22197.64
522.55	22483.19
522.72	22565.10
522.89	22312.33
523.07	22141.47
523.24	22771.07
523.41	22574.47
523.58	22506.59
523.75	22895.12
523.92	22448.08
524.10	22726.60
524.27	22850.65
524.44	22890.44
524.61	23166.62
524.78	23037.89
524.96	22937.25
525.13	22911.50
525.30	22981.72
525.47	23166.62
525.64	23353.87
525.81	23267.27
525.98	23641.75
526.16	23288.33
526.33	23199.39
526.50	23431.10
526.67	23152.58
526.84	23534.09
527.01	23363.23
527.18	23377.27
527.36	23782.18
527.53	23538.77
527.70	24067.73
527.87	23847.72
528.04	23880.49
528.21	23974.11
528.38	23733.03
528.55	23929.64
528.72	23931.98
528.89	23927.30
529.07	24004.53
529.24	24245.61
529.41	24271.36
529.58	23817.29
529.75	24159.01
529.92	23929.64
530.09	23964.75
530.26	24011.56
530.43	24156.67
530.60	24198.80
530.77	24194.12
530.94	24423.49
531.11	24184.76
531.28	24542.86
531.46	24126.24
531.63	24606.05
531.80	24650.52
531.97	24711.38
532.14	24601.37
532.31	24671.59
532.48	24559.24
532.65	24868.19
532.82	24863.51
532.99	24645.84
533.16	24732.44
533.33	24929.05
533.50	24992.24
533.67	24840.11
533.84	24830.74
534.01	24491.37
534.18	25116.29
534.35	25481.41
534.52	25039.05
534.69	25060.12
534.86	25710.78
535.03	25010.96
535.20	25064.80
535.37	25357.36
535.54	25535.24
535.71	25338.64
535.88	25205.23
536.05	25195.87
536.22	25326.94
536.38	25626.53
536.55	25783.34
536.72	25675.68
536.89	25352.68
537.06	25553.97
537.23	25708.44
537.40	25539.93
537.57	25928.45
537.74	25708.44
537.91	25568.01
538.08	25991.65
538.25	25989.31
538.42	25523.54
538.59	26181.23
538.75	25518.86
538.92	26363.79
539.09	26197.62
539.26	25825.47
539.43	26380.18
539.60	26101.65
539.77	26103.99
539.94	26235.06
540.11	26120.38
540.28	26029.10
540.44	26359.11
540.61	26267.83
540.78	26295.92
540.95	26387.20
541.12	25888.67
541.29	26279.54
541.46	26714.87
541.62	26436.35
541.79	26324.01
541.96	26642.32
542.13	26464.44
542.30	26703.17
542.47	26602.53
542.63	26876.37
542.80	26955.95
542.97	26817.86
543.14	26953.61
543.31	26895.10
543.48	27058.93
543.64	27484.91
543.81	27349.16
543.98	27122.13
544.15	27140.85
544.32	27585.55
544.48	27161.92
544.65	26869.35
544.82	27087.02
544.99	26878.71
545.16	27367.88
545.32	27182.98
545.49	27367.88
545.66	27344.48
545.83	27634.71
546.00	27929.61
546.16	27255.54
546.33	27159.58
546.50	27101.06
546.67	27548.11
546.83	27688.54
547.00	27164.26
547.17	27763.43
547.34	27271.92
547.50	27985.79
547.67	28067.70
547.84	27955.36
548.00	27761.09
548.17	27618.32
548.34	27934.29
548.51	28177.71
548.67	28252.61
548.84	27950.68
549.01	27824.29
549.18	28030.26
549.34	28013.87
549.51	27950.68
549.68	27831.31
549.84	27733.01
550.01	28250.27
550.18	28065.36
550.34	27934.29
550.51	28290.06
550.68	28063.02
550.84	27943.66
551.01	28187.07
551.18	28285.37
551.34	28037.28
551.51	27789.18
551.68	28261.97
551.84	28542.83
552.01	28056.00
552.18	28601.35
552.34	28261.97
552.51	28364.95
552.68	28341.55
552.84	28739.44
553.01	28542.83
553.18	28400.06
553.34	28432.83
553.51	28219.84
553.67	28872.85
553.84	28907.96
554.01	28954.77
554.17	28882.21
554.34	28718.37
554.51	28531.13
554.67	28709.01
554.84	28807.31
555.00	28957.11
555.17	28753.48
555.33	28828.38
555.50	28809.65
555.67	28821.36
555.83	29097.54
556.00	28903.28
556.16	28884.55
556.33	28856.46
556.50	29071.79
556.66	29069.45
556.83	29060.09
556.99	29319.89
557.16	29219.25
557.32	29165.42
557.49	28938.38
557.65	28545.17
557.82	28903.28
557.98	29233.29
558.15	29387.77
558.32	29567.99
558.48	29252.02
558.65	29359.68
558.81	29467.34
558.98	29539.90
559.14	29151.37
559.31	29331.59
559.47	29401.81
559.64	29626.50
559.80	29656.93
559.97	29511.81
560.13	29355.00
560.30	29420.53
560.46	29310.53
560.63	29713.10
560.79	29462.66
560.96	29523.52
561.12	29181.80
561.29	29422.87
561.45	29715.44
561.61	29673.31
561.78	29818.42
561.94	30000.99
562.11	29930.77
562.27	29778.64
562.44	29347.98
562.60	29443.94
562.77	29621.82
562.93	29628.84
563.10	29940.13
563.26	29816.08
563.42	30204.61
563.59	30125.04
563.75	29820.77
563.92	30010.35
564.08	29495.43
564.24	29722.46
564.41	29706.08
564.57	29905.02
564.74	29619.48
564.90	29902.68
565.07	29745.87
565.23	29748.21
565.39	29692.04
565.56	30218.66
565.72	30022.05
565.88	29900.34
566.05	29551.60
566.21	30092.27
566.38	29605.44
566.54	29993.97
566.70	29909.71
566.87	30323.98
567.03	30082.91
567.19	30089.93
567.36	30298.23
567.52	29963.54
567.68	30150.78
567.85	30176.53
568.01	29996.31
568.17	30127.38
568.34	29921.41
568.50	30319.30
568.66	30183.55
568.83	30108.65
568.99	30281.85
569.15	30029.07
569.32	30176.53
569.48	29809.06
569.64	30047.80
569.81	30312.28
569.97	30120.35
570.13	30583.78
570.30	30110.99
570.46	30047.80
570.62	30258.45
570.78	30153.12
570.95	30333.34
571.11	30352.07
571.27	29851.19
571.43	30183.55
571.60	30354.41
571.76	30373.13
571.92	29928.43
572.09	30558.03
572.25	30745.28
572.41	30668.04
572.57	30082.91
572.74	30480.80
572.90	30448.03
573.06	30555.69
573.22	30349.73
573.38	30616.55
573.55	30422.28
573.71	30719.53
573.87	30656.34
574.03	30604.84
574.20	30448.03
574.36	30153.12
574.52	30462.07
574.68	30256.11
574.84	30298.23
575.01	30670.38
575.17	30073.54
575.33	30433.99
575.49	30354.41
575.65	30803.79
575.82	30572.08
575.98	30403.56
576.14	30614.21
576.30	30253.76
576.46	30045.46
576.62	30677.40
576.79	30277.17
576.95	30590.80
577.11	30984.01
577.27	30501.86
577.43	30670.38
577.59	30651.66
577.75	30478.46
577.92	30457.39
578.08	29947.15
578.24	30654.00
578.40	30876.35
578.56	30604.84
578.72	30452.71
578.88	30590.80
579.04	30766.34
579.21	30707.83
579.37	30836.56
579.53	30799.11
579.69	30499.52
579.85	30707.83
580.01	30593.14
580.17	30206.95
580.33	30724.21
580.49	30731.23
580.65	30293.55
580.82	30665.70
580.98	30656.34
581.14	30567.40
581.30	30871.67
581.46	30309.94
581.62	30476.12
581.78	30277.17
581.94	31058.91
582.10	30700.81
582.26	30565.06
582.42	30796.77
582.58	30745.28
582.74	30930.18
582.90	30520.59
583.06	30822.51
583.22	30808.47
583.38	30684.42
583.54	31016.78
583.70	30513.56
583.86	30831.88
584.02	30815.49
584.18	31103.38
584.34	31016.78
584.50	30864.64
584.66	30689.10
584.82	30588.46
584.98	30625.91
585.14	31049.55
585.30	30684.42
585.46	30600.16
585.62	30551.01
585.78	30546.33
585.94	30714.85
586.10	30998.06
586.26	30845.92
586.42	31033.16
586.58	30808.47
586.74	30834.22
586.90	30918.48
587.06	30710.17
587.22	30618.89
587.38	30349.73
587.54	30918.48
587.70	30998.06
587.86	30778.04
588.02	30874.01
588.18	31182.96
588.34	30916.14
588.49	30918.48
588.65	30796.77
588.81	30792.09
588.97	30911.46
589.13	30492.50
589.29	30803.79
589.45	31323.39
589.61	30838.90
589.77	31098.70
589.93	31187.64
590.08	30998.06
590.24	31559.78
590.40	31065.93
590.56	31297.64
590.72	31358.50
590.88	31058.91
591.04	30911.46
591.20	31072.95
591.35	31096.36
591.51	31332.75
591.67	31040.18
591.83	31662.77
591.99	31084.65
592.15	31044.87
592.31	31129.12
592.46	31229.77
592.62	31307.01
592.78	31262.54
592.94	31161.89
593.10	31220.41
593.26	30991.03
593.41	31431.05
593.57	31494.25
593.73	31346.79
593.89	31304.67
594.05	31201.68
594.20	31054.23
594.36	31089.34
594.52	30838.90
594.68	31496.59
594.84	31246.15
594.99	31246.15
595.15	31208.70
595.31	31803.20
595.47	31515.31
595.62	31449.78
595.78	30984.01
595.94	31250.83
596.10	31199.34
596.25	30993.37
596.41	30916.14
596.57	31117.42
596.73	31173.60
596.88	31143.17
597.04	31747.03
597.20	31510.63
597.36	31400.63
597.51	31601.91
597.67	31145.51
597.83	31173.60
597.99	31618.30
598.14	31772.77
598.30	31330.41
598.46	31505.95
598.61	31496.59
598.77	31295.30
598.93	31288.28
599.09	31550.42
599.24	31805.54
599.40	31494.25
599.56	31658.09
599.71	31428.71
599.87	31449.78
600.03	31814.90
600.18	31299.98
600.34	31035.50
600.50	31772.77
600.65	31367.86
600.81	31311.69
600.97	31524.68
601.12	31559.78
601.28	31697.88
601.44	31484.89
601.59	31576.17
601.75	31332.75
601.91	31295.30
602.06	31264.88
602.22	31637.02
602.37	31234.45
602.53	31590.21
602.69	31632.34
602.84	30848.26
603.00	31447.44
603.16	31377.22
603.31	31491.91
603.47	31379.56
603.62	31323.39
603.78	31426.37
603.94	31026.14
604.09	30862.30
604.25	31239.13
604.40	31295.30
604.56	31541.06
604.71	31468.50
604.87	31115.08
605.03	31505.95
605.18	31651.06
605.34	31079.97
605.49	30742.94
605.65	31197.00
605.80	31550.42
605.96	31299.98
606.12	31065.93
606.27	31342.11
606.43	31194.66
606.58	31601.91
606.74	31770.43
606.89	31550.42
607.05	31751.71
607.20	31564.46
607.36	31548.08
607.51	31393.61
607.67	31189.98
607.82	30810.81
607.98	30817.83
608.13	31297.64
608.29	31232.11
608.44	31042.53
608.60	31342.11
608.75	31288.28
608.91	31360.84
609.06	31405.31
609.22	31253.17
609.37	31234.45
609.53	30899.75
609.68	31133.81
609.84	31206.36
609.99	31189.98
610.15	30881.03
610.30	31103.38
610.46	31393.61
610.61	31276.58
610.76	31206.36
610.92	31297.64
611.07	31056.57
611.23	31098.70
611.38	30733.57
611.54	31096.36
611.69	30576.76
611.84	30934.86
612.00	30459.73
612.15	30499.52
612.31	30906.77
612.46	30869.33
612.62	31318.71
612.77	30920.82
612.92	31363.18
613.08	31061.25
613.23	31297.64
613.39	30789.75
613.54	30602.50
613.69	30780.39
613.85	30476.12
614.00	30782.73
614.15	31005.08
614.31	30888.05
614.46	30897.41
614.62	30740.60
614.77	30967.63
614.92	30768.68
615.08	30787.41
615.23	30895.07
615.38	30810.81
615.54	30771.02
615.69	30572.08
615.84	30345.05
616.00	30719.53
616.15	30443.35
616.30	30932.52
616.46	30408.24
616.61	30726.55
616.76	30754.64
616.92	30651.66
617.07	30731.23
617.22	30698.47
617.37	30312.28
617.53	30562.72
617.68	30368.45
617.83	30408.24
617.99	30462.07
618.14	30452.71
618.29	30352.07
618.45	30609.53
618.60	30677.40
618.75	30560.37
618.90	30279.51
619.06	30359.09
619.21	30478.46
619.36	30213.98
619.51	30237.38
619.67	30068.86
619.82	30148.44
619.97	29902.68
620.12	30192.91
620.28	30108.65
620.43	30108.65
620.58	30316.96
620.73	30363.77
620.89	30396.54
621.04	30375.47
621.19	30441.01
621.34	30295.89
621.49	30061.84
621.65	29916.73
621.80	30258.45
621.95	30412.92
622.10	30298.23
622.25	30204.61
622.41	29666.29
622.56	30160.14
622.71	30232.70
622.86	30101.63
623.01	29848.85
623.16	30106.31
623.32	29682.67
623.47	29729.48
623.62	29979.92
623.77	29701.40
623.92	29844.17
624.07	29935.45
624.23	29778.64
624.38	29734.17
624.53	29816.08
624.68	30064.18
624.83	30190.57
624.98	29677.99
625.13	29469.69
625.29	29921.41
625.44	29883.96
625.59	29734.17
625.74	29219.25
625.89	29465.00
626.04	29577.35
626.19	29226.27
626.34	29214.57
626.49	29406.49
626.65	29205.20
626.80	29607.78
626.95	29968.22
627.10	29741.19
627.25	29687.36
627.40	29661.61
627.55	29195.84
627.70	29170.10
627.85	28961.79
628.00	28814.34
628.15	29221.59
628.30	29294.14
628.45	29582.03
628.60	29486.07
628.76	29418.19
628.91	29369.04
629.06	29085.84
629.21	29219.25
629.36	29736.51
629.51	29069.45
629.66	29132.65
629.81	29024.98
629.96	29259.04
630.11	28966.47
630.26	29144.35
630.41	29151.37
630.56	29163.08
630.71	29322.23
630.86	29336.27
631.01	29032.00
631.16	29296.49
631.31	28893.91
631.46	29081.16
631.61	29371.38
631.76	29102.22
631.91	28996.90
632.06	28697.31
632.21	28507.72
632.36	28905.62
632.51	28809.65
632.66	28989.88
632.81	28652.84
632.96	28765.18
633.10	28701.99
633.25	28709.01
633.40	29015.62
633.55	28779.23
633.70	28173.03
633.85	28493.68
634.00	28680.92
634.15	28421.13
634.30	28460.91
634.45	28631.77
634.60	28573.26
634.75	28472.62
634.90	28114.52
635.05	28664.54
635.19	28671.56
635.34	28819.02
635.49	28428.15
635.64	28980.51
635.79	28683.27
635.94	28582.62
636.09	28226.86
636.24	28498.36
636.39	28177.71
636.53	28219.84
636.68	27943.66
636.83	28063.02
636.98	28891.57
637.13	28315.80
637.28	28582.62
637.43	28386.02
637.57	28638.80
637.72	28547.51
637.87	28297.08
638.02	27981.10
638.17	28402.40
638.32	28229.20
638.46	28158.99
638.61	27695.56
638.76	27845.35
638.91	27960.04
639.06	27983.44
639.20	28423.47
639.35	28304.10
639.50	28144.94
639.65	28086.43
639.80	28065.36
639.94	27786.84
640.09	27749.39
640.24	27814.93
640.39	28060.68
640.54	27690.88
640.68	27854.72
640.83	27791.52
640.98	27527.04
641.13	27543.42
641.27	27718.96
641.42	27728.33
641.57	27946.00
641.72	27744.71
641.86	27611.30
642.01	27800.88
642.16	27714.28
642.31	27669.81
642.45	27796.20
642.60	27625.34
642.75	27344.48
642.90	27377.25
643.04	27484.91
643.19	27445.12
643.34	27688.54
643.48	27599.60
643.63	27606.62
643.78	27304.69
643.93	27541.08
644.07	27707.26
644.22	27510.66
644.37	27737.69
644.51	28020.89
644.66	27353.84
644.81	27278.94
644.95	27197.02
645.10	27253.20
645.25	27527.04
645.39	27391.29
645.54	27110.43
645.69	27431.08
645.83	27541.08
645.98	26904.46
646.13	27096.38
646.27	27374.91
646.42	27353.84
646.57	27208.73
646.71	27398.31
646.86	27204.05
647.00	27271.92
647.15	27349.16
647.30	26890.41
647.44	26991.06
647.59	26932.54
647.74	26951.27
647.88	27068.30
648.03	27133.83
648.17	27257.88
648.32	27026.17
648.47	27342.14
648.61	27166.60
648.76	27412.35
648.90	26827.22
649.05	27007.44
649.20	27122.13
649.34	26647.00
649.49	26773.39
649.63	26649.34
649.78	26506.57
649.92	26632.96
650.07	26906.80
650.21	26946.59
650.36	26927.86
650.51	26778.07
650.65	26794.45
650.80	26616.57
650.94	26555.72
651.09	26639.98
651.23	26721.90
651.38	26733.60
651.52	26778.07
651.67	26852.97
651.81	26689.13
651.96	26476.14
652.10	26742.96
652.25	26778.07
652.39	27056.59
652.54	26817.86
652.68	26953.61
652.83	26293.58
652.97	26621.25
653.12	26562.74
653.26	26319.32
653.41	26827.22
653.55	26544.02
653.70	26286.56
653.84	26319.32
653.99	26277.19
654.13	26333.37
654.27	26181.23
654.42	26328.69
654.56	26258.47
654.71	26448.05
654.85	26277.19
655.00	26324.01
655.14	26438.69
655.29	25928.45
655.43	26295.92
655.57	26434.01
655.72	26185.91
655.86	26223.36
656.01	26092.29
656.15	26223.36
656.30	26054.84
656.44	26260.81
656.58	25507.16
656.73	25717.81
656.87	26295.92
657.01	26314.64
657.16	26223.36
657.30	26019.74
657.45	25792.70
657.59	25748.23
657.73	25490.77
657.88	26024.42
658.02	25907.39
658.16	26136.76
658.31	25804.41
658.45	25867.60
658.60	25558.65
658.74	25579.71
658.88	25507.16
659.03	25813.77
659.17	25553.97
659.31	25661.63
659.46	25399.49
659.60	25568.01
659.74	25439.28
659.89	25603.12
660.03	25348.00
660.17	25844.20
660.32	25092.88
660.46	25427.58
660.60	25149.06
660.74	25102.25
660.89	25095.22
661.03	25048.41
661.17	25230.98
661.32	25373.75
661.46	25303.53
661.60	24964.15
661.74	24975.86
661.89	25238.00
662.03	25369.07
662.17	25184.16
662.31	25081.18
662.46	25027.35
662.60	24945.43
662.74	24961.81
662.88	24587.33
663.03	24767.55
663.17	24589.67
663.31	24510.09
663.45	24442.21
663.60	24636.48
663.74	24449.24
663.88	24741.80
664.02	24474.98
664.17	24535.84
664.31	24629.46
664.45	24517.11
664.59	24704.35
664.73	24269.01
664.88	24648.18
665.02	24231.57
665.16	24027.94
665.30	24332.21
665.44	24470.30
665.59	24313.48
665.73	24137.94
665.87	24247.95
666.01	24247.95
666.15	24592.01
666.29	24147.31
666.44	24383.70
666.58	23718.99
666.72	23899.21
666.86	24067.73
667.00	23868.78
667.14	23999.85
667.28	23786.86
667.43	23864.10
667.57	23967.09
667.71	23903.89
667.85	23709.63
667.99	23875.80
668.13	23704.95
668.27	23676.86
668.41	23426.42
668.56	23506.00
668.70	23985.81
668.84	23604.30
668.98	23616.01
669.12	23503.66
669.26	23747.08
669.40	23351.52
669.54	23283.65
669.68	23470.89
669.82	23250.88
669.96	22944.27
670.10	23281.31
670.25	23403.02
670.39	23456.85
670.53	23014.49
670.67	22871.72
670.81	22913.84
670.95	22611.92
671.09	22974.70
671.23	23281.31
671.37	23131.51
671.51	22930.23
671.65	22766.39
671.79	22677.45
671.93	22773.41
672.07	22782.77
672.21	22731.28
672.35	22522.98
672.49	22405.95
672.63	22562.76
672.77	22204.66
672.91	22485.53
673.05	22382.54
673.19	22382.54
673.33	22396.59
673.47	22134.45
673.61	22441.06
673.75	22326.37
673.89	21958.91
674.03	21933.16
674.17	22326.37
674.31	22148.49
674.45	21996.35
674.59	21813.79
674.73	22029.12
674.87	21813.79
675.01	22040.82
675.15	21514.20
675.29	21383.13
675.43	21563.36
675.56	21516.54
675.70	21488.46
675.84	21680.38
675.98	20758.21
676.12	21848.90
676.26	21322.28
676.40	21305.90
676.54	21275.47
676.68	21296.53
676.82	20844.81
676.96	21228.66
677.10	21156.10
677.23	21111.63
677.37	20971.20
677.51	20922.05
677.65	20631.82
677.79	20987.58
677.93	20563.95
678.07	20379.04
678.21	20329.89
678.34	20467.98
678.48	20299.47
678.62	20250.32
678.76	20418.83
678.90	20135.63
679.04	20107.54
679.18	20210.53
679.31	19969.45
679.45	19765.82
679.59	19782.21
679.73	19545.81
679.87	19527.09
680.00	19770.51
680.14	19566.88
680.28	19580.92
680.42	19735.40
680.56	19620.71
680.70	19686.25
680.83	19531.77
680.97	19634.75
681.11	19452.19
681.25	19276.65
681.39	19335.17
681.52	18998.13
681.66	19222.82
681.80	19183.03
681.94	18934.93
682.07	19241.54
682.21	18668.11
682.35	18927.91
682.49	18808.54
682.62	18675.13
682.76	18705.56
682.90	18628.32
683.04	18745.35
683.17	18593.22
683.31	18466.83
683.45	18595.56
683.59	18588.53
683.72	18277.24
683.86	18052.55
684.00	18204.69
684.13	18174.26
684.27	18104.04
684.41	18101.70
684.55	17813.82
684.68	17940.21
684.82	18015.10
684.96	17748.28
685.09	17984.68
685.23	17968.29
685.37	17406.56
685.50	17818.50
685.64	17572.74
685.78	17338.69
685.91	17598.49
686.05	17525.93
686.19	17207.62
686.32	17511.89
686.46	17235.70
686.60	16982.93
686.73	17013.35
686.87	17149.11
687.01	16816.75
687.14	16936.12
687.28	16596.74
687.42	16545.25
687.55	16755.90
687.69	16884.62
687.82	16358.00
687.96	16844.84
688.10	16563.97
688.23	16592.06
688.37	16465.67
688.50	16367.37
688.64	16456.31
688.78	16042.03
688.91	16208.21
689.05	16177.78
689.18	16032.67
689.32	15953.09
689.46	16046.71
689.59	16107.57
689.73	16030.33
689.86	16044.37
690.00	15969.48
690.13	15733.08
690.27	15587.97
690.41	15850.11
690.54	15468.60
690.68	15873.51
690.81	15466.26
690.95	15721.38
691.08	15363.28
691.22	15550.52
691.35	15070.71
691.49	15410.09
691.62	15365.62
691.76	15117.52
691.89	15033.26
692.03	14930.28
692.16	14736.01
692.30	15073.05
692.43	14630.69
692.57	14864.74
692.70	14822.61
692.84	14757.08
692.97	14574.52
693.11	14623.67
693.24	14562.81
693.38	14527.71
693.51	14504.30
693.65	14604.94
693.78	14494.94
693.92	14342.80
694.05	14361.53
694.19	13902.78
694.32	14246.84
694.45	14050.24
694.59	13858.31
694.72	13727.24
694.86	13771.71
694.99	13530.64
695.13	13699.16
695.26	13308.29
695.39	13757.67
695.53	13809.16
695.66	13535.32
695.80	13413.61
695.93	13481.49
696.07	13479.15
696.20	13675.75
696.33	13647.66
696.47	13362.12
696.60	13317.65
696.73	13013.38
696.87	13242.75
697.00	12865.92
697.14	12936.14
697.27	12699.75
697.40	12982.95
697.54	12854.22
697.67	12645.91
697.80	12732.51
697.94	12727.83
698.07	12552.29
698.21	12329.94
698.34	12407.18
698.47	12706.77
698.61	12325.26
698.74	12463.35
698.87	12325.26
699.01	12217.60
699.14	12233.98
699.27	12009.29
699.40	12147.38
699.54	12156.74
699.67	11719.06
699.80	11887.58
699.94	11822.05
700.07	11974.18
700.20	11721.40
700.34	11595.01
700.47	11234.57
700.60	11658.21
700.73	11655.87
700.87	11751.83
701.00	11648.85
701.13	11363.30
701.26	11529.48
701.40	11681.61
701.53	11396.07
701.66	11349.26
701.79	11332.87
701.93	11449.90
702.06	11126.91
702.19	10970.09
702.32	10869.45
702.46	10988.82
702.59	10848.38
702.72	10878.81
702.85	10787.53
702.99	10738.38
703.12	10752.42
703.25	10647.10
703.38	10752.42
703.51	10801.57
703.65	10427.09
703.78	10466.88
703.91	10714.97
704.04	10696.25
704.17	10581.56
704.31	10520.71
704.44	10424.75
704.57	10235.16
704.70	10178.99
704.83	9980.04
704.96	10125.16
705.10	9757.69
705.23	9944.94
>>>>>End Processed Spectral Data<<<<<
