SpectraSuite Data File
++++++++++++++++++++++++++++++++++++
Date: Fri Oct 18 13:57:57 GMT-05:00 2013
User: bianchi
Dark Spectrum Present: No
Reference Spectrum Present: No
Number of Sampled Component Spectra: 1
Spectrometers: USB2+H05261
Integration Time (usec): 50000 (USB2+H05261)
Spectra Averaged: 1 (USB2+H05261)
Boxcar Smoothing: 0 (USB2+H05261)
Correct for Electrical Dark: No (USB2+H05261)
Strobe/Lamp Enabled: No (USB2+H05261)
Correct for Detector Non-linearity: No (USB2+H05261)
Correct for Stray Light: No (USB2+H05261)
Number of Pixels in Processed Spectrum: 2048
>>>>>Begin Processed Spectral Data<<<<<
365.73	0.00
365.92	0.00
366.12	0.00
366.32	0.00
366.52	0.00
366.72	0.00
366.91	0.00
367.11	0.00
367.31	0.00
367.51	0.00
367.70	0.00
367.90	0.00
368.10	0.00
368.30	0.00
368.49	0.00
368.69	0.00
368.89	0.00
369.09	0.00
369.28	0.00
369.48	0.00
369.68	0.00
369.87	0.00
370.07	0.00
370.27	0.00
370.47	0.00
370.66	88.94
370.86	159.16
371.06	147.45
371.25	182.56
371.45	166.18
371.65	142.77
371.84	198.95
372.04	133.41
372.24	121.71
372.44	58.51
372.63	173.20
372.83	257.46
373.03	227.03
373.22	306.61
373.42	208.31
373.62	156.82
373.81	227.03
374.01	180.22
374.21	236.39
374.40	205.97
374.60	194.26
374.79	266.82
374.99	236.39
375.19	201.29
375.38	238.73
375.58	229.37
375.78	259.80
375.97	294.91
376.17	294.91
376.37	229.37
376.56	294.91
376.76	259.80
376.95	250.44
377.15	212.99
377.35	273.84
377.54	255.12
377.74	301.93
377.93	294.91
378.13	264.48
378.33	395.55
378.52	301.93
378.72	376.83
378.91	360.44
379.11	250.44
379.31	308.95
379.50	287.89
379.70	313.63
379.89	273.84
380.09	322.99
380.28	344.06
380.48	353.42
380.68	266.82
380.87	245.76
381.07	369.80
381.26	341.72
381.46	308.95
381.65	278.52
381.85	294.91
382.04	362.78
382.24	285.55
382.43	297.25
382.63	372.15
382.83	355.76
383.02	362.78
383.22	383.85
383.41	376.83
383.61	461.09
383.80	421.30
384.00	346.40
384.19	372.15
384.39	315.97
384.58	425.98
384.78	376.83
384.97	397.89
385.17	409.59
385.36	369.80
385.56	454.06
385.75	440.02
385.95	397.89
386.14	493.85
386.34	292.57
386.53	423.64
386.72	416.62
386.92	484.49
387.11	402.57
387.31	461.09
387.50	503.22
387.70	500.87
387.89	421.30
388.09	400.23
388.28	386.19
388.48	479.81
388.67	449.38
388.86	463.43
389.06	517.26
389.25	383.85
389.45	430.66
389.64	491.51
389.84	395.55
390.03	486.83
390.22	510.24
390.42	498.53
390.61	564.07
390.81	505.56
391.00	442.36
391.19	484.49
391.39	496.19
391.58	465.77
391.78	580.45
391.97	477.47
392.16	554.71
392.36	564.07
392.55	571.09
392.75	543.00
392.94	503.22
393.13	503.22
393.33	510.24
393.52	596.84
393.71	585.13
393.91	589.82
394.10	552.37
394.29	608.54
394.49	585.13
394.68	524.28
394.88	594.50
395.07	641.31
395.26	653.01
395.46	674.07
395.65	629.60
395.84	627.26
396.04	653.01
396.23	657.69
396.42	641.31
396.62	685.78
396.81	723.23
397.00	692.80
397.19	809.83
397.39	669.39
397.58	720.88
397.77	716.20
397.97	634.29
398.16	660.03
398.35	781.74
398.55	706.84
398.74	732.59
398.93	781.74
399.12	692.80
399.32	788.76
399.51	739.61
399.70	741.95
399.90	758.33
400.09	877.70
400.28	770.04
400.47	779.40
400.67	849.61
400.86	774.72
401.05	816.85
401.24	793.44
401.44	856.64
401.63	788.76
401.82	781.74
402.01	786.42
402.21	873.02
402.40	786.42
402.59	812.17
402.78	767.70
402.97	887.06
403.17	894.08
403.36	851.96
403.55	898.77
403.74	861.32
403.93	858.98
404.13	973.66
404.32	936.21
404.51	950.26
404.70	919.83
404.89	924.51
405.09	992.39
405.28	917.49
405.47	964.30
405.66	1013.45
405.85	973.66
406.05	952.60
406.24	994.73
406.43	1011.11
406.62	1086.01
406.81	1102.39
407.00	1022.81
407.20	1086.01
407.39	1083.67
407.58	1151.54
407.77	1097.71
407.96	1076.65
408.15	1123.46
408.34	1090.69
408.54	1048.56
408.73	1144.52
408.92	1090.69
409.11	1074.31
409.30	1151.54
409.49	1196.01
409.68	1135.16
409.87	1233.46
410.07	1224.10
410.26	1228.78
410.45	1200.69
410.64	1146.86
410.83	1235.80
411.02	1170.27
411.21	1313.04
411.40	1357.51
411.59	1242.82
411.78	1247.51
411.98	1350.49
412.17	1289.64
412.36	1291.98
412.55	1409.00
412.74	1448.79
412.93	1392.62
413.12	1392.62
413.31	1425.39
413.50	1437.09
413.69	1474.54
413.88	1423.05
414.07	1458.15
414.26	1500.28
414.45	1561.14
414.64	1425.39
414.83	1561.14
415.02	1460.49
415.22	1600.93
415.41	1617.31
415.60	1502.62
415.79	1619.65
415.98	1685.19
416.17	1666.46
416.36	1603.27
416.55	1687.53
416.74	1678.16
416.93	1699.23
417.12	1778.81
417.31	1771.79
417.50	1720.29
417.69	1771.79
417.88	1689.87
418.07	1755.40
418.26	1811.57
418.45	1757.74
418.64	1851.36
418.83	1937.96
419.02	1849.02
419.21	1832.64
419.39	1893.49
419.58	1823.28
419.77	1872.43
419.96	1872.43
420.15	1853.70
420.34	1877.11
420.53	1919.24
420.72	2036.27
420.91	1877.11
421.10	1975.41
421.29	1947.33
421.48	1870.09
421.67	1935.62
421.86	1912.22
422.05	1977.75
422.24	1984.77
422.43	2080.74
422.61	2062.01
422.80	2017.54
422.99	2101.80
423.18	2087.76
423.37	2078.40
423.56	2062.01
423.75	1998.82
423.94	1940.30
424.13	1902.86
424.32	2005.84
424.50	2078.40
424.69	2113.50
424.88	2134.57
425.07	2043.29
425.26	2005.84
425.45	2001.16
425.64	2036.27
425.83	2073.71
426.01	2108.82
426.20	2111.16
426.39	2090.10
426.58	2069.03
426.77	2099.46
426.96	2169.68
427.15	2090.10
427.33	2179.04
427.52	2232.87
427.71	2228.19
427.90	2125.21
428.09	2237.55
428.28	2251.60
428.46	2214.15
428.65	2207.13
428.84	2244.57
429.03	2326.49
429.22	2246.91
429.40	2260.96
429.59	2352.24
429.78	2188.40
429.97	2258.62
430.16	2153.29
430.34	2354.58
430.53	2396.71
430.72	2539.48
430.91	2363.94
431.10	2305.43
431.28	2471.61
431.47	2497.35
431.66	2530.12
431.85	2497.35
432.03	2492.67
432.22	2509.05
432.41	2487.99
432.60	2555.86
432.79	2495.01
432.97	2399.05
433.16	2487.99
433.35	2445.86
433.54	2569.91
433.72	2654.17
433.91	2523.10
434.10	2633.10
434.28	2513.74
434.47	2656.51
434.66	2626.08
434.85	2616.72
435.03	2452.88
435.22	2597.99
435.41	2729.06
435.59	2717.36
435.78	2651.83
435.97	2719.70
436.16	2710.34
436.34	2785.24
436.53	2672.89
436.72	2892.90
436.90	2799.28
437.09	2818.00
437.28	2715.02
437.46	2813.32
437.65	2745.45
437.84	2848.43
438.02	2761.83
438.21	2928.01
438.40	2878.86
438.58	2902.26
438.77	2930.35
438.96	2888.22
439.14	2981.84
439.33	2963.12
439.52	2984.18
439.70	2993.55
439.89	3105.89
440.08	3066.10
440.26	3026.31
440.45	3143.34
440.63	3171.43
440.82	3150.36
441.01	3164.40
441.19	3187.81
441.38	3141.00
441.57	3316.54
441.75	3293.13
441.94	3449.95
442.12	3311.86
442.31	3447.61
442.50	3492.08
442.68	3361.01
442.87	3471.01
443.05	3323.56
443.24	3440.59
443.43	3318.88
443.61	3471.01
443.80	3590.38
443.98	3384.41
444.17	3349.31
444.35	3522.51
444.54	3372.71
444.73	3555.27
444.91	3389.10
445.10	3524.85
445.28	3548.25
445.47	3499.10
445.65	3487.40
445.84	3485.06
446.02	3501.44
446.21	3513.14
446.39	3641.87
446.58	3545.91
446.77	3637.19
446.95	3581.02
447.14	3625.49
447.32	3595.06
447.51	3583.36
447.69	3574.00
447.88	3585.70
448.06	3637.19
448.25	3576.34
448.43	3510.80
448.62	3602.08
448.80	3618.47
448.99	3566.98
449.17	3597.40
449.36	3779.97
449.54	3681.66
449.73	3784.65
449.91	3719.11
450.10	3721.45
450.28	3889.97
450.46	3857.20
450.65	3815.07
450.83	3882.95
451.02	3803.37
451.20	3948.48
451.39	3822.09
451.57	3843.16
451.76	3838.48
451.94	3896.99
452.13	3794.01
452.31	3819.75
452.49	3908.69
452.68	3964.87
452.86	4046.79
453.05	3943.80
453.23	4009.34
453.42	4105.30
453.60	3983.59
453.78	4131.05
453.97	4084.23
454.15	3948.48
454.34	4072.53
454.52	4042.11
454.70	4133.39
454.89	4142.75
455.07	4121.68
455.26	4107.64
455.44	4234.03
455.62	4189.56
455.81	4210.62
455.99	4341.69
456.17	4224.67
456.36	4271.48
456.54	4219.99
456.73	4301.90
456.91	4465.74
457.09	4283.18
457.28	4388.50
457.46	4255.09
457.64	4550.00
457.83	4437.66
458.01	4486.81
458.19	4589.79
458.38	4514.89
458.56	4346.37
458.74	4557.02
458.93	4585.11
459.11	4557.02
459.29	4435.32
459.48	4662.35
459.66	4531.28
459.84	4484.47
460.03	4681.07
460.21	4681.07
460.39	4676.39
460.57	4564.04
460.76	4674.05
460.94	4692.77
461.12	4631.92
461.31	4657.67
461.49	4774.69
461.67	4755.97
461.85	4966.62
462.04	4695.11
462.22	5135.14
462.40	4727.88
462.59	4903.42
462.77	4720.86
462.95	4933.85
463.13	4943.21
463.32	4819.16
463.50	4978.32
463.68	5027.47
463.86	4854.27
464.05	4922.15
464.23	4929.17
464.41	5102.37
464.59	4858.95
464.78	4999.38
464.96	5011.09
465.14	4959.60
465.32	4978.32
465.50	5111.73
465.69	5289.61
465.87	5146.84
466.05	4931.51
466.23	5046.20
466.41	5109.39
466.60	5224.08
466.78	4959.60
466.96	5203.01
467.14	5048.54
467.32	5139.82
467.51	5249.82
467.69	5032.15
467.87	5132.79
468.05	5228.76
468.23	5193.65
468.41	5291.95
468.60	5343.44
468.78	5341.10
468.96	5242.80
469.14	5441.75
469.32	5404.30
469.50	5390.25
469.69	5523.66
469.87	5453.45
470.05	5600.90
470.23	5699.20
470.41	5633.67
470.59	5483.88
470.77	5568.13
470.95	5479.19
471.14	5818.57
471.32	5486.22
471.50	5708.57
471.68	5734.31
471.86	5823.25
472.04	5898.15
472.22	5856.02
472.40	5891.13
472.58	5947.30
472.77	5919.21
472.95	6038.58
473.13	6190.72
473.31	6010.50
473.49	5825.59
473.67	5832.62
473.85	6061.99
474.03	6003.47
474.21	6132.20
474.39	6202.42
474.57	6094.76
474.75	6417.75
474.93	6321.79
475.12	6127.52
475.30	6331.15
475.48	6286.68
475.66	6403.71
475.84	6370.94
476.02	6373.28
476.20	6502.01
476.38	6693.93
476.56	6665.85
476.74	6579.25
476.92	6633.08
477.10	6724.36
477.28	6810.96
477.46	6616.69
477.64	6935.01
477.82	7014.59
478.00	6972.46
478.18	7070.76
478.36	7194.81
478.54	7232.26
478.72	7363.33
478.90	7229.91
479.08	7405.46
479.26	7335.24
479.44	7454.61
479.62	7435.88
479.80	7442.90
479.98	7489.71
480.16	7777.60
480.34	7737.81
480.52	7803.35
480.70	7691.00
480.88	7786.96
481.06	7920.37
481.24	7925.05
481.41	8042.08
481.59	8063.15
481.77	8128.68
481.95	8060.80
482.13	8269.11
482.31	8336.99
482.49	8414.23
482.67	8470.40
482.85	8432.95
483.03	8617.85
483.21	8758.28
483.39	8851.91
483.57	8725.52
483.74	9062.55
483.92	8917.44
484.10	9013.40
484.28	9327.03
484.46	9214.69
484.64	9551.73
484.82	9191.28
485.00	9415.98
485.18	9514.28
485.35	9537.68
485.53	9650.03
485.71	9643.01
485.89	9923.87
486.07	9858.34
486.25	9753.01
486.43	9799.82
486.61	9863.02
486.78	10169.63
486.96	10209.42
487.14	10246.87
487.32	10188.35
487.50	10317.08
487.68	10160.27
487.85	10516.03
488.03	10848.38
488.21	10686.89
488.39	10768.80
488.57	10892.85
488.75	10764.12
488.92	11330.53
489.10	11321.17
489.28	11269.68
489.46	11147.97
489.64	11470.97
489.81	11651.19
489.99	11756.51
490.17	11599.70
490.35	11903.96
490.53	11576.29
490.70	11903.96
490.88	11829.07
491.06	12091.21
491.24	11950.78
491.41	12224.62
491.59	12217.60
491.77	12318.24
491.95	12472.71
492.13	12685.70
492.30	12762.94
492.48	12512.50
492.66	12526.55
492.84	12556.97
493.01	12636.55
493.19	12779.32
493.37	13172.54
493.54	13289.56
493.72	13317.65
493.90	13226.37
494.08	13413.61
494.25	13411.27
494.43	13626.60
494.61	13710.86
494.79	13586.81
494.96	13497.87
495.14	13989.38
495.32	13776.39
495.49	14033.85
495.67	13909.80
495.85	14026.83
496.02	14157.90
496.20	14270.25
496.38	14303.01
496.55	14373.23
496.73	14410.68
496.91	14544.09
497.09	14518.34
497.26	14941.98
497.44	14544.09
497.62	14792.19
497.79	14860.06
497.97	14665.80
498.14	15197.10
498.32	15346.89
498.50	15098.80
498.67	15461.58
498.85	15147.95
499.03	15372.64
499.20	15208.80
499.38	15367.96
499.56	15541.16
499.73	15784.57
499.91	15651.16
500.08	15784.57
500.26	15616.05
500.44	15695.63
500.61	15941.39
500.79	15836.06
500.97	16006.92
501.14	16217.57
501.32	16123.95
501.49	16107.57
501.67	16119.27
501.84	16250.34
502.02	16343.96
502.20	16500.78
502.37	16432.90
502.55	16603.76
502.72	16484.39
502.90	16418.86
503.07	16381.41
503.25	16875.26
503.43	16786.32
503.60	16776.96
503.78	16889.31
503.95	16870.58
504.13	17001.65
504.30	16732.49
504.48	17039.10
504.65	17317.62
504.83	17268.47
505.01	17324.65
505.18	17537.63
505.36	17661.68
505.53	17621.89
505.71	17221.66
505.88	17619.55
506.06	17486.14
506.23	17853.61
506.41	17881.69
506.58	17853.61
506.76	17804.46
506.93	17715.51
507.11	18127.45
507.28	17874.67
507.46	18017.44
507.63	18338.10
507.81	18225.75
507.98	18026.81
508.16	17972.97
508.33	18326.39
508.50	18401.29
508.68	18059.57
508.85	18775.78
509.03	18455.12
509.20	18686.84
509.38	18906.85
509.55	18614.28
509.73	18771.10
509.90	18869.40
510.08	18750.03
510.25	18995.79
510.42	19183.03
510.60	19101.11
510.77	19094.09
510.95	19183.03
511.12	19159.63
511.30	18853.02
511.47	19283.67
511.64	19365.59
511.82	19672.20
511.99	19377.30
512.17	19557.52
512.34	19367.93
512.51	19716.67
512.69	19740.08
512.86	19836.04
513.04	19976.47
513.21	19932.00
513.38	20250.32
513.56	20053.71
513.73	19936.68
513.90	20044.35
514.08	19719.01
514.25	20093.50
514.43	20308.83
514.60	20306.49
514.77	20233.93
514.95	20594.37
515.12	20341.60
515.29	20559.27
515.47	20360.32
515.64	20751.19
515.81	20638.84
515.99	20746.51
516.16	20917.37
516.33	20964.18
516.51	21034.39
516.68	20615.44
516.85	20526.50
517.03	20662.25
517.20	21214.62
517.37	21488.46
517.54	21266.11
517.72	21170.15
517.89	20971.20
518.06	21104.61
518.24	21207.59
518.41	21200.57
518.58	21120.99
518.75	21219.30
518.93	21493.14
519.10	21429.94
519.27	22094.66
519.45	21474.42
519.62	21537.61
519.79	21099.93
519.96	21591.44
520.14	21537.61
520.31	21441.65
520.48	22202.32
520.65	21916.78
520.83	22106.36
521.00	21984.65
521.17	21790.39
521.34	21949.54
521.52	22497.23
521.69	22253.81
521.86	22331.05
522.03	22530.00
522.20	22312.33
522.38	22417.65
522.55	22300.62
522.72	22670.43
522.89	22139.13
523.07	22991.08
523.24	22672.77
523.41	22750.01
523.58	22326.37
523.75	22567.45
523.92	22366.16
524.10	22754.69
524.27	23007.47
524.44	22829.59
524.61	23103.43
524.78	23133.86
524.96	22944.27
525.13	23040.23
525.30	23403.02
525.47	22895.12
525.64	23040.23
525.81	23381.95
525.98	22995.76
526.16	23264.92
526.33	23342.16
526.50	23396.00
526.67	23180.67
526.84	23417.06
527.01	23496.64
527.18	23843.04
527.36	23351.52
527.53	23740.05
527.70	23564.51
527.87	24070.07
528.04	23232.16
528.21	23454.51
528.38	23803.25
528.55	23854.74
528.72	24070.07
528.89	23761.12
529.07	23920.28
529.24	23761.12
529.41	24151.99
529.58	24374.34
529.75	24203.48
529.92	23854.74
530.09	24247.95
530.26	24105.18
530.43	24514.77
530.60	24041.98
530.77	24474.98
530.94	24257.31
531.11	24236.25
531.28	24308.80
531.46	24498.39
531.63	24580.31
531.80	24500.73
531.97	24746.48
532.14	24744.14
532.31	24299.44
532.48	24528.81
532.65	24680.95
532.82	24711.38
532.99	24896.28
533.16	24746.48
533.33	24783.93
533.50	24898.62
533.67	25177.14
533.84	24847.13
534.01	25001.60
534.18	25245.02
534.35	25088.20
534.52	25111.61
534.69	25181.82
534.86	25383.11
535.03	25333.96
535.20	25394.81
535.37	25362.04
535.54	25785.68
535.71	25205.23
535.88	25401.83
536.05	25287.15
536.22	25493.12
536.38	25678.02
536.55	25680.36
536.72	25628.87
536.89	25603.12
537.06	25654.61
537.23	25839.51
537.40	25486.09
537.57	25511.84
537.74	25778.66
537.91	25883.98
538.08	25659.29
538.25	25771.64
538.42	25827.81
538.59	25846.54
538.75	25996.33
538.92	26228.04
539.09	25879.30
539.26	26155.49
539.43	26246.77
539.60	26455.08
539.77	26085.27
539.94	26424.65
540.11	26300.60
540.28	26321.66
540.44	26473.80
540.61	26244.43
540.78	26335.71
540.95	26249.11
541.12	26316.98
541.29	26288.90
541.46	26490.18
541.62	26448.05
541.79	26742.96
541.96	26267.83
542.13	26583.80
542.30	26647.00
542.47	26345.07
542.63	27180.64
542.80	26916.16
542.97	26871.69
543.14	27110.43
543.31	27021.48
543.48	26679.77
543.64	26932.54
543.81	27180.64
543.98	27370.22
544.15	27295.33
544.32	27424.06
544.48	27372.57
544.65	27051.91
544.82	27199.37
544.99	27253.20
545.16	27185.32
545.32	27302.35
545.49	27316.39
545.66	27791.52
545.83	27634.71
546.00	27510.66
546.16	27356.18
546.33	27295.33
546.50	27370.22
546.67	27391.29
546.83	27201.71
547.00	27288.31
547.17	27463.85
547.34	27555.13
547.50	27812.59
547.67	27887.48
547.84	27473.21
548.00	27894.50
548.17	27648.75
548.34	28020.89
548.51	27725.99
548.67	28182.39
548.84	27763.43
549.01	27901.53
549.18	28032.60
549.34	27824.29
549.51	27934.29
549.68	27892.16
549.84	27953.02
550.01	28060.68
550.18	27541.08
550.34	28191.75
550.51	28266.65
550.68	28128.56
550.84	28247.93
551.01	28006.85
551.18	28100.47
551.34	28060.68
551.51	28350.91
551.68	28332.18
551.84	28182.39
552.01	28458.57
552.18	28861.15
552.34	28093.45
552.51	28034.94
552.68	28379.00
552.84	28912.64
553.01	28254.95
553.18	28493.68
553.34	28610.71
553.51	28503.04
553.67	28807.31
553.84	29142.01
554.01	28587.30
554.17	28889.23
554.34	28680.92
554.51	28521.77
554.67	28973.49
554.84	28807.31
555.00	28973.49
555.17	29015.62
555.33	28552.20
555.50	28746.46
555.67	29010.94
555.83	28992.22
556.00	28711.35
556.16	28992.22
556.33	28989.88
556.50	29097.54
556.66	29111.58
556.83	29060.09
556.99	29177.12
557.16	29296.49
557.32	29352.66
557.49	29163.08
557.65	29116.26
557.82	29039.03
557.98	29001.58
558.15	29390.11
558.32	29015.62
558.48	29315.21
558.65	29556.28
558.81	29242.65
558.98	29436.92
559.14	29544.58
559.31	29310.53
559.47	29305.85
559.64	29284.78
559.80	29268.40
559.97	29537.56
560.13	29443.94
560.30	29535.22
560.46	29486.07
560.63	29778.64
560.79	29668.63
560.96	29394.79
561.12	29390.11
561.29	29326.91
561.45	29579.69
561.61	29596.07
561.78	29713.10
561.94	29802.04
562.11	29624.16
562.27	29731.83
562.44	29858.21
562.60	29993.97
562.77	29397.13
562.93	29846.51
563.10	29905.02
563.26	29699.06
563.42	30052.48
563.59	29759.91
563.75	30209.29
563.92	30426.96
564.08	29757.57
564.24	29937.79
564.41	29635.86
564.57	29579.69
564.74	29923.75
564.90	29546.92
565.07	29846.51
565.23	30209.29
565.39	29965.88
565.56	30073.54
565.72	29865.24
565.88	30031.41
566.05	29916.73
566.21	29841.83
566.38	29900.34
566.54	30080.56
566.70	30178.87
566.87	30183.55
567.03	30171.85
567.19	30225.68
567.36	30258.45
567.52	30181.21
567.68	30433.99
567.85	29795.02
568.01	30162.48
568.17	30419.94
568.34	30202.27
568.50	30249.08
568.66	30136.74
568.83	30391.86
568.99	30185.89
569.15	30478.46
569.32	30167.16
569.48	29680.33
569.64	30382.49
569.81	30211.64
569.97	29872.26
570.13	30230.36
570.30	29703.74
570.46	30295.89
570.62	30082.91
570.78	29888.64
570.95	30199.93
571.11	30277.17
571.27	30251.42
571.43	30169.51
571.60	30340.36
571.76	30096.95
571.92	30171.85
572.09	30457.39
572.25	30586.12
572.41	30644.63
572.57	30352.07
572.74	30473.78
572.90	30331.00
573.06	30045.46
573.22	30092.27
573.38	30429.30
573.55	30532.29
573.71	30335.68
573.87	30883.37
574.03	30740.60
574.20	30476.12
574.36	30476.12
574.52	30199.93
574.68	30197.59
574.84	30284.19
575.01	30450.37
575.17	30593.14
575.33	30464.41
575.49	30153.12
575.65	30286.53
575.82	30539.31
575.98	30705.49
576.14	30794.43
576.30	30749.96
576.46	30532.29
576.62	30499.52
576.79	30384.83
576.95	30061.84
577.11	30354.41
577.27	30459.73
577.43	30469.09
577.59	30555.69
577.75	31012.10
577.92	30089.93
578.08	30298.23
578.24	30520.59
578.40	30183.55
578.56	30923.16
578.72	30426.96
578.88	31084.65
579.04	31166.57
579.21	30728.89
579.37	30822.51
579.53	30995.71
579.69	30281.85
579.85	30724.21
580.01	30314.62
580.17	30429.30
580.33	30567.40
580.49	30930.18
580.65	30909.11
580.82	31019.12
580.98	30726.55
581.14	30876.35
581.30	30717.19
581.46	30513.56
581.62	30597.82
581.78	30614.21
581.94	30766.34
582.10	30707.83
582.26	30691.44
582.42	30661.02
582.58	31042.53
582.74	30960.61
582.90	31122.10
583.06	30501.86
583.22	30684.42
583.38	30974.65
583.54	30597.82
583.70	30668.04
583.86	30565.06
584.02	30567.40
584.18	30911.46
584.34	30742.94
584.50	30726.55
584.66	30462.07
584.82	30817.83
584.98	30628.25
585.14	30813.15
585.30	30541.65
585.46	30824.86
585.62	30431.65
585.78	30808.47
585.94	30232.70
586.10	30976.99
586.26	30876.35
586.42	30424.62
586.58	30831.88
586.74	30869.33
586.90	30560.37
587.06	30352.07
587.22	30993.37
587.38	30899.75
587.54	31094.02
587.70	31035.50
587.86	30878.69
588.02	30649.32
588.18	31110.40
588.34	30771.02
588.49	30878.69
588.65	31014.44
588.81	31021.46
588.97	30855.28
589.13	31051.89
589.29	30850.60
589.45	31316.37
589.61	30906.77
589.77	30995.71
589.93	31122.10
590.08	31227.43
590.24	31461.48
590.40	31040.18
590.56	31508.29
590.72	31152.53
590.88	30876.35
591.04	30871.67
591.20	31215.72
591.35	31302.32
591.51	31065.93
591.67	31323.39
591.83	31875.76
591.99	31391.26
592.15	31311.69
592.31	31353.82
592.46	30862.30
592.62	30890.39
592.78	31143.17
592.94	30899.75
593.10	31323.39
593.26	31138.49
593.41	31147.85
593.57	31344.45
593.73	31257.85
593.89	31433.39
594.05	30986.35
594.20	31159.55
594.36	31349.14
594.52	30705.49
594.68	31033.16
594.84	30941.88
594.99	31573.83
595.15	31524.68
595.31	31501.27
595.47	31604.25
595.62	31435.74
595.78	31094.02
595.94	31384.24
596.10	31168.91
596.25	31283.60
596.41	30958.27
596.57	30792.09
596.73	31243.81
596.88	31101.04
597.04	31337.43
597.20	31646.38
597.36	31257.85
597.51	31288.28
597.67	31473.18
597.83	31108.06
597.99	31552.76
598.14	31398.29
598.30	31449.78
598.46	31353.82
598.61	31344.45
598.77	31056.57
598.93	31618.30
599.09	31569.15
599.24	31697.88
599.40	31646.38
599.56	31857.03
599.71	31412.33
599.87	31417.01
600.03	31164.23
600.18	31337.43
600.34	30920.82
600.50	31342.11
600.65	31641.70
600.81	31587.87
600.97	31714.26
601.12	31768.09
601.28	31615.96
601.44	31679.15
601.59	31833.63
601.75	31356.16
601.91	31098.70
602.06	31477.86
602.22	31442.76
602.37	31171.25
602.53	31545.74
602.69	31487.23
602.84	31536.38
603.00	31227.43
603.16	31646.38
603.31	31154.87
603.47	31358.50
603.62	31058.91
603.78	31503.61
603.94	31370.20
604.09	31522.34
604.25	31344.45
604.40	31821.92
604.56	31519.99
604.71	31667.45
604.87	31803.20
605.03	31592.55
605.18	31391.26
605.34	31590.21
605.49	31262.54
605.65	31189.98
605.80	31374.88
605.96	31482.55
606.12	31208.70
606.27	31625.32
606.43	31421.69
606.58	31309.35
606.74	31419.35
606.89	31250.83
607.05	31414.67
607.20	31934.27
607.36	31587.87
607.51	31105.72
607.67	31051.89
607.82	31070.61
607.98	31440.42
608.13	31175.94
608.29	31267.22
608.44	31211.04
608.60	31414.67
608.75	30972.31
608.91	31225.09
609.06	31386.58
609.22	31220.41
609.37	31124.44
609.53	30946.56
609.68	31180.62
609.84	31122.10
609.99	30735.92
610.15	31136.15
610.30	31234.45
610.46	30787.41
610.61	31220.41
610.76	30995.71
610.92	30904.43
611.07	31192.32
611.23	30639.95
611.38	31274.24
611.54	30981.67
611.69	31047.21
611.84	30836.56
612.00	30969.97
612.15	30899.75
612.31	31075.29
612.46	31065.93
612.62	31009.76
612.77	30778.04
612.92	31302.32
613.08	30857.62
613.23	30705.49
613.39	31016.78
613.54	30878.69
613.69	31227.43
613.85	30614.21
614.00	30827.20
614.15	30766.34
614.31	30834.22
614.46	31042.53
614.62	30923.16
614.77	30948.90
614.92	30539.31
615.08	30967.63
615.23	31016.78
615.38	30553.35
615.54	30511.22
615.69	30553.35
615.84	30518.25
616.00	30827.20
616.15	30501.86
616.30	30874.01
616.46	30604.84
616.61	30670.38
616.76	31021.46
616.92	30623.57
617.07	30932.52
617.22	30497.18
617.37	30326.32
617.53	30686.76
617.68	30710.17
617.83	30061.84
617.99	30316.96
618.14	30506.54
618.29	30593.14
618.45	30129.72
618.60	30302.92
618.75	29968.22
618.90	30431.65
619.06	30614.21
619.21	30623.57
619.36	30426.96
619.51	30118.01
619.67	30312.28
619.82	30361.43
619.97	30253.76
620.12	30103.97
620.28	30150.78
620.43	30560.37
620.58	30417.60
620.73	30253.76
620.89	30370.79
621.04	30508.88
621.19	30380.15
621.34	30513.56
621.49	29762.25
621.65	30153.12
621.80	29905.02
621.95	30178.87
622.10	30335.68
622.25	30108.65
622.41	29745.87
622.56	30354.41
622.71	30527.61
622.86	29890.98
623.01	29879.28
623.16	29785.66
623.32	29813.74
623.47	30223.34
623.62	30281.85
623.77	29855.87
623.92	29809.06
624.07	30071.20
624.23	29617.14
624.38	29565.65
624.53	30118.01
624.68	30340.36
624.83	30057.16
624.98	29816.08
625.13	29788.00
625.29	29881.62
625.44	29935.45
625.59	29469.69
625.74	29722.46
625.89	29642.88
626.04	29457.98
626.19	29378.40
626.34	29509.47
626.49	29570.33
626.65	29266.06
626.80	29628.84
626.95	29626.50
627.10	29584.37
627.25	29537.56
627.40	29563.31
627.55	28992.22
627.70	29535.22
627.85	29565.65
628.00	29099.88
628.15	29521.18
628.30	29282.44
628.45	29820.77
628.60	29207.55
628.76	29944.81
628.91	29284.78
629.06	29523.52
629.21	29310.53
629.36	29233.29
629.51	29010.94
629.66	28741.78
629.81	29240.31
629.96	29095.20
630.11	29048.39
630.26	28861.15
630.41	28924.34
630.56	29125.63
630.71	28870.51
630.86	29324.57
631.01	29380.74
631.16	29237.97
631.31	29032.00
631.46	29064.77
631.61	29233.29
631.76	29156.05
631.91	28945.41
632.06	28914.98
632.21	28634.11
632.36	28666.88
632.51	28364.95
632.66	28992.22
632.81	28503.04
632.96	28943.06
633.10	28840.08
633.25	28858.81
633.40	28945.41
633.55	28362.61
633.70	28870.51
633.85	28465.60
634.00	28498.36
634.15	28837.74
634.30	28484.32
634.45	28624.75
634.60	28254.95
634.75	28587.30
634.90	28496.02
635.05	29076.48
635.19	28753.48
635.34	28669.22
635.49	28765.18
635.64	28421.13
635.79	28919.66
635.94	28481.98
636.09	28554.54
636.24	28074.73
636.39	28556.88
636.53	28364.95
636.68	28301.76
636.83	28463.25
636.98	28250.27
637.13	28390.70
637.28	28910.30
637.43	28486.66
637.57	28154.30
637.72	28294.74
637.87	28491.34
638.02	28573.26
638.17	28238.56
638.32	27770.46
638.46	27857.06
638.61	27946.00
638.76	27791.52
638.91	27653.43
639.06	27969.40
639.20	27983.44
639.35	27634.71
639.50	28088.77
639.65	27943.66
639.80	28318.14
639.94	28046.64
640.09	28376.66
640.24	28009.19
640.39	27840.67
640.54	27885.14
640.68	27718.96
640.83	27931.95
640.98	27566.83
641.13	27557.47
641.27	28133.24
641.42	27482.57
641.57	27826.63
641.72	27915.57
641.86	27777.48
642.01	27957.70
642.16	27810.25
642.31	27716.62
642.45	27314.05
642.60	27337.46
642.75	27363.20
642.90	27199.37
643.04	27295.33
643.19	27524.70
643.34	27262.56
643.48	27683.86
643.63	27407.67
643.78	27281.28
643.93	27592.58
644.07	27445.12
644.22	27473.21
644.37	27365.54
644.51	27428.74
644.66	27412.35
644.81	26876.37
644.95	27545.76
645.10	27124.47
645.25	27520.02
645.39	27384.27
645.54	27325.75
645.69	27236.81
645.83	27384.27
645.98	27384.27
646.13	27395.97
646.27	27599.60
646.42	27173.62
646.57	27037.87
646.71	27009.78
646.86	27541.08
647.00	26951.27
647.15	26941.91
647.30	26977.01
647.44	26782.75
647.59	26974.67
647.74	27201.71
647.88	27232.13
648.03	27009.78
648.17	27154.90
648.32	27475.55
648.47	27426.40
648.61	27072.98
648.76	26735.94
648.90	27005.10
649.05	27082.34
649.20	26817.86
649.34	26583.80
649.49	26567.42
649.63	26771.05
649.78	26679.77
649.92	26874.03
650.07	26937.23
650.21	26567.42
650.36	26822.54
650.51	26525.29
650.65	26867.01
650.80	26974.67
650.94	26855.31
651.09	26689.13
651.23	26525.29
651.38	26703.17
651.52	26544.02
651.67	26480.82
651.81	26520.61
651.96	26586.15
652.10	26862.33
652.25	26958.29
652.39	26527.63
652.54	26693.81
652.68	26838.92
652.83	26553.38
652.97	26745.30
653.12	26504.23
653.26	26614.23
653.41	26466.78
653.55	26398.90
653.70	26314.64
653.84	26307.62
653.99	26251.45
654.13	26384.86
654.27	26134.42
654.42	26675.09
654.56	26309.96
654.71	26654.02
654.85	26270.17
655.00	26518.27
655.14	25907.39
655.29	26525.29
655.43	26466.78
655.57	25921.43
655.72	26249.11
655.86	26075.91
656.01	26057.18
656.15	25947.18
656.30	26106.34
656.44	25984.63
656.58	25680.36
656.73	25965.90
656.87	26120.38
657.01	26033.78
657.16	26139.10
657.30	25926.11
657.45	25764.62
657.59	26125.06
657.73	25935.48
657.88	25841.85
658.02	25521.20
658.16	25947.18
658.31	25458.01
658.45	25626.53
658.60	25439.28
658.74	25563.33
658.88	25720.15
659.03	25649.93
659.17	25956.54
659.31	26047.82
659.46	25778.66
659.60	25872.28
659.74	25245.02
659.89	25383.11
660.03	25666.31
660.17	25212.25
660.32	25071.82
660.46	25338.64
660.60	25289.49
660.74	25088.20
660.89	25319.92
661.03	24980.54
661.17	25432.26
661.32	25076.50
661.46	25113.95
661.60	25013.31
661.74	24875.21
661.89	25181.82
662.03	25200.55
662.17	24966.49
662.31	24802.66
662.46	25062.46
662.60	25090.54
662.74	24978.20
662.88	25209.91
663.03	24442.21
663.17	24809.68
663.31	24474.98
663.45	24790.95
663.60	24814.36
663.74	24376.68
663.88	24636.48
664.02	24566.26
664.17	25184.16
664.31	24800.32
664.45	24402.43
664.59	24793.29
664.73	24505.41
664.88	24423.49
665.02	24105.18
665.16	24112.20
665.30	24112.20
665.44	24182.42
665.59	24137.94
665.73	24320.51
665.87	24046.66
666.01	24273.70
666.15	24144.97
666.29	24023.26
666.44	24191.78
666.58	23702.61
666.72	23798.57
666.86	24182.42
667.00	24107.52
667.14	23929.64
667.28	23742.39
667.43	24046.66
667.57	24088.79
667.71	23646.43
667.85	23592.60
667.99	23592.60
668.13	23571.54
668.27	23639.41
668.41	23604.30
668.56	23433.44
668.70	23562.17
668.84	23435.78
668.98	23681.54
669.12	23606.64
669.26	23740.05
669.40	23372.59
669.54	23269.61
669.68	23379.61
669.82	23332.80
669.96	23007.47
670.10	23035.55
670.25	23197.05
670.39	22916.19
670.53	23049.60
670.67	22974.70
670.81	22946.61
670.95	22941.93
671.09	23264.92
671.23	23005.13
671.37	22703.20
671.51	23030.87
671.65	22951.29
671.79	22934.91
671.93	22750.01
672.07	22600.21
672.21	22544.04
672.35	22590.85
672.49	22419.99
672.63	22572.13
672.77	22363.82
672.91	22623.62
673.05	22239.77
673.19	22354.46
673.33	22335.73
673.47	22230.41
673.61	22164.87
673.75	22216.36
673.89	22185.94
674.03	22216.36
674.17	22122.74
674.31	21816.13
674.45	21858.26
674.59	21750.60
674.73	21607.83
674.87	21785.71
675.01	21642.93
675.15	21659.32
675.29	21647.61
675.43	21638.25
675.56	21865.28
675.70	21860.60
675.84	21851.24
675.98	20875.24
676.12	21603.14
676.26	21851.24
676.40	21338.66
676.54	21205.25
676.68	21507.18
676.82	20982.90
676.96	21067.16
677.10	21235.68
677.23	21020.35
677.37	21062.48
677.51	20692.68
677.65	20706.72
677.79	20397.77
677.93	20538.20
678.07	20446.92
678.21	20470.33
678.34	20531.18
678.48	20542.88
678.62	20357.98
678.76	20271.38
678.90	20074.77
679.04	20318.19
679.18	20100.52
679.31	20098.18
679.45	19974.13
679.59	20009.24
679.73	19770.51
679.87	19857.10
680.00	19625.39
680.14	19520.07
680.28	19651.14
680.42	19370.27
680.56	19775.19
680.70	19442.83
680.83	19536.45
680.97	19793.91
681.11	19496.66
681.25	19206.44
681.39	19257.93
681.52	19449.85
681.66	19080.05
681.80	19009.83
681.94	18970.04
682.07	19033.24
682.21	19103.45
682.35	18567.47
682.49	18579.17
682.62	18604.92
682.76	18656.41
682.90	18974.72
683.04	18773.44
683.17	18799.18
683.31	18621.30
683.45	18593.22
683.59	18494.91
683.72	18752.37
683.86	18412.99
684.00	18464.49
684.13	17774.03
684.27	18207.03
684.41	18249.16
684.55	17968.29
684.68	17937.87
684.82	17916.80
684.96	17504.87
685.09	17671.04
685.23	17530.61
685.37	17933.18
685.50	17425.29
685.64	17542.32
685.78	17652.32
685.91	17617.21
686.05	17575.08
686.19	17226.34
686.32	17549.34
686.46	17125.70
686.60	16964.20
686.73	17301.24
686.87	17102.29
687.01	17025.06
687.14	16833.13
687.28	16800.37
687.42	17018.04
687.55	16554.61
687.69	16730.15
687.82	16886.97
687.96	16690.36
688.10	16549.93
688.23	16456.31
688.37	16489.07
688.50	16676.32
688.64	16468.01
688.78	16018.63
688.91	16205.87
689.05	15880.53
689.18	16023.31
689.32	15981.18
689.46	15882.88
689.59	16046.71
689.73	15922.66
689.86	15538.82
690.00	15613.71
690.13	15697.97
690.27	15669.89
690.41	15936.71
690.54	15688.61
690.68	15506.05
690.81	15695.63
690.95	15728.40
691.08	15562.22
691.22	15358.60
691.35	15318.81
691.49	15365.62
691.62	15360.94
691.76	14941.98
691.89	15150.29
692.03	14902.19
692.16	14927.94
692.30	14897.51
692.43	14939.64
692.57	14717.29
692.70	14670.48
692.84	14541.75
692.97	14609.62
693.11	14677.50
693.24	14356.85
693.38	14410.68
693.51	14359.19
693.65	14508.98
693.78	14202.37
693.92	14501.96
694.05	14279.61
694.19	14218.75
694.32	14401.32
694.45	14087.68
694.59	13965.98
694.72	13860.65
694.86	14040.87
694.99	13930.87
695.13	13926.19
695.26	13682.77
695.39	13715.54
695.53	13692.13
695.66	13650.00
695.80	13561.06
695.93	13540.00
696.07	13495.53
696.20	13668.73
696.33	13369.14
696.47	13284.88
696.60	13170.19
696.73	13193.60
696.87	13284.88
697.00	13249.77
697.14	13099.98
697.27	12959.55
697.40	12601.44
697.54	12760.60
697.67	12599.10
697.80	12636.55
697.94	12683.36
698.07	12620.17
698.21	12671.66
698.34	12493.78
698.47	12734.85
698.61	12425.90
698.74	12430.59
698.87	12603.78
699.01	12269.09
699.14	12133.34
699.27	11995.25
699.40	12341.64
699.54	12063.12
699.67	12011.63
699.80	11941.41
699.94	12098.23
700.07	11611.40
700.20	11793.96
700.34	11815.02
700.47	11529.48
700.60	11618.42
700.73	11667.57
700.87	11573.95
701.00	11351.60
701.13	11606.72
701.26	11412.45
701.40	11499.05
701.53	11176.06
701.66	11384.37
701.79	11290.74
701.93	11379.68
702.06	11000.52
702.19	11126.91
702.32	11014.56
702.46	10965.41
702.59	10888.17
702.72	10843.70
702.85	10689.23
702.99	10717.31
703.12	10764.12
703.25	10782.85
703.38	10649.44
703.51	10530.07
703.65	10752.42
703.78	10747.74
703.91	10586.24
704.04	10501.98
704.17	10635.39
704.31	10384.96
704.44	10237.50
704.57	10300.70
704.70	10366.23
704.83	10164.95
704.96	9947.28
705.10	9884.08
705.23	10101.75
>>>>>End Processed Spectral Data<<<<<
