SpectraSuite Data File
++++++++++++++++++++++++++++++++++++
Date: Fri Oct 18 13:58:35 GMT-05:00 2013
User: bianchi
Dark Spectrum Present: No
Reference Spectrum Present: No
Number of Sampled Component Spectra: 1
Spectrometers: USB2+H05261
Integration Time (usec): 50000 (USB2+H05261)
Spectra Averaged: 1 (USB2+H05261)
Boxcar Smoothing: 0 (USB2+H05261)
Correct for Electrical Dark: No (USB2+H05261)
Strobe/Lamp Enabled: No (USB2+H05261)
Correct for Detector Non-linearity: No (USB2+H05261)
Correct for Stray Light: No (USB2+H05261)
Number of Pixels in Processed Spectrum: 2048
>>>>>Begin Processed Spectral Data<<<<<
365.73	0.00
365.92	0.00
366.12	0.00
366.32	0.00
366.52	0.00
366.72	0.00
366.91	0.00
367.11	0.00
367.31	0.00
367.51	0.00
367.70	0.00
367.90	0.00
368.10	0.00
368.30	0.00
368.49	0.00
368.69	0.00
368.89	0.00
369.09	0.00
369.28	0.00
369.48	0.00
369.68	0.00
369.87	0.00
370.07	0.00
370.27	0.00
370.47	0.00
370.66	65.54
370.86	88.94
371.06	175.54
371.25	126.39
371.45	175.54
371.65	198.95
371.84	205.97
372.04	177.88
372.24	208.31
372.44	138.09
372.63	234.05
372.83	248.10
373.03	208.31
373.22	175.54
373.42	231.71
373.62	222.35
373.81	266.82
374.01	252.78
374.21	196.60
374.40	252.78
374.60	238.73
374.79	299.59
374.99	196.60
375.19	224.69
375.38	203.63
375.58	262.14
375.78	301.93
375.97	220.01
376.17	341.72
376.37	222.35
376.56	227.03
376.76	257.46
376.95	250.44
377.15	369.80
377.35	220.01
377.54	243.42
377.74	315.97
377.93	262.14
378.13	332.36
378.33	264.48
378.52	304.27
378.72	224.69
378.91	250.44
379.11	222.35
379.31	315.97
379.50	273.84
379.70	397.89
379.89	278.52
380.09	264.48
380.28	353.42
380.48	346.40
380.68	339.38
380.87	294.91
381.07	294.91
381.26	360.44
381.46	407.25
381.65	327.68
381.85	315.97
382.04	355.76
382.24	372.15
382.43	306.61
382.63	313.63
382.83	273.84
383.02	390.87
383.22	369.80
383.41	372.15
383.61	341.72
383.80	294.91
384.00	470.45
384.19	320.65
384.39	362.78
384.58	362.78
384.78	393.21
384.97	362.78
385.17	381.51
385.36	355.76
385.56	379.17
385.75	374.49
385.95	390.87
386.14	376.83
386.34	442.36
386.53	437.68
386.72	442.36
386.92	489.17
387.11	505.56
387.31	463.43
387.50	407.25
387.70	447.04
387.89	390.87
388.09	402.57
388.28	433.00
388.48	512.58
388.67	461.09
388.86	454.06
389.06	479.81
389.25	477.47
389.45	538.32
389.64	519.60
389.84	486.83
390.03	475.13
390.22	550.03
390.42	519.60
390.61	514.92
390.81	505.56
391.00	489.17
391.19	547.69
391.39	463.43
391.58	496.19
391.78	496.19
391.97	543.00
392.16	470.45
392.36	568.75
392.55	552.37
392.75	468.11
392.94	505.56
393.13	500.87
393.33	571.09
393.52	624.92
393.71	601.52
393.91	503.22
394.10	613.22
394.29	589.82
394.49	596.84
394.68	610.88
394.88	550.03
395.07	617.90
395.26	599.18
395.46	650.67
395.65	624.92
395.84	552.37
396.04	685.78
396.23	582.79
396.42	535.98
396.62	650.67
396.81	711.52
397.00	727.91
397.19	674.07
397.39	676.41
397.58	664.71
397.77	699.82
397.97	645.99
398.16	638.97
398.35	709.18
398.55	730.25
398.74	739.61
398.93	718.54
399.12	622.58
399.32	674.07
399.51	805.14
399.70	781.74
399.90	741.95
400.09	809.83
400.28	835.57
400.47	746.63
400.67	791.10
400.86	751.31
401.05	844.93
401.24	812.17
401.44	835.57
401.63	760.67
401.82	765.36
402.01	732.59
402.21	774.72
402.40	849.61
402.59	901.11
402.78	849.61
402.97	887.06
403.17	798.12
403.36	866.00
403.55	856.64
403.74	863.66
403.93	849.61
404.13	1015.79
404.32	851.96
404.51	908.13
404.70	961.96
404.89	903.45
405.09	894.08
405.28	894.08
405.47	912.81
405.66	1053.24
405.85	1039.20
406.05	954.94
406.24	978.34
406.43	971.32
406.62	1029.84
406.81	1013.45
407.00	976.00
407.20	1041.54
407.39	1020.47
407.58	1064.94
407.77	1177.29
407.96	1081.33
408.15	1083.67
408.34	1144.52
408.54	1095.37
408.73	1086.01
408.92	1093.03
409.11	1130.48
409.30	1156.22
409.49	1196.01
409.68	1181.97
409.87	1043.88
410.07	1200.69
410.26	1233.46
410.45	1245.16
410.64	1219.42
410.83	1160.91
411.02	1207.72
411.21	1266.23
411.40	1184.31
411.59	1273.25
411.78	1221.76
411.98	1261.55
412.17	1313.04
412.36	1317.72
412.55	1416.02
412.74	1343.47
412.93	1299.00
413.12	1338.79
413.31	1390.28
413.50	1423.05
413.69	1387.94
413.88	1357.51
414.07	1476.88
414.26	1355.17
414.45	1483.90
414.64	1540.07
414.83	1486.24
415.02	1486.24
415.22	1516.67
415.41	1591.56
415.60	1497.94
415.79	1619.65
415.98	1519.01
416.17	1659.44
416.36	1535.39
416.55	1551.78
416.74	1678.16
416.93	1570.50
417.12	1727.32
417.31	1729.66
417.50	1753.06
417.69	1710.93
417.88	1671.14
418.07	1722.63
418.26	1694.55
418.45	1729.66
418.64	1842.00
418.83	1764.76
419.02	1753.06
419.21	1739.02
419.39	1771.79
419.58	1926.26
419.77	1788.17
419.96	1827.96
420.15	1891.15
420.34	1940.30
420.53	1846.68
420.72	1851.36
420.91	1928.60
421.10	1956.69
421.29	1872.43
421.48	1902.86
421.67	2026.90
421.86	1921.58
422.05	1954.35
422.24	1963.71
422.43	1895.83
422.61	1966.05
422.80	1952.01
422.99	2026.90
423.18	1989.46
423.37	2010.52
423.56	1919.24
423.75	2057.33
423.94	1928.60
424.13	1809.23
424.32	1949.67
424.50	1891.15
424.69	2101.80
424.88	2038.61
425.07	1942.64
425.26	1996.48
425.45	2029.24
425.64	2050.31
425.83	1959.03
426.01	2066.69
426.20	2101.80
426.39	2115.84
426.58	2069.03
426.77	2099.46
426.96	2026.90
427.15	2129.89
427.33	2111.16
427.52	2132.23
427.71	2150.95
427.90	2246.91
428.09	2305.43
428.28	2179.04
428.46	2293.72
428.65	2211.81
428.84	2197.76
429.03	2270.32
429.22	2125.21
429.40	2333.51
429.59	2223.51
429.78	2211.81
429.97	2183.72
430.16	2165.00
430.34	2345.22
430.53	2340.54
430.72	2340.54
430.91	2324.15
431.10	2282.02
431.28	2443.52
431.47	2436.50
431.66	2504.37
431.85	2436.50
432.03	2347.56
432.22	2520.76
432.41	2483.31
432.60	2544.16
432.79	2495.01
432.97	2621.40
433.16	2569.91
433.35	2565.23
433.54	2462.24
433.72	2612.04
433.91	2403.73
434.10	2497.35
434.28	2548.84
434.47	2576.93
434.66	2523.10
434.85	2574.59
435.03	2600.34
435.22	2572.25
435.41	2593.31
435.59	2708.00
435.78	2640.12
435.97	2647.15
436.16	2630.76
436.34	2703.32
436.53	2555.86
436.72	2740.77
436.90	2691.62
437.09	2745.45
437.28	2623.74
437.46	2806.30
437.65	2731.41
437.84	2794.60
438.02	2757.15
438.21	2855.45
438.40	2750.13
438.58	2904.60
438.77	2876.52
438.96	2963.12
439.14	3019.29
439.33	3028.65
439.52	2993.55
439.70	3005.25
439.89	2998.23
440.08	2951.42
440.26	3098.87
440.45	3129.30
440.63	3126.96
440.82	3162.06
441.01	3143.34
441.19	3155.04
441.38	3094.19
441.57	3251.00
441.75	3279.09
441.94	3321.22
442.12	3236.96
442.31	3316.54
442.50	3255.69
442.68	3428.88
442.87	3197.17
443.05	3370.37
443.24	3396.12
443.43	3234.62
443.61	3363.35
443.80	3421.86
443.98	3281.43
444.17	3286.11
444.35	3435.91
444.54	3581.02
444.73	3384.41
444.91	3569.32
445.10	3487.40
445.28	3330.58
445.47	3288.45
445.65	3426.54
445.84	3428.88
446.02	3517.83
446.21	3442.93
446.39	3543.57
446.58	3503.78
446.77	3538.89
446.95	3529.53
447.14	3489.74
447.32	3475.70
447.51	3400.80
447.69	3583.36
447.88	3583.36
448.06	3590.38
448.25	3463.99
448.43	3478.04
448.62	3616.13
448.80	3503.78
448.99	3606.77
449.17	3583.36
449.36	3543.57
449.54	3754.22
449.73	3653.58
449.91	3744.86
450.10	3772.94
450.28	3765.92
450.46	3674.64
450.65	3852.52
450.83	3836.14
451.02	3564.64
451.20	3857.20
451.39	3899.33
451.57	3775.28
451.76	3782.31
451.94	3782.31
452.13	3878.27
452.31	3803.37
452.49	3829.12
452.68	3805.71
452.86	3962.53
453.05	3868.91
453.23	3964.87
453.42	3908.69
453.60	3803.37
453.78	3892.31
453.97	3845.50
454.15	3969.55
454.34	3950.82
454.52	4112.32
454.70	4079.55
454.89	3934.44
455.07	4032.74
455.26	4187.22
455.44	4217.65
455.62	4109.98
455.81	3950.82
455.99	4119.34
456.17	4152.11
456.36	4262.12
456.54	4177.86
456.73	4231.69
456.91	4241.05
457.09	4280.84
457.28	4489.15
457.46	4219.99
457.64	4325.31
457.83	4351.06
458.01	4238.71
458.19	4372.12
458.38	4379.14
458.56	4521.92
458.74	4472.76
458.93	4456.38
459.11	4418.93
459.29	4365.10
459.48	4498.51
459.66	4440.00
459.84	4528.94
460.03	4638.94
460.21	4603.83
460.39	4432.97
460.57	4699.80
460.76	4571.07
460.94	4678.73
461.12	4681.07
461.31	4538.30
461.49	4521.92
461.67	4645.96
461.85	4746.61
462.04	4657.67
462.22	4837.89
462.40	4720.86
462.59	4814.48
462.77	4868.31
462.95	4786.40
463.13	4664.69
463.32	4830.87
463.50	4816.82
463.68	4793.42
463.86	4961.94
464.05	4940.87
464.23	4873.00
464.41	4994.70
464.59	4898.74
464.78	5095.35
464.96	4905.76
465.14	4910.44
465.32	5050.88
465.50	5053.22
465.69	5034.49
465.87	4865.97
466.05	5011.09
466.23	4966.62
466.41	5067.26
466.60	5219.39
466.78	5095.35
466.96	4983.00
467.14	5057.90
467.32	5102.37
467.51	5118.75
467.69	5034.49
467.87	5151.52
468.05	5158.54
468.23	5118.75
468.41	5116.41
468.60	5097.69
468.78	5221.74
468.96	5277.91
469.14	5242.80
469.32	5287.27
469.50	5048.54
469.69	5270.89
469.87	5493.24
470.05	5397.28
470.23	5348.12
470.41	5408.98
470.59	5451.11
470.77	5444.09
470.95	5584.52
471.14	5565.79
471.32	5437.06
471.50	5673.46
471.68	5528.35
471.86	5617.29
472.04	5612.60
472.22	5933.26
472.40	5619.63
472.58	5710.91
472.77	5792.83
472.95	5701.54
473.13	5963.68
473.31	5870.06
473.49	5827.93
473.67	5846.66
473.85	5750.70
474.03	6186.04
474.21	6019.86
474.39	6005.81
474.57	6059.65
474.75	6232.85
474.93	6211.78
475.12	6164.97
475.30	6167.31
475.48	6181.35
475.66	6169.65
475.84	6270.30
476.02	6314.77
476.20	6277.32
476.38	6427.11
476.56	6518.39
476.74	6487.96
476.92	6572.22
477.10	6530.09
477.28	6661.16
477.46	6668.19
477.64	6787.55
477.82	6946.71
478.00	6925.65
478.18	6995.86
478.36	6916.28
478.54	7101.19
478.72	7124.59
478.90	7386.73
479.08	7115.23
479.26	7227.57
479.44	7304.81
479.62	7274.38
479.80	7335.24
479.98	7520.14
480.16	7623.12
480.34	7529.50
480.52	7667.60
480.70	7803.35
480.88	7433.54
481.06	7637.17
481.24	7665.25
481.41	7920.37
481.59	7969.52
481.77	8056.12
481.95	8016.33
482.13	8243.37
482.31	8131.02
482.49	8210.60
482.67	8381.46
482.85	8573.38
483.03	8568.70
483.21	8379.12
483.39	8521.89
483.57	8449.33
483.74	8524.23
483.92	8697.43
484.10	8648.28
484.28	8985.32
484.46	8952.55
484.64	9170.22
484.82	9305.97
485.00	9315.33
485.18	9385.55
485.35	9455.76
485.53	9355.12
485.71	9359.80
485.89	9724.93
486.07	9535.34
486.25	9605.56
486.43	9769.40
486.61	9738.97
486.78	10005.79
486.96	9790.46
487.14	10026.86
487.32	10183.67
487.50	10111.11
487.68	10195.37
487.85	10193.03
488.03	10539.43
488.21	10590.92
488.39	10609.65
488.57	10946.69
488.75	10693.91
488.92	11143.29
489.10	11066.05
489.28	10953.71
489.46	11105.84
489.64	10906.90
489.81	11253.30
489.99	11375.00
490.17	11342.24
490.35	11719.06
490.53	11592.67
490.70	11871.20
490.88	11740.13
491.06	11770.55
491.24	11749.49
491.41	11836.09
491.59	12133.34
491.77	12128.66
491.95	12074.82
492.13	12145.04
492.30	12009.29
492.48	12512.50
492.66	12498.46
492.84	12603.78
493.01	12552.29
493.19	12582.72
493.37	13125.72
493.54	12896.35
493.72	13144.45
493.90	12952.52
494.08	13015.72
494.25	13025.08
494.43	13345.73
494.61	13331.69
494.79	13479.15
494.96	13212.32
495.14	13322.33
495.32	13582.13
495.49	13916.83
495.67	13437.02
495.85	13816.18
496.02	13846.61
496.20	14125.13
496.38	14024.49
496.55	13851.29
496.73	14389.61
496.91	14242.16
497.09	14237.48
497.26	14328.76
497.44	14335.78
497.62	14415.36
497.79	14792.19
497.97	14757.08
498.14	15070.71
498.32	14548.77
498.50	15152.63
498.67	14963.04
498.85	14871.76
499.03	15042.62
499.20	14993.47
499.38	14974.75
499.56	15236.89
499.73	15318.81
499.91	15353.91
500.08	15597.33
500.26	15339.87
500.44	15487.32
500.61	15681.59
500.79	15594.99
500.97	16060.76
501.14	15925.00
501.32	16201.19
501.49	15723.72
501.67	15604.35
501.84	15775.21
502.02	16231.62
502.20	16128.63
502.37	16114.59
502.55	16100.55
502.72	16198.85
502.90	16219.91
503.07	15971.82
503.25	16177.78
503.43	16439.92
503.60	16470.35
503.78	16376.73
503.95	16489.07
504.13	16638.87
504.30	16685.68
504.48	16528.86
504.65	16800.37
504.83	16996.97
505.01	17303.58
505.18	16849.52
505.36	17240.39
505.53	17231.02
505.71	16975.91
505.88	17282.52
506.06	17074.21
506.23	17090.59
506.41	17589.13
506.58	17488.48
506.76	17792.75
506.93	17507.21
507.11	17530.61
507.28	17319.96
507.46	17488.48
507.63	17827.86
507.81	17961.27
507.98	17483.80
508.16	17848.93
508.33	17919.14
508.50	17816.16
508.68	17867.65
508.85	18328.74
509.03	17961.27
509.20	18277.24
509.38	18387.25
509.55	18235.11
509.73	18471.51
509.90	18408.31
510.08	18422.36
510.25	18459.81
510.42	18628.32
510.60	18806.20
510.77	18691.52
510.95	18630.66
511.12	18932.59
511.30	18707.90
511.47	18778.12
511.64	19009.83
511.82	18993.45
511.99	19290.70
512.17	19173.67
512.34	19255.59
512.51	19377.30
512.69	19239.20
512.86	18979.40
513.04	19609.01
513.21	19393.68
513.38	19674.54
513.56	19665.18
513.73	19534.11
513.90	19534.11
514.08	19704.97
514.25	19669.86
514.43	19878.17
514.60	19836.04
514.77	19653.48
514.95	19765.82
515.12	19672.20
515.29	19658.16
515.47	20091.16
515.64	19939.02
515.81	20191.80
515.99	20144.99
516.16	20369.68
516.33	20074.77
516.51	20414.15
516.68	20280.74
516.85	20467.98
517.03	20535.86
517.20	20718.42
517.37	20432.88
517.54	20826.09
517.72	20617.78
517.89	20460.96
518.06	20702.04
518.24	20872.90
518.41	20868.22
518.58	20718.42
518.75	20741.83
518.93	20966.52
519.10	21120.99
519.27	21427.60
519.45	20900.98
519.62	21223.98
519.79	21160.78
519.96	20891.62
520.14	21291.85
520.31	21200.57
520.48	21371.43
520.65	21153.76
520.83	21373.77
521.00	21565.70
521.17	21631.23
521.34	21434.63
521.52	21631.23
521.69	21741.24
521.86	21937.84
522.03	21799.75
522.20	21965.93
522.38	22029.12
522.55	22094.66
522.72	22033.80
522.89	22108.70
523.07	22251.47
523.24	22085.30
523.41	22223.39
523.58	22054.87
523.75	22078.27
523.92	22377.86
524.10	22082.95
524.27	22410.63
524.44	22405.95
524.61	22586.17
524.78	22721.92
524.96	22569.79
525.13	22356.80
525.30	22623.62
525.47	22661.07
525.64	22267.86
525.81	22977.04
525.98	22881.08
526.16	23131.51
526.33	22794.48
526.50	23297.69
526.67	23058.96
526.84	22867.03
527.01	23126.83
527.18	23183.01
527.36	23257.90
527.53	23260.24
527.70	23363.23
527.87	23527.06
528.04	23204.07
528.21	23384.29
528.38	23222.80
528.55	23484.94
528.72	23506.00
528.89	23482.59
529.07	23506.00
529.24	23431.10
529.41	23431.10
529.58	23669.84
529.75	23927.30
529.92	23906.23
530.09	23779.84
530.26	23864.10
530.43	23796.23
530.60	23836.02
530.77	23960.06
530.94	23772.82
531.11	23702.61
531.28	23669.84
531.46	23676.86
531.63	23969.43
531.80	24002.19
531.97	24182.42
532.14	24404.77
532.31	24362.64
532.48	24091.13
532.65	24336.89
532.82	23880.49
532.99	24086.45
533.16	24105.18
533.33	24510.09
533.50	24882.24
533.67	24634.14
533.84	24173.05
534.01	24510.09
534.18	24446.90
534.35	24545.20
534.52	24367.32
534.69	24676.27
534.86	24898.62
535.03	24524.13
535.20	24802.66
535.37	24514.77
535.54	25006.28
535.71	24893.94
535.88	25053.09
536.05	25003.94
536.22	24786.27
536.38	25017.99
536.55	24851.81
536.72	25366.73
536.89	24781.59
537.06	25022.67
537.23	25380.77
537.40	25240.34
537.57	25127.99
537.74	24975.86
537.91	25312.89
538.08	25535.24
538.25	25589.08
538.42	25415.88
538.59	25509.50
538.75	24884.58
538.92	25703.76
539.09	25413.54
539.26	25469.71
539.43	25383.11
539.60	25881.64
539.77	25680.36
539.94	25706.10
540.11	25834.83
540.28	25490.77
540.44	25734.19
540.61	25710.78
540.78	25680.36
540.95	25862.92
541.12	25827.81
541.29	26036.12
541.46	26316.98
541.62	25502.48
541.79	25933.14
541.96	25729.51
542.13	25715.47
542.30	25993.99
542.47	26188.25
542.63	26064.21
542.80	26206.98
542.97	26335.71
543.14	26307.62
543.31	26066.55
543.48	26214.00
543.64	26539.33
543.81	26405.92
543.98	26401.24
544.15	26670.40
544.32	26637.64
544.48	26991.06
544.65	26635.30
544.82	26658.70
544.99	26324.01
545.16	26686.79
545.32	26579.12
545.49	27016.80
545.66	27152.55
545.83	26735.94
546.00	26700.83
546.16	26862.33
546.33	26665.72
546.50	26419.97
546.67	26834.24
546.83	26773.39
547.00	27154.90
547.17	26988.72
547.34	27150.21
547.50	26902.12
547.67	27580.87
547.84	27033.19
548.00	27463.85
548.17	27246.18
548.34	27157.24
548.51	27288.31
548.67	27683.86
548.84	27503.64
549.01	27339.80
549.18	27337.46
549.34	27421.72
549.51	27356.18
549.68	27314.05
549.84	27428.74
550.01	27660.45
550.18	27704.92
550.34	28081.75
550.51	27721.30
550.68	27623.00
550.84	27477.89
551.01	27838.33
551.18	27894.50
551.34	27358.52
551.51	27791.52
551.68	27899.19
551.84	27620.66
552.01	27864.08
552.18	27861.74
552.34	27938.97
552.51	28002.17
552.68	28140.26
552.84	28144.94
553.01	27730.67
553.18	28095.79
553.34	27957.70
553.51	28119.20
553.67	28458.57
553.84	28524.11
554.01	27934.29
554.17	28304.10
554.34	28041.96
554.51	28004.51
554.67	28105.15
554.84	28112.17
555.00	28407.08
555.17	28400.06
555.33	28704.33
555.50	28411.76
555.67	28493.68
555.83	28058.34
556.00	28563.90
556.16	28540.49
556.33	28437.51
556.50	28648.16
556.66	28423.47
556.83	28292.40
556.99	28676.24
557.16	28882.21
557.32	28566.24
557.49	28779.23
557.65	28301.76
557.82	28718.37
557.98	28573.26
558.15	28568.58
558.32	28346.23
558.48	28379.00
558.65	28664.54
558.81	28992.22
558.98	28680.92
559.14	28723.05
559.31	28437.51
559.47	28716.03
559.64	28610.71
559.80	28755.82
559.97	28980.51
560.13	28884.55
560.30	28250.27
560.46	29134.99
560.63	28484.32
560.79	28950.09
560.96	29022.64
561.12	29036.69
561.29	28961.79
561.45	28627.09
561.61	28781.57
561.78	29223.93
561.94	29191.16
562.11	29509.47
562.27	29193.50
562.44	28964.13
562.60	28814.34
562.77	28788.59
562.93	28816.68
563.10	29369.04
563.26	29097.54
563.42	29542.24
563.59	28968.81
563.75	29329.25
563.92	29369.04
564.08	29383.09
564.24	29050.73
564.41	28999.24
564.57	29060.09
564.74	29315.21
564.90	29160.73
565.07	29273.08
565.23	29254.36
565.39	29032.00
565.56	29453.30
565.72	29528.20
565.88	29132.65
566.05	29186.48
566.21	29364.36
566.38	29212.23
566.54	29127.97
566.70	29593.73
566.87	29582.03
567.03	29357.34
567.19	29773.95
567.36	29476.71
567.52	29441.60
567.68	29514.16
567.85	29589.05
568.01	29600.76
568.17	29312.87
568.34	29661.61
568.50	29427.56
568.66	29577.35
568.83	29844.17
568.99	29380.74
569.15	29493.09
569.32	29542.24
569.48	29546.92
569.64	29249.67
569.81	29706.08
569.97	29427.56
570.13	29490.75
570.30	29820.77
570.46	29572.67
570.62	29689.70
570.78	29521.18
570.95	29287.12
571.11	29312.87
571.27	29233.29
571.43	29116.26
571.60	30118.01
571.76	29783.32
571.92	29813.74
572.09	29766.93
572.25	29841.83
572.41	29745.87
572.57	29514.16
572.74	29942.47
572.90	29621.82
573.06	29497.77
573.22	29563.31
573.38	29551.60
573.55	29429.90
573.71	30099.29
573.87	30291.21
574.03	29886.30
574.20	29422.87
574.36	29357.34
574.52	29633.52
574.68	29926.09
574.84	29546.92
575.01	29949.50
575.17	29390.11
575.33	30017.37
575.49	29701.40
575.65	29614.80
575.82	29930.77
575.98	29998.65
576.14	29961.20
576.30	29848.85
576.46	29490.75
576.62	29736.51
576.79	30024.39
576.95	29584.37
577.11	30017.37
577.27	30146.10
577.43	30192.91
577.59	30080.56
577.75	30024.39
577.92	29745.87
578.08	29699.06
578.24	29724.80
578.40	29706.08
578.56	29778.64
578.72	29575.01
578.88	29975.24
579.04	30029.07
579.21	30279.51
579.37	30162.48
579.53	29734.17
579.69	29914.39
579.85	29701.40
580.01	29813.74
580.17	30068.86
580.33	29610.12
580.49	30071.20
580.65	29919.07
580.82	30359.09
580.98	30132.06
581.14	29975.24
581.30	30155.46
581.46	29773.95
581.62	30225.68
581.78	29923.75
581.94	30139.08
582.10	30347.39
582.26	29790.34
582.42	29991.62
582.58	30047.80
582.74	30309.94
582.90	30246.74
583.06	30185.89
583.22	29998.65
583.38	29979.92
583.54	29596.07
583.70	30052.48
583.86	30029.07
584.02	29811.40
584.18	30281.85
584.34	29993.97
584.50	30256.11
584.66	30431.65
584.82	30057.16
584.98	30169.51
585.14	30249.08
585.30	29759.91
585.46	29846.51
585.62	29923.75
585.78	30047.80
585.94	29621.82
586.10	30127.38
586.26	30157.80
586.42	30075.88
586.58	30450.37
586.74	30050.14
586.90	29663.95
587.06	30022.05
587.22	30171.85
587.38	29764.59
587.54	30466.75
587.70	30204.61
587.86	30380.15
588.02	30176.53
588.18	30244.40
588.34	30169.51
588.49	30087.59
588.65	30132.06
588.81	30359.09
588.97	30309.94
589.13	30398.88
589.29	30223.34
589.45	30089.93
589.61	30621.23
589.77	29977.58
589.93	30415.26
590.08	30293.55
590.24	30686.76
590.40	30817.83
590.56	30429.30
590.72	30506.54
590.88	30260.79
591.04	30492.50
591.20	30628.25
591.35	30471.43
591.51	30618.89
591.67	30696.13
591.83	31065.93
591.99	30391.86
592.15	30480.80
592.31	30197.59
592.46	30515.90
592.62	30499.52
592.78	30834.22
592.94	30534.63
593.10	30359.09
593.26	30424.62
593.41	30576.76
593.57	30473.78
593.73	30410.58
593.89	30817.83
594.05	30492.50
594.20	30813.15
594.36	30478.46
594.52	30424.62
594.68	30485.48
594.84	30586.12
594.99	30551.01
595.15	30504.20
595.31	30988.69
595.47	30810.81
595.62	30742.94
595.78	30513.56
595.94	30747.62
596.10	30326.32
596.25	30663.36
596.41	30160.14
596.57	30267.81
596.73	30529.95
596.88	30274.83
597.04	30864.64
597.20	30522.93
597.36	30721.87
597.51	30586.12
597.67	30892.73
597.83	30539.31
597.99	30874.01
598.14	30331.00
598.30	30354.41
598.46	30352.07
598.61	30742.94
598.77	30157.80
598.93	30410.58
599.09	31129.12
599.24	31112.74
599.40	30859.96
599.56	31012.10
599.71	30705.49
599.87	30665.70
600.03	30611.87
600.18	30464.41
600.34	30370.79
600.50	30504.20
600.65	30639.95
600.81	30916.14
600.97	30920.82
601.12	31009.76
601.28	30850.60
601.44	30672.72
601.59	30831.88
601.75	30508.88
601.91	30955.93
602.06	30473.78
602.22	30845.92
602.37	30356.75
602.53	30464.41
602.69	30588.46
602.84	30829.54
603.00	31002.74
603.16	30794.43
603.31	30822.51
603.47	30382.49
603.62	30473.78
603.78	30522.93
603.94	30558.03
604.09	30796.77
604.25	30874.01
604.40	30426.96
604.56	30604.84
604.71	30951.24
604.87	30749.96
605.03	30803.79
605.18	30831.88
605.34	30787.41
605.49	30497.18
605.65	30478.46
605.80	30295.89
605.96	30803.79
606.12	30611.87
606.27	30515.90
606.43	30080.56
606.58	30639.95
606.74	30810.81
606.89	30560.37
607.05	30951.24
607.20	30611.87
607.36	30661.02
607.51	30941.88
607.67	30309.94
607.82	30256.11
607.98	30113.33
608.13	30529.95
608.29	30345.05
608.44	30576.76
608.60	30155.46
608.75	30494.84
608.91	30529.95
609.06	30504.20
609.22	30848.26
609.37	30099.29
609.53	30565.06
609.68	30300.58
609.84	30401.22
609.99	30433.99
610.15	30403.56
610.30	30309.94
610.46	30206.95
610.61	30541.65
610.76	30417.60
610.92	30565.06
611.07	30476.12
611.23	30103.97
611.38	30197.59
611.54	30225.68
611.69	30087.59
611.84	29914.39
612.00	30323.98
612.15	30291.21
612.31	30082.91
612.46	30190.57
612.62	30225.68
612.77	30094.61
612.92	30422.28
613.08	30387.18
613.23	30466.75
613.39	29886.30
613.54	30120.35
613.69	29813.74
613.85	29675.65
614.00	30302.92
614.15	29940.13
614.31	30054.82
614.46	30408.24
614.62	30199.93
614.77	30050.14
614.92	30263.13
615.08	29724.80
615.23	30040.78
615.38	29846.51
615.54	29853.53
615.69	29839.49
615.84	29717.78
616.00	30061.84
616.15	30059.50
616.30	30359.09
616.46	30181.21
616.61	29823.11
616.76	30099.29
616.92	29881.62
617.07	30141.42
617.22	29832.47
617.37	29654.59
617.53	30347.39
617.68	29785.66
617.83	29579.69
617.99	29427.56
618.14	29841.83
618.29	29673.31
618.45	29715.44
618.60	29738.85
618.75	29329.25
618.90	29844.17
619.06	29626.50
619.21	29682.67
619.36	29699.06
619.51	29146.69
619.67	29500.11
619.82	29453.30
619.97	29790.34
620.12	29296.49
620.28	29441.60
620.43	29411.17
620.58	29558.63
620.73	29401.81
620.89	29546.92
621.04	29724.80
621.19	29465.00
621.34	29294.14
621.49	29549.26
621.65	29436.92
621.80	29392.45
621.95	29249.67
622.10	29249.67
622.25	29343.30
622.41	29450.96
622.56	29280.10
622.71	29399.47
622.86	29142.01
623.01	29282.44
623.16	29118.60
623.32	28912.64
623.47	29266.06
623.62	28837.74
623.77	28978.17
623.92	29221.59
624.07	29137.33
624.23	29317.55
624.38	29186.48
624.53	28840.08
624.68	28982.85
624.83	29268.40
624.98	28767.52
625.13	29027.32
625.29	29256.70
625.44	28816.68
625.59	28748.80
625.74	28554.54
625.89	28765.18
626.04	28591.98
626.19	28994.56
626.34	28596.67
626.49	28374.31
626.65	28587.30
626.80	28847.10
626.95	28865.83
627.10	28823.70
627.25	28725.39
627.40	28807.31
627.55	28648.16
627.70	28205.80
627.85	28615.39
628.00	29022.64
628.15	28783.91
628.30	28273.67
628.45	28191.75
628.60	28390.70
628.76	28655.18
628.91	28376.66
629.06	28390.70
629.21	28489.00
629.36	28421.13
629.51	28411.76
629.66	28636.45
629.81	28336.87
629.96	28217.50
630.11	28332.18
630.26	28435.17
630.41	28430.49
630.56	28381.34
630.71	28535.81
630.86	28383.68
631.01	28025.57
631.16	28451.55
631.31	28151.96
631.46	28037.28
631.61	28252.61
631.76	28311.12
631.91	28013.87
632.06	28077.07
632.21	28037.28
632.36	28346.23
632.51	28147.28
632.66	28077.07
632.81	27866.42
632.96	28048.98
633.10	28315.80
633.25	28013.87
633.40	27971.74
633.55	28081.75
633.70	27882.80
633.85	27948.34
634.00	27566.83
634.15	28271.33
634.30	27936.63
634.45	27810.25
634.60	27608.96
634.75	27826.63
634.90	27515.34
635.05	27983.44
635.19	27871.10
635.34	28189.41
635.49	28016.21
635.64	27955.36
635.79	27716.62
635.94	27534.06
636.09	28030.26
636.24	27569.17
636.39	27419.38
636.53	27623.00
636.68	27501.29
636.83	27555.13
636.98	27702.58
637.13	27431.08
637.28	27840.67
637.43	27517.68
637.57	28018.55
637.72	27374.91
637.87	27566.83
638.02	27428.74
638.17	27316.39
638.32	27424.06
638.46	27454.48
638.61	27227.45
638.76	27222.77
638.91	27470.87
639.06	27133.83
639.20	27344.48
639.35	27335.12
639.50	27632.36
639.65	27344.48
639.80	27503.64
639.94	27269.58
640.09	27344.48
640.24	27332.78
640.39	27161.92
640.54	27374.91
640.68	27000.42
640.83	26848.29
640.98	26738.28
641.13	27077.66
641.27	27473.21
641.42	27218.09
641.57	27023.83
641.72	26892.76
641.86	26988.72
642.01	26855.31
642.16	26892.76
642.31	26632.96
642.45	26754.66
642.60	26693.81
642.75	26642.32
642.90	26864.67
643.04	26635.30
643.19	26766.37
643.34	26724.24
643.48	26974.67
643.63	26684.45
643.78	26726.58
643.93	26836.58
644.07	26944.25
644.22	27105.74
644.37	26654.02
644.51	26815.52
644.66	26738.28
644.81	26747.64
644.95	26951.27
645.10	26307.62
645.25	26792.11
645.39	26642.32
645.54	26478.48
645.69	26789.77
645.83	26668.06
645.98	26836.58
646.13	26555.72
646.27	26611.89
646.42	26721.90
646.57	26834.24
646.71	26635.30
646.86	26391.88
647.00	26209.32
647.15	26450.39
647.30	26260.81
647.44	26139.10
647.59	26565.08
647.74	26134.42
647.88	26073.57
648.03	26473.80
648.17	26595.51
648.32	26625.93
648.47	26426.99
648.61	26349.75
648.76	26260.81
648.90	26410.60
649.05	26448.05
649.20	26558.06
649.34	26092.29
649.49	25818.45
649.63	26108.68
649.78	25891.01
649.92	25764.62
650.07	26331.03
650.21	26031.44
650.36	26235.06
650.51	26122.72
650.65	26235.06
650.80	26377.84
650.94	26260.81
651.09	25839.51
651.23	25783.34
651.38	26256.13
651.52	25872.28
651.67	25792.70
651.81	26012.71
651.96	25565.67
652.10	25937.82
652.25	26218.68
652.39	26108.68
652.54	26188.25
652.68	25738.87
652.83	25902.71
652.97	26148.46
653.12	25823.13
653.26	26061.87
653.41	26139.10
653.55	25741.21
653.70	25694.40
653.84	25759.94
653.99	25766.96
654.13	25404.17
654.27	25607.80
654.42	25692.06
654.56	25832.49
654.71	25865.26
654.85	25937.82
655.00	26164.85
655.14	25804.41
655.29	25603.12
655.43	25773.98
655.57	25226.29
655.72	24919.68
655.86	25584.40
656.01	25687.38
656.15	25366.73
656.30	25544.61
656.44	25275.45
656.58	25202.89
656.73	25397.15
656.87	25385.45
657.01	25572.69
657.16	25598.44
657.30	25486.09
657.45	25113.95
657.59	25174.80
657.73	25013.31
657.88	25617.16
658.02	25315.23
658.16	25116.29
658.31	24952.45
658.45	25039.05
658.60	24854.15
658.74	24823.72
658.88	25062.46
659.03	25209.91
659.17	25202.89
659.31	25142.03
659.46	25067.14
659.60	24861.17
659.74	25099.90
659.89	24671.59
660.03	25008.62
660.17	25198.21
660.32	24566.26
660.46	24790.95
660.60	24252.63
660.74	24432.85
660.89	24439.87
661.03	24510.09
661.17	24744.14
661.32	24561.58
661.46	24812.02
661.60	24360.30
661.74	24669.25
661.89	24737.12
662.03	24968.84
662.17	24517.11
662.31	24205.82
662.46	24568.60
662.60	24056.03
662.74	24374.34
662.88	24201.14
663.03	24039.64
663.17	23985.81
663.31	23590.26
663.45	24154.33
663.60	23798.57
663.74	24299.44
663.88	23843.04
664.02	23770.48
664.17	23976.45
664.31	24056.03
664.45	23812.61
664.59	24135.60
664.73	23824.31
664.88	23604.30
665.02	23690.90
665.16	23819.63
665.30	23941.34
665.44	23510.68
665.59	23414.72
665.73	23527.06
665.87	23211.09
666.01	23576.22
666.15	23456.85
666.29	23213.43
666.44	23353.87
666.58	23651.11
666.72	23278.97
666.86	23112.79
667.00	23510.68
667.14	23119.81
667.28	23087.04
667.43	23016.83
667.57	23108.11
667.71	23183.01
667.85	23150.24
667.99	23044.91
668.13	22841.29
668.27	23110.45
668.41	23080.02
668.56	22808.52
668.70	23346.84
668.84	22972.36
668.98	22848.31
669.12	22871.72
669.26	22808.52
669.40	22892.78
669.54	22560.42
669.68	22583.83
669.82	22726.60
669.96	22520.63
670.10	22366.16
670.25	22576.81
670.39	22464.46
670.53	22616.60
670.67	22558.08
670.81	22422.33
670.95	22398.93
671.09	22719.58
671.23	21855.92
671.37	22298.28
671.51	22731.28
671.65	22345.09
671.79	22132.11
671.93	22387.22
672.07	22155.51
672.21	21830.18
672.35	21867.63
672.49	21708.47
672.63	21507.18
672.77	21900.39
672.91	21743.58
673.05	21788.05
673.19	21928.48
673.33	21771.66
673.47	21703.79
673.61	21497.82
673.75	21823.16
673.89	21329.30
674.03	21600.80
674.17	21568.04
674.31	21233.34
674.45	21532.93
674.59	21308.24
674.73	21408.88
674.87	21181.85
675.01	21266.11
675.15	20980.56
675.29	21209.93
675.43	20950.14
675.56	20971.20
675.70	20957.16
675.84	20957.16
675.98	20414.15
676.12	20945.45
676.26	21046.10
676.40	20936.09
676.54	20725.44
676.68	20877.58
676.82	20140.31
676.96	20456.28
677.10	20594.37
677.23	20627.14
677.37	20334.57
677.51	20273.72
677.65	20173.08
677.79	19903.92
677.93	20212.87
678.07	19777.53
678.21	20121.59
678.34	20018.60
678.48	19751.78
678.62	19735.40
678.76	19735.40
678.90	19665.18
679.04	19538.79
679.18	19573.90
679.31	19431.13
679.45	19257.93
679.59	19157.28
679.73	19241.54
679.87	18778.12
680.00	19157.28
680.14	19119.84
680.28	19389.00
680.42	19360.91
680.56	19190.05
680.70	19007.49
680.83	18815.57
680.97	18808.54
681.11	19122.18
681.25	18803.86
681.39	18881.10
681.52	18820.25
681.66	18939.62
681.80	18579.17
681.94	18523.00
682.07	18579.17
682.21	18700.88
682.35	18260.86
682.49	18291.29
682.62	18082.98
682.76	17951.91
682.90	18389.59
683.04	18003.40
683.17	18082.98
683.31	17970.63
683.45	18335.76
683.59	17919.14
683.72	17748.28
683.86	17640.62
684.00	17762.33
684.13	17547.00
684.27	17671.04
684.41	17621.89
684.55	17235.70
684.68	17172.51
684.82	17289.54
684.96	17048.46
685.09	17469.76
685.23	17177.19
685.37	17240.39
685.50	17331.67
685.64	17228.68
685.78	17282.52
685.91	17118.68
686.05	17209.96
686.19	17071.87
686.32	16828.45
686.46	16617.80
686.60	16596.74
686.73	17011.01
686.87	16578.01
687.01	16563.97
687.14	16325.24
687.28	16170.76
687.42	16226.93
687.55	16283.11
687.69	16049.05
687.82	16123.95
687.96	16240.98
688.10	16051.39
688.23	16077.14
688.37	16175.44
688.50	16219.91
688.64	15815.00
688.78	15733.08
688.91	15707.34
689.05	15475.62
689.18	15770.53
689.32	15309.44
689.46	15442.85
689.59	15176.03
689.73	15232.21
689.86	15569.24
690.00	15133.90
690.13	15096.46
690.27	15126.88
690.41	15360.94
690.54	15267.31
690.68	15159.65
690.81	14986.45
690.95	15215.82
691.08	15403.07
691.22	14913.89
691.35	15019.22
691.49	14759.42
691.62	14817.93
691.76	14581.54
691.89	14668.14
692.03	14424.72
692.16	14518.34
692.30	14293.65
692.43	14408.34
692.57	14417.70
692.70	14281.95
692.84	14483.24
692.97	14094.71
693.11	14471.53
693.24	14221.10
693.38	14090.02
693.51	14003.43
693.65	14162.58
693.78	13830.23
693.92	14127.47
694.05	13657.03
694.19	13736.60
694.32	13715.54
694.45	13664.05
694.59	13617.24
694.72	13404.25
694.86	13441.70
694.99	13111.68
695.13	13231.05
695.26	13352.76
695.39	13315.31
695.53	13247.43
695.66	13034.44
695.80	13177.22
695.93	13345.73
696.07	13172.54
696.20	13130.41
696.33	12833.16
696.47	12753.58
696.60	12842.52
696.73	12835.50
696.87	12971.25
697.00	12587.40
697.14	12336.96
697.27	12386.12
697.40	12461.01
697.54	12290.15
697.67	12369.73
697.80	12336.96
697.94	12297.17
698.07	11995.25
698.21	12091.21
698.34	12006.95
698.47	11943.75
698.61	12278.45
698.74	12226.96
698.87	12184.83
699.01	11871.20
699.14	11957.80
699.27	11990.56
699.40	12016.31
699.54	11683.95
699.67	11686.29
699.80	11431.18
699.94	11276.70
700.07	11646.51
700.20	11489.69
700.34	11337.56
700.47	11346.92
700.60	11323.51
700.73	11492.03
700.87	11213.51
701.00	11185.42
701.13	11197.12
701.26	11154.99
701.40	11112.86
701.53	11192.44
701.66	11110.52
701.79	10979.45
701.93	11016.90
702.06	10740.72
702.19	10602.63
702.32	10803.91
702.46	10682.20
702.59	10586.24
702.72	10525.39
702.85	10654.12
702.99	10595.61
703.12	10590.92
703.25	10391.98
703.38	10225.80
703.51	10602.63
703.65	10340.49
703.78	10209.42
703.91	10200.05
704.04	10349.85
704.17	10345.17
704.31	10181.33
704.44	9863.02
704.57	10076.01
704.70	9860.68
704.83	9724.93
704.96	9830.25
705.10	9935.57
705.23	9886.42
>>>>>End Processed Spectral Data<<<<<
