SpectraSuite Data File
++++++++++++++++++++++++++++++++++++
Date: Fri Oct 18 13:58:07 GMT-05:00 2013
User: bianchi
Dark Spectrum Present: No
Reference Spectrum Present: No
Number of Sampled Component Spectra: 1
Spectrometers: USB2+H05261
Integration Time (usec): 50000 (USB2+H05261)
Spectra Averaged: 1 (USB2+H05261)
Boxcar Smoothing: 0 (USB2+H05261)
Correct for Electrical Dark: No (USB2+H05261)
Strobe/Lamp Enabled: No (USB2+H05261)
Correct for Detector Non-linearity: No (USB2+H05261)
Correct for Stray Light: No (USB2+H05261)
Number of Pixels in Processed Spectrum: 2048
>>>>>Begin Processed Spectral Data<<<<<
365.73	0.00
365.92	0.00
366.12	0.00
366.32	0.00
366.52	0.00
366.72	0.00
366.91	0.00
367.11	0.00
367.31	0.00
367.51	0.00
367.70	0.00
367.90	0.00
368.10	0.00
368.30	0.00
368.49	0.00
368.69	0.00
368.89	0.00
369.09	0.00
369.28	0.00
369.48	0.00
369.68	0.00
369.87	0.00
370.07	0.00
370.27	0.00
370.47	0.00
370.66	140.43
370.86	42.13
371.06	91.28
371.25	138.09
371.45	224.69
371.65	182.56
371.84	191.92
372.04	175.54
372.24	236.39
372.44	126.39
372.63	187.24
372.83	161.50
373.03	194.26
373.22	194.26
373.42	154.48
373.62	262.14
373.81	313.63
374.01	210.65
374.21	212.99
374.40	250.44
374.60	264.48
374.79	238.73
374.99	241.08
375.19	339.38
375.38	252.78
375.58	248.10
375.78	187.24
375.97	259.80
376.17	304.27
376.37	238.73
376.56	276.18
376.76	194.26
376.95	250.44
377.15	262.14
377.35	248.10
377.54	238.73
377.74	215.33
377.93	262.14
378.13	325.33
378.33	201.29
378.52	290.23
378.72	292.57
378.91	334.70
379.11	283.20
379.31	262.14
379.50	280.86
379.70	299.59
379.89	297.25
380.09	273.84
380.28	306.61
380.48	241.08
380.68	330.02
380.87	292.57
381.07	257.46
381.26	341.72
381.46	308.95
381.65	269.16
381.85	285.55
382.04	358.10
382.24	355.76
382.43	325.33
382.63	383.85
382.83	395.55
383.02	388.53
383.22	311.29
383.41	332.36
383.61	409.59
383.80	358.10
384.00	381.51
384.19	322.99
384.39	395.55
384.58	404.91
384.78	379.17
384.97	353.42
385.17	327.68
385.36	297.25
385.56	355.76
385.75	355.76
385.95	409.59
386.14	451.72
386.34	400.23
386.53	463.43
386.72	360.44
386.92	425.98
387.11	393.21
387.31	416.62
387.50	451.72
387.70	393.21
387.89	454.06
388.09	337.04
388.28	477.47
388.48	479.81
388.67	444.70
388.86	449.38
389.06	454.06
389.25	489.17
389.45	440.02
389.64	449.38
389.84	521.94
390.03	503.22
390.22	404.91
390.42	531.30
390.61	491.51
390.81	514.92
391.00	517.26
391.19	440.02
391.39	493.85
391.58	547.69
391.78	517.26
391.97	594.50
392.16	545.34
392.36	564.07
392.55	538.32
392.75	594.50
392.94	550.03
393.13	606.20
393.33	491.51
393.52	557.05
393.71	690.46
393.91	566.41
394.10	571.09
394.29	564.07
394.49	533.64
394.68	641.31
394.88	587.47
395.07	592.16
395.26	676.41
395.46	709.18
395.65	702.16
395.84	636.63
396.04	678.76
396.23	648.33
396.42	669.39
396.62	613.22
396.81	657.69
397.00	711.52
397.19	650.67
397.39	688.12
397.58	718.54
397.77	613.22
397.97	725.57
398.16	667.05
398.35	734.93
398.55	671.73
398.74	763.01
398.93	713.86
399.12	723.23
399.32	723.23
399.51	711.52
399.70	734.93
399.90	741.95
400.09	856.64
400.28	753.65
400.47	772.38
400.67	833.23
400.86	840.25
401.05	793.44
401.24	793.44
401.44	844.93
401.63	765.36
401.82	814.51
402.01	802.80
402.21	791.10
402.40	821.53
402.59	908.13
402.78	802.80
402.97	877.70
403.17	844.93
403.36	877.70
403.55	952.60
403.74	889.40
403.93	903.45
404.13	929.19
404.32	1008.77
404.51	917.49
404.70	926.85
404.89	943.24
405.09	884.72
405.28	954.94
405.47	968.98
405.66	971.32
405.85	968.98
406.05	1004.09
406.24	933.87
406.43	964.30
406.62	1067.28
406.81	1043.88
407.00	1041.54
407.20	1027.50
407.39	1071.97
407.58	1086.01
407.77	1083.67
407.96	999.41
408.15	1060.26
408.34	1151.54
408.54	1020.47
408.73	1125.80
408.92	1053.24
409.11	1032.18
409.30	1104.73
409.49	1095.37
409.68	1121.12
409.87	1104.73
410.07	1226.44
410.26	1179.63
410.45	1121.12
410.64	1128.14
410.83	1191.33
411.02	1224.10
411.21	1245.16
411.40	1355.17
411.59	1322.40
411.78	1268.57
411.98	1324.74
412.17	1338.79
412.36	1394.96
412.55	1357.51
412.74	1387.94
412.93	1299.00
413.12	1324.74
413.31	1387.94
413.50	1282.61
413.69	1439.43
413.88	1364.53
414.07	1474.54
414.26	1537.73
414.45	1558.80
414.64	1565.82
414.83	1495.60
415.02	1476.88
415.22	1598.59
415.41	1659.44
415.60	1488.58
415.79	1549.43
415.98	1673.48
416.17	1610.29
416.36	1638.38
416.55	1551.78
416.74	1579.86
416.93	1619.65
417.12	1703.91
417.31	1746.04
417.50	1671.14
417.69	1802.21
417.88	1694.55
418.07	1703.91
418.26	1825.62
418.45	1788.17
418.64	1834.98
418.83	1865.41
419.02	1685.19
419.21	1820.94
419.39	1844.34
419.58	1856.04
419.77	1732.00
419.96	1844.34
420.15	1863.07
420.34	1823.28
420.53	1916.90
420.72	1926.26
420.91	1834.98
421.10	1914.56
421.29	2071.37
421.48	1907.54
421.67	1898.17
421.86	2010.52
422.05	2101.80
422.24	1994.14
422.43	1989.46
422.61	2036.27
422.80	2078.40
422.99	2038.61
423.18	2047.97
423.37	1977.75
423.56	2139.25
423.75	2085.42
423.94	2073.71
424.13	1935.62
424.32	1984.77
424.50	2050.31
424.69	2059.67
424.88	2085.42
425.07	2059.67
425.26	2003.50
425.45	2043.29
425.64	1998.82
425.83	1977.75
426.01	2150.95
426.20	2101.80
426.39	2179.04
426.58	2022.22
426.77	2043.29
426.96	2113.50
427.15	2090.10
427.33	2181.38
427.52	2150.95
427.71	2085.42
427.90	2186.06
428.09	2150.95
428.28	2160.31
428.46	2328.83
428.65	2263.30
428.84	2328.83
429.03	2275.00
429.22	2113.50
429.40	2258.62
429.59	2366.28
429.78	2179.04
429.97	2193.08
430.16	2312.45
430.34	2352.24
430.53	2342.88
430.72	2427.14
430.91	2373.30
431.10	2478.63
431.28	2403.73
431.47	2476.29
431.66	2485.65
431.85	2345.22
432.03	2394.37
432.22	2356.92
432.41	2387.35
432.60	2539.48
432.79	2382.67
432.97	2401.39
433.16	2560.55
433.35	2511.39
433.54	2410.75
433.72	2595.65
433.91	2539.48
434.10	2551.18
434.28	2502.03
434.47	2616.72
434.66	2567.57
434.85	2605.02
435.03	2647.15
435.22	2544.16
435.41	2677.57
435.59	2672.89
435.78	2651.83
435.97	2633.10
436.16	2764.17
436.34	2614.38
436.53	2719.70
436.72	2827.37
436.90	2682.25
437.09	2649.49
437.28	2715.02
437.46	2675.23
437.65	2726.72
437.84	2803.96
438.02	2747.79
438.21	2848.43
438.40	2860.13
438.58	2834.39
438.77	2960.78
438.96	2986.52
439.14	2869.50
439.33	2949.08
439.52	3061.42
439.70	2986.52
439.89	2995.89
440.08	2984.18
440.26	3115.25
440.45	3056.74
440.63	3068.44
440.82	3187.81
441.01	3035.67
441.19	3194.83
441.38	3190.15
441.57	3206.53
441.75	3169.09
441.94	3246.32
442.12	3396.12
442.31	3386.76
442.50	3316.54
442.68	3325.90
442.87	3386.76
443.05	3297.81
443.24	3410.16
443.43	3389.10
443.61	3478.04
443.80	3417.18
443.98	3419.52
444.17	3260.37
444.35	3468.67
444.54	3410.16
444.73	3428.88
444.91	3513.14
445.10	3356.33
445.28	3372.71
445.47	3435.91
445.65	3445.27
445.84	3449.95
446.02	3456.97
446.21	3438.25
446.39	3524.85
446.58	3482.72
446.77	3520.17
446.95	3414.84
447.14	3468.67
447.32	3569.32
447.51	3562.30
447.69	3662.94
447.88	3576.34
448.06	3562.30
448.25	3588.04
448.43	3524.85
448.62	3506.12
448.80	3637.19
448.99	3684.00
449.17	3592.72
449.36	3538.89
449.54	3740.18
449.73	3665.28
449.91	3691.02
450.10	3712.09
450.28	3803.37
450.46	3728.47
450.65	3840.82
450.83	3700.39
451.02	3693.37
451.20	3964.87
451.39	3824.44
451.57	3880.61
451.76	3728.47
451.94	3941.46
452.13	3857.20
452.31	3730.81
452.49	3705.07
452.68	3871.25
452.86	3882.95
453.05	4028.06
453.23	4072.53
453.42	3981.25
453.60	3840.82
453.78	3946.14
453.97	3880.61
454.15	3943.80
454.34	3941.46
454.52	3882.95
454.70	4058.49
454.89	4074.87
455.07	4208.28
455.26	4119.34
455.44	4079.55
455.62	4156.79
455.81	4168.49
455.99	4271.48
456.17	4189.56
456.36	4149.77
456.54	4276.16
456.73	4278.50
456.91	4355.74
457.09	4285.52
457.28	4376.80
457.46	4222.33
457.64	4386.16
457.83	4418.93
458.01	4332.33
458.19	4493.83
458.38	4418.93
458.56	4510.21
458.74	4475.10
458.93	4409.57
459.11	4505.53
459.29	4519.57
459.48	4524.26
459.66	4447.02
459.84	4435.32
460.03	4571.07
460.21	4517.23
460.39	4655.33
460.57	4484.47
460.76	4512.55
460.94	4685.75
461.12	4624.90
461.31	4566.39
461.49	4660.01
461.67	4667.03
461.85	4744.27
462.04	4737.24
462.22	5046.20
462.40	4746.61
462.59	4793.42
462.77	5020.45
462.95	4840.23
463.13	4875.34
463.32	4732.56
463.50	4851.93
463.68	4770.01
463.86	4943.21
464.05	4947.89
464.23	4870.65
464.41	4901.08
464.59	4674.05
464.78	5018.11
464.96	4858.95
465.14	4938.53
465.32	4924.49
465.50	5055.56
465.69	5053.22
465.87	5090.67
466.05	4968.96
466.23	5174.92
466.41	5167.90
466.60	5448.77
466.78	5064.92
466.96	5085.98
467.14	4971.30
467.32	5102.37
467.51	5320.04
467.69	5111.73
467.87	5259.18
468.05	5254.50
468.23	5245.14
468.41	5170.24
468.60	5060.24
468.78	5308.34
468.96	5083.64
469.14	5420.68
469.32	5387.91
469.50	5289.61
469.69	5420.68
469.87	5504.94
470.05	5582.18
470.23	5511.96
470.41	5561.11
470.59	5392.59
470.77	5380.89
470.95	5685.16
471.14	5575.16
471.32	5507.28
471.50	5579.84
471.68	5687.50
471.86	5640.69
472.04	5771.76
472.22	5746.02
472.40	5696.86
472.58	5722.61
472.77	5858.36
472.95	5923.90
473.13	5951.98
473.31	5816.23
473.49	5900.49
473.67	6022.20
473.85	6010.50
474.03	6099.44
474.21	5989.43
474.39	6118.16
474.57	6118.16
474.75	6118.16
474.93	6122.84
475.12	6132.20
475.30	6230.51
475.48	6136.88
475.66	6305.40
475.84	6270.30
476.02	6434.13
476.20	6436.47
476.38	6408.39
476.56	6602.65
476.74	6626.06
476.92	6579.25
477.10	6541.80
477.28	6724.36
477.46	6686.91
477.64	6757.13
477.82	6902.24
478.00	6920.96
478.18	7098.84
478.36	7101.19
478.54	7009.90
478.72	7152.68
478.90	7307.15
479.08	7218.21
479.26	7143.32
479.44	7503.76
479.62	7337.58
479.80	7379.71
479.98	7506.10
480.16	7716.75
480.34	7616.10
480.52	7588.02
480.70	7735.47
480.88	7728.45
481.06	7796.32
481.24	7723.77
481.41	7992.93
481.59	8224.64
481.77	8100.59
481.95	7964.84
482.13	8278.47
482.31	8112.30
482.49	8168.47
482.67	8477.42
482.85	8418.91
483.03	8596.79
483.21	8568.70
483.39	8936.17
483.57	8472.74
483.74	8769.99
483.92	8809.78
484.10	8903.40
484.28	9041.49
484.46	9207.67
484.64	9446.40
484.82	9090.64
485.00	9364.48
485.18	9322.35
485.35	9338.74
485.53	9549.39
485.71	9336.40
485.89	9802.16
486.07	9530.66
486.25	9593.86
486.43	9921.53
486.61	9741.31
486.78	10047.92
486.96	10068.98
487.14	10228.14
487.32	10167.29
487.50	10249.21
487.68	10499.64
487.85	10644.76
488.03	10560.50
488.21	10640.08
488.39	10743.06
488.57	10731.36
488.75	10874.13
488.92	10977.11
489.10	11236.91
489.28	10920.94
489.46	11337.56
489.64	11164.36
489.81	11482.67
489.99	11456.92
490.17	11379.68
490.35	11681.61
490.53	11662.89
490.70	11796.30
490.88	11756.51
491.06	12020.99
491.24	11742.47
491.41	12060.78
491.59	12198.87
491.77	12093.55
491.95	12259.73
492.13	12161.42
492.30	12608.47
492.48	12526.55
492.66	12674.00
492.84	12564.00
493.01	12842.52
493.19	12690.38
493.37	13198.28
493.54	12924.44
493.72	13273.18
493.90	12908.05
494.08	13125.72
494.25	13027.42
494.43	13509.57
494.61	13408.93
494.79	13355.10
494.96	13476.80
495.14	13870.01
495.32	13572.77
495.49	13734.26
495.67	13762.35
495.85	13811.50
496.02	14099.39
496.20	13996.40
496.38	13881.72
496.55	14174.28
496.73	14628.35
496.91	14118.11
497.09	14494.94
497.26	14712.61
497.44	14689.20
497.62	14698.56
497.79	14909.21
497.97	14876.44
498.14	14637.71
498.32	15257.95
498.50	14579.20
498.67	15367.96
498.85	14991.13
499.03	15063.69
499.20	15360.94
499.38	15176.03
499.56	15424.13
499.73	15529.45
499.91	15597.33
500.08	15499.03
500.26	15403.07
500.44	15655.84
500.61	15501.37
500.79	15941.39
500.97	15810.32
501.14	16191.83
501.32	16280.77
501.49	16006.92
501.67	16058.42
501.84	15772.87
502.02	16264.38
502.20	16453.97
502.37	16470.35
502.55	16407.16
502.72	16559.29
502.90	16498.44
503.07	16290.13
503.25	16704.40
503.43	16292.47
503.60	16673.98
503.78	16751.21
503.95	16840.15
504.13	16760.58
504.30	16681.00
504.48	17064.85
504.65	17186.55
504.83	17214.64
505.01	17242.73
505.18	17195.92
505.36	17406.56
505.53	17205.28
505.71	17268.47
505.88	17427.63
506.06	17312.94
506.23	17488.48
506.41	17436.99
506.58	17877.01
506.76	17839.56
506.93	17687.43
507.11	17792.75
507.28	17666.36
507.46	17659.34
507.63	17912.12
507.81	18209.37
507.98	18022.12
508.16	17994.04
508.33	18054.89
508.50	18125.11
508.68	18260.86
508.85	18302.99
509.03	18394.27
509.20	18492.57
509.38	18658.75
509.55	18394.27
509.73	18602.58
509.90	18534.70
510.08	18642.37
510.25	18560.45
510.42	18930.25
510.60	19023.87
510.77	18951.32
510.95	19035.58
511.12	18860.04
511.30	19009.83
511.47	18806.20
511.64	19176.01
511.82	19330.48
511.99	19229.84
512.17	19550.49
512.34	19248.57
512.51	19248.57
512.69	19578.58
512.86	19517.73
513.04	19566.88
513.21	19730.72
513.38	19824.34
513.56	20063.07
513.73	19594.96
513.90	19709.65
514.08	19721.35
514.25	19962.43
514.43	19763.48
514.60	19899.23
514.77	20112.22
514.95	20156.69
515.12	20095.84
515.29	19953.07
515.47	20313.51
515.64	20390.75
515.81	20224.57
515.99	20446.92
516.16	20746.51
516.33	20493.73
516.51	20348.62
516.68	20542.88
516.85	20482.03
517.03	20795.66
517.20	20739.49
517.37	20847.15
517.54	20751.19
517.72	20950.14
517.89	20858.85
518.06	20884.60
518.24	21060.14
518.41	20805.02
518.58	21060.14
518.75	21083.55
518.93	21392.50
519.10	21343.35
519.27	21406.54
519.45	21315.26
519.62	21425.26
519.79	21289.51
519.96	21476.76
520.14	21685.06
520.31	21642.93
520.48	21336.32
520.65	21610.17
520.83	21977.63
521.00	21715.49
521.17	21804.43
521.34	21671.02
521.52	21893.37
521.69	21909.75
521.86	22031.46
522.03	22321.69
522.20	22148.49
522.38	22237.43
522.55	22253.81
522.72	22038.48
522.89	22207.00
523.07	22932.57
523.24	22345.09
523.41	22455.10
523.58	22398.93
523.75	22518.29
523.92	22398.93
524.10	22345.09
524.27	22373.18
524.44	22775.75
524.61	22888.10
524.78	23133.86
524.96	22513.61
525.13	22904.48
525.30	22700.86
525.47	22574.47
525.64	22668.09
525.81	23225.14
525.98	23159.60
526.16	23190.03
526.33	22888.10
526.50	23590.26
526.67	22941.93
526.84	23531.75
527.01	23126.83
527.18	23321.10
527.36	23538.77
527.53	23377.27
527.70	23393.65
527.87	23828.99
528.04	23651.11
528.21	23765.80
528.38	23491.96
528.55	24093.47
528.72	23288.33
528.89	23807.93
529.07	23770.48
529.24	23793.89
529.41	23953.04
529.58	23894.53
529.75	23782.18
529.92	23700.26
530.09	24044.32
530.26	24041.98
530.43	24063.05
530.60	24121.56
530.77	24137.94
530.94	23850.06
531.11	24318.17
531.28	24016.24
531.46	24229.23
531.63	24109.86
531.80	24327.53
531.97	24545.20
532.14	24886.92
532.31	24479.66
532.48	24510.09
532.65	24720.74
532.82	24301.78
532.99	24687.97
533.16	24166.03
533.33	24659.88
533.50	25118.63
533.67	24893.94
533.84	24692.65
534.01	24437.53
534.18	24521.79
534.35	24940.75
534.52	24870.53
534.69	25043.73
534.86	25036.71
535.03	25130.33
535.20	25015.65
535.37	24978.20
535.54	25191.19
535.71	25207.57
535.88	24999.26
536.05	25214.59
536.22	25666.31
536.38	25579.71
536.55	25249.70
536.72	25511.84
536.89	25357.36
537.06	25443.96
537.23	25757.60
537.40	25174.80
537.57	25439.28
537.74	25771.64
537.91	25678.02
538.08	25736.53
538.25	25741.21
538.42	25455.67
538.59	25610.14
538.75	25568.01
538.92	25736.53
539.09	25645.25
539.26	25764.62
539.43	25668.66
539.60	25731.85
539.77	26206.98
539.94	25970.58
540.11	26551.04
540.28	26162.51
540.44	25912.07
540.61	26043.14
540.78	25654.61
540.95	26270.17
541.12	25619.50
541.29	26457.42
541.46	26260.81
541.62	26052.50
541.79	26040.80
541.96	25830.15
542.13	26008.03
542.30	26141.44
542.47	26286.56
542.63	26300.60
542.80	26600.19
542.97	26843.60
543.14	26757.00
543.31	26569.76
543.48	26497.20
543.64	26932.54
543.81	26867.01
543.98	26658.70
544.15	27091.70
544.32	27129.15
544.48	27356.18
544.65	27115.11
544.82	26742.96
544.99	26661.04
545.16	27101.06
545.32	27047.23
545.49	26848.29
545.66	27531.72
545.83	27021.48
546.00	27267.24
546.16	27410.01
546.33	26953.61
546.50	27077.66
546.67	27309.37
546.83	27213.41
547.00	27220.43
547.17	27283.62
547.34	27370.22
547.50	27335.12
547.67	27749.39
547.84	27398.31
548.00	27559.81
548.17	27793.86
548.34	27424.06
548.51	27700.24
548.67	27960.04
548.84	27667.47
549.01	27594.92
549.18	27927.27
549.34	27545.76
549.51	27889.82
549.68	27557.47
549.84	27859.40
550.01	27559.81
550.18	27578.53
550.34	28088.77
550.51	27545.76
550.68	28116.86
550.84	27672.15
551.01	28093.45
551.18	27639.39
551.34	27618.32
551.51	27948.34
551.68	28409.42
551.84	28210.48
552.01	28336.87
552.18	28276.01
552.34	28521.77
552.51	28474.96
552.68	28353.25
552.84	28182.39
553.01	28229.20
553.18	28444.53
553.34	28247.93
553.51	27988.13
553.67	28308.78
553.84	28613.05
554.01	28568.58
554.17	28318.14
554.34	28240.90
554.51	28573.26
554.67	28510.07
554.84	28678.58
555.00	28498.36
555.17	28575.60
555.33	28694.97
555.50	28753.48
555.67	28774.55
555.83	28858.81
556.00	28510.07
556.16	28975.83
556.33	28802.63
556.50	28591.98
556.66	29022.64
556.83	28545.17
556.99	29024.98
557.16	29071.79
557.32	29151.37
557.49	29170.10
557.65	28844.76
557.82	28685.61
557.98	28865.83
558.15	28542.83
558.32	28966.47
558.48	28840.08
558.65	29247.33
558.81	29284.78
558.98	28727.74
559.14	29287.12
559.31	29053.07
559.47	29242.65
559.64	29359.68
559.80	28898.59
559.97	29160.73
560.13	28973.49
560.30	29144.35
560.46	29415.85
560.63	29359.68
560.79	29467.34
560.96	29582.03
561.12	29277.76
561.29	29268.40
561.45	29219.25
561.61	29460.32
561.78	29631.18
561.94	29282.44
562.11	29825.45
562.27	29252.02
562.44	29139.67
562.60	29046.05
562.77	29413.51
562.93	29247.33
563.10	29532.88
563.26	29383.09
563.42	29937.79
563.59	29752.89
563.75	29631.18
563.92	29642.88
564.08	28954.77
564.24	29788.00
564.41	29383.09
564.57	29369.04
564.74	29745.87
564.90	29607.78
565.07	29607.78
565.23	30363.77
565.39	29509.47
565.56	29640.54
565.72	29542.24
565.88	29439.26
566.05	29722.46
566.21	29785.66
566.38	29675.65
566.54	29649.91
566.70	30199.93
566.87	30092.27
567.03	29694.38
567.19	30148.44
567.36	30024.39
567.52	29710.76
567.68	29722.46
567.85	29790.34
568.01	30052.48
568.17	29680.33
568.34	29921.41
568.50	30087.59
568.66	29565.65
568.83	30422.28
568.99	29734.17
569.15	29898.00
569.32	29890.98
569.48	29783.32
569.64	29577.35
569.81	30031.41
569.97	30197.59
570.13	30176.53
570.30	30249.08
570.46	30225.68
570.62	29886.30
570.78	30103.97
570.95	29919.07
571.11	29919.07
571.27	29881.62
571.43	29972.90
571.60	30085.25
571.76	30153.12
571.92	30164.82
572.09	30148.44
572.25	29947.15
572.41	29940.13
572.57	29788.00
572.74	30185.89
572.90	30094.61
573.06	30036.09
573.22	29949.50
573.38	29986.94
573.55	29879.28
573.71	30141.42
573.87	30352.07
574.03	29771.61
574.20	30415.26
574.36	30230.36
574.52	30103.97
574.68	29965.88
574.84	29991.62
575.01	30284.19
575.17	30448.03
575.33	30136.74
575.49	30274.83
575.65	30075.88
575.82	30150.78
575.98	30132.06
576.14	29998.65
576.30	30192.91
576.46	30206.95
576.62	30101.63
576.79	30380.15
576.95	30167.16
577.11	30682.08
577.27	30499.52
577.43	30499.52
577.59	30192.91
577.75	30328.66
577.92	30422.28
578.08	30089.93
578.24	30309.94
578.40	30036.09
578.56	30373.13
578.72	30340.36
578.88	30597.82
579.04	30710.17
579.21	30125.04
579.37	30206.95
579.53	30323.98
579.69	30335.68
579.85	30228.02
580.01	30483.14
580.17	30225.68
580.33	30485.48
580.49	30551.01
580.65	30129.72
580.82	30560.37
580.98	30401.22
581.14	30841.24
581.30	30661.02
581.46	29905.02
581.62	30206.95
581.78	30691.44
581.94	30108.65
582.10	30534.63
582.26	30223.34
582.42	30562.72
582.58	30738.26
582.74	30654.00
582.90	30005.67
583.06	30567.40
583.22	30218.66
583.38	30185.89
583.54	30300.58
583.70	30267.81
583.86	30616.55
584.02	30272.49
584.18	30646.97
584.34	30625.91
584.50	30506.54
584.66	30443.35
584.82	30438.67
584.98	30689.10
585.14	30459.73
585.30	30204.61
585.46	30272.49
585.62	30143.76
585.78	30951.24
585.94	30499.52
586.10	30426.96
586.26	30583.78
586.42	30686.76
586.58	30511.22
586.74	30534.63
586.90	30204.61
587.06	30623.57
587.22	30146.10
587.38	30445.69
587.54	30380.15
587.70	30632.93
587.86	31047.21
588.02	31033.16
588.18	30668.04
588.34	30377.81
588.49	30740.60
588.65	30536.97
588.81	30216.32
588.97	30761.66
589.13	30382.49
589.29	30555.69
589.45	30756.98
589.61	30909.11
589.77	30675.06
589.93	30668.04
590.08	31253.17
590.24	30782.73
590.40	30569.74
590.56	30794.43
590.72	30581.44
590.88	30361.43
591.04	30766.34
591.20	30728.89
591.35	30923.16
591.51	31220.41
591.67	31084.65
591.83	31477.86
591.99	30960.61
592.15	30845.92
592.31	31117.42
592.46	30834.22
592.62	30623.57
592.78	30457.39
592.94	30778.04
593.10	31002.74
593.26	31236.79
593.41	30895.07
593.57	31049.55
593.73	30946.56
593.89	31494.25
594.05	30916.14
594.20	30866.98
594.36	30675.06
594.52	30696.13
594.68	30831.88
594.84	30761.66
594.99	30969.97
595.15	30885.71
595.31	31101.04
595.47	31063.59
595.62	31353.82
595.78	30939.54
595.94	31140.83
596.10	30508.88
596.25	30984.01
596.41	31129.12
596.57	30588.46
596.73	31157.21
596.88	31171.25
597.04	30988.69
597.20	31302.32
597.36	31091.68
597.51	31452.12
597.67	31082.31
597.83	30745.28
597.99	31489.57
598.14	31044.87
598.30	31349.14
598.46	31101.04
598.61	31147.85
598.77	30869.33
598.93	30892.73
599.09	31871.07
599.24	31672.13
599.40	31182.96
599.56	31119.76
599.71	30918.48
599.87	31079.97
600.03	31388.92
600.18	31374.88
600.34	30778.04
600.50	31309.35
600.65	31524.68
600.81	31262.54
600.97	31255.51
601.12	31283.60
601.28	31187.64
601.44	31482.55
601.59	31243.81
601.75	31508.29
601.91	31072.95
602.06	31433.39
602.22	31122.10
602.37	31042.53
602.53	30906.77
602.69	31285.94
602.84	31421.69
603.00	31218.07
603.16	31192.32
603.31	31363.18
603.47	31143.17
603.62	31377.22
603.78	31131.47
603.94	31339.77
604.09	31019.12
604.25	31222.75
604.40	31271.90
604.56	31077.63
604.71	31559.78
604.87	30944.22
605.03	31056.57
605.18	31346.79
605.34	31171.25
605.49	30841.24
605.65	30845.92
605.80	30712.51
605.96	31007.42
606.12	31274.24
606.27	31438.08
606.43	31136.15
606.58	31524.68
606.74	31328.07
606.89	31400.63
607.05	31590.21
607.20	31150.19
607.36	31321.05
607.51	31325.73
607.67	30719.53
607.82	30852.94
607.98	31248.49
608.13	31065.93
608.29	31140.83
608.44	30485.48
608.60	31096.36
608.75	31192.32
608.91	31012.10
609.06	31082.31
609.22	31143.17
609.37	30925.50
609.53	30838.90
609.68	30628.25
609.84	30579.10
609.99	30756.98
610.15	30742.94
610.30	30836.56
610.46	30764.00
610.61	30946.56
610.76	30852.94
610.92	30911.46
611.07	30888.05
611.23	30391.86
611.38	31187.64
611.54	30738.26
611.69	30284.19
611.84	30885.71
612.00	31028.48
612.15	30295.89
612.31	30855.28
612.46	30370.79
612.62	30717.19
612.77	30731.23
612.92	30705.49
613.08	30354.41
613.23	30726.55
613.39	30410.58
613.54	30560.37
613.69	30609.53
613.85	30614.21
614.00	30396.54
614.15	30761.66
614.31	30394.20
614.46	30483.14
614.62	30822.51
614.77	30541.65
614.92	30485.48
615.08	30558.03
615.23	30639.95
615.38	30714.85
615.54	30490.16
615.69	29993.97
615.84	30501.86
616.00	30492.50
616.15	30443.35
616.30	30300.58
616.46	30312.28
616.61	30419.94
616.76	30768.68
616.92	29912.05
617.07	30094.61
617.22	30197.59
617.37	30331.00
617.53	30120.35
617.68	30000.99
617.83	29694.38
617.99	30082.91
618.14	30143.76
618.29	30136.74
618.45	30120.35
618.60	30534.63
618.75	30150.78
618.90	30295.89
619.06	30522.93
619.21	30094.61
619.36	30235.04
619.51	30031.41
619.67	30031.41
619.82	29855.87
619.97	30204.61
620.12	29617.14
620.28	29862.90
620.43	30000.99
620.58	30073.54
620.73	29731.83
620.89	30141.42
621.04	30389.52
621.19	29553.94
621.34	30022.05
621.49	29872.26
621.65	29881.62
621.80	30005.67
621.95	29397.13
622.10	29785.66
622.25	29968.22
622.41	29834.81
622.56	29549.26
622.71	29727.14
622.86	29778.64
623.01	29701.40
623.16	29813.74
623.32	29729.48
623.47	29647.57
623.62	30078.22
623.77	29731.83
623.92	29481.39
624.07	29607.78
624.23	29820.77
624.38	29481.39
624.53	29532.88
624.68	29853.53
624.83	29607.78
624.98	29539.90
625.13	29619.48
625.29	29596.07
625.44	29626.50
625.59	29247.33
625.74	29172.44
625.89	29200.52
626.04	29383.09
626.19	29104.56
626.34	29088.18
626.49	28985.19
626.65	29359.68
626.80	29266.06
626.95	29296.49
627.10	29308.19
627.25	29289.46
627.40	28975.83
627.55	29039.03
627.70	29139.67
627.85	28762.84
628.00	29074.13
628.15	29303.51
628.30	28685.61
628.45	28863.49
628.60	29142.01
628.76	29429.90
628.91	29050.73
629.06	28802.63
629.21	29233.29
629.36	29202.86
629.51	29132.65
629.66	28804.97
629.81	28872.85
629.96	28929.02
630.11	28741.78
630.26	28837.74
630.41	28739.44
630.56	28397.72
630.71	28774.55
630.86	28587.30
631.01	28652.84
631.16	28947.75
631.31	28566.24
631.46	28613.05
631.61	28645.82
631.76	28987.53
631.91	28343.89
632.06	28617.73
632.21	28423.47
632.36	28786.25
632.51	28535.81
632.66	28470.28
632.81	28631.77
632.96	28617.73
633.10	27974.08
633.25	28615.39
633.40	28561.56
633.55	28519.43
633.70	28107.49
633.85	28629.43
634.00	28247.93
634.15	28133.24
634.30	28034.94
634.45	28201.11
634.60	28273.67
634.75	28273.67
634.90	28196.43
635.05	28395.38
635.19	28444.53
635.34	28151.96
635.49	28561.56
635.64	28601.35
635.79	28198.77
635.94	27908.55
636.09	28463.25
636.24	28142.60
636.39	28212.82
636.53	27915.57
636.68	28273.67
636.83	27894.50
636.98	28240.90
637.13	28023.23
637.28	28636.45
637.43	28198.77
637.57	28247.93
637.72	28086.43
637.87	28098.13
638.02	27992.81
638.17	27700.24
638.32	27711.94
638.46	27697.90
638.61	27835.99
638.76	27562.15
638.91	27447.46
639.06	27653.43
639.20	27873.44
639.35	27953.02
639.50	27419.38
639.65	28011.53
639.80	28348.57
639.94	27431.08
640.09	28140.26
640.24	28009.19
640.39	27824.29
640.54	27653.43
640.68	27428.74
640.83	27704.92
640.98	27538.74
641.13	27454.48
641.27	27328.10
641.42	27030.85
641.57	27880.46
641.72	27573.85
641.86	27461.51
642.01	27527.04
642.16	27225.11
642.31	27108.08
642.45	27002.76
642.60	27426.40
642.75	27370.22
642.90	27185.32
643.04	27171.28
643.19	27030.85
643.34	27087.02
643.48	27239.15
643.63	27484.91
643.78	27555.13
643.93	27082.34
644.07	27068.30
644.22	27211.07
644.37	26916.16
644.51	27388.95
644.66	27241.50
644.81	27190.00
644.95	27175.96
645.10	27122.13
645.25	27192.34
645.39	27049.57
645.54	27044.89
645.69	27150.21
645.83	26984.04
645.98	27171.28
646.13	27178.30
646.27	27644.07
646.42	26747.64
646.57	26995.74
646.71	27070.64
646.86	26927.86
647.00	27040.21
647.15	26747.64
647.30	26745.30
647.44	26574.44
647.59	26712.53
647.74	26747.64
647.88	26920.84
648.03	26897.44
648.17	26857.65
648.32	26815.52
648.47	27028.51
648.61	27063.61
648.76	26696.15
648.90	26661.04
649.05	26932.54
649.20	26527.63
649.34	26553.38
649.49	26347.41
649.63	26525.29
649.78	26628.27
649.92	26111.02
650.07	26597.85
650.21	26515.93
650.36	26780.41
650.51	26251.45
650.65	26899.78
650.80	26632.96
650.94	26527.63
651.09	26230.38
651.23	26338.05
651.38	26384.86
651.52	26738.28
651.67	26171.87
651.81	26742.96
651.96	26363.79
652.10	26389.54
652.25	26429.33
652.39	26448.05
652.54	26707.85
652.68	26288.90
652.83	25879.30
652.97	26391.88
653.12	26473.80
653.26	26242.09
653.41	26354.43
653.55	26115.70
653.70	25874.62
653.84	25930.80
653.99	26096.97
654.13	25876.96
654.27	26167.19
654.42	25958.88
654.56	26087.61
654.71	26019.74
654.85	25986.97
655.00	26331.03
655.14	25944.84
655.29	26153.15
655.43	26181.23
655.57	25977.61
655.72	25757.60
655.86	26036.12
656.01	25769.30
656.15	25706.10
656.30	25617.16
656.44	25872.28
656.58	25486.09
656.73	25296.51
656.87	25668.66
657.01	25734.19
657.16	25535.24
657.30	26078.25
657.45	25773.98
657.59	26031.44
657.73	25488.43
657.88	25462.69
658.02	25956.54
658.16	25406.52
658.31	25301.19
658.45	25891.01
658.60	25294.17
658.74	25479.07
658.88	25259.06
659.03	25497.80
659.17	25420.56
659.31	25135.01
659.46	25483.75
659.60	25598.44
659.74	25745.89
659.89	25277.79
660.03	25603.12
660.17	25165.44
660.32	25296.51
660.46	25315.23
660.60	24950.11
660.74	25057.78
660.89	25198.21
661.03	25149.06
661.17	24943.09
661.32	25123.31
661.46	25046.07
661.60	24987.56
661.74	24971.18
661.89	25329.28
662.03	24755.85
662.17	24599.03
662.31	24533.50
662.46	24786.27
662.60	24781.59
662.74	24561.58
662.88	24828.40
663.03	24254.97
663.17	24678.61
663.31	24170.71
663.45	24552.22
663.60	24343.91
663.74	24547.54
663.88	24463.28
664.02	24566.26
664.17	24769.89
664.31	24355.61
664.45	24589.67
664.59	24376.68
664.73	24482.00
664.88	24336.89
665.02	23990.49
665.16	23906.23
665.30	23817.29
665.44	23901.55
665.59	23948.36
665.73	23931.98
665.87	23803.25
666.01	24041.98
666.15	23971.77
666.29	23828.99
666.44	24023.26
666.58	23737.71
666.72	23887.51
666.86	24187.10
667.00	23747.08
667.14	23901.55
667.28	23798.57
667.43	23833.68
667.57	23658.14
667.71	23335.14
667.85	23515.36
667.99	23187.69
668.13	23363.23
668.27	23346.84
668.41	23510.68
668.56	23513.02
668.70	23700.26
668.84	23281.31
668.98	23213.43
669.12	23683.88
669.26	23185.35
669.40	23281.31
669.54	22995.76
669.68	23194.71
669.82	22904.48
669.96	22902.14
670.10	22604.89
670.25	23087.04
670.39	23012.15
670.53	22946.61
670.67	22911.50
670.81	22457.44
670.95	22878.74
671.09	22951.29
671.23	22806.18
671.37	22787.46
671.51	22506.59
671.65	22857.67
671.79	22539.36
671.93	22445.74
672.07	22628.30
672.21	22347.44
672.35	22256.15
672.49	22148.49
672.63	22389.56
672.77	22015.08
672.91	22312.33
673.05	22080.61
673.19	22113.38
673.33	22122.74
673.47	22361.48
673.61	21982.31
673.75	22087.64
673.89	22127.42
674.03	22127.42
674.17	21991.67
674.31	21783.37
674.45	21785.71
674.59	21504.84
674.73	21535.27
674.87	21977.63
675.01	21383.13
675.15	21329.30
675.29	21474.42
675.43	21399.52
675.56	21633.57
675.70	21525.91
675.84	21259.09
675.98	20535.86
676.12	21186.53
676.26	21490.80
676.40	21582.08
676.54	21167.80
676.68	21043.76
676.82	20610.76
676.96	20835.45
677.10	20716.08
677.23	20636.50
677.37	20741.83
677.51	20475.01
677.65	20580.33
677.79	20643.52
677.93	20486.71
678.07	20596.71
678.21	20016.26
678.34	20505.43
678.48	20350.96
678.62	20180.10
678.76	19735.40
678.90	19866.47
679.04	19915.62
679.18	19922.64
679.31	19637.09
679.45	20130.95
679.59	19903.92
679.73	19683.91
679.87	19307.08
680.00	19073.03
680.14	19548.15
680.28	19445.17
680.42	19412.40
680.56	19419.42
680.70	19377.30
680.83	19489.64
680.97	19421.77
681.11	19400.70
681.25	19473.26
681.39	19236.86
681.52	18855.36
681.66	19119.84
681.80	19101.11
681.94	18801.52
682.07	18801.52
682.21	18827.27
682.35	18642.37
682.49	18544.06
682.62	18398.95
682.76	18588.53
682.90	18792.16
683.04	18515.98
683.17	18558.11
683.31	18562.79
683.45	18345.12
683.59	18295.97
683.72	17940.21
683.86	18143.83
684.00	18045.53
684.13	18298.31
684.27	17818.50
684.41	17898.08
684.55	17717.86
684.68	17647.64
684.82	17570.40
684.96	17771.69
685.09	17645.30
685.23	17334.01
685.37	17556.36
685.50	17647.64
685.64	17598.49
685.78	17357.41
685.91	17678.07
686.05	17317.62
686.19	17240.39
686.32	17394.86
686.46	17163.15
686.60	17006.33
686.73	17032.08
686.87	16723.13
687.01	16931.44
687.14	16751.21
687.28	16716.11
687.42	16659.93
687.55	16690.36
687.69	16596.74
687.82	16332.26
687.96	16568.65
688.10	16397.79
688.23	16514.82
688.37	16379.07
688.50	16491.41
688.64	16276.09
688.78	16290.13
688.91	16173.10
689.05	16084.16
689.18	15976.50
689.32	15910.96
689.46	15695.63
689.59	15599.67
689.73	15803.30
689.86	15599.67
690.00	15683.93
690.13	15616.05
690.27	15784.57
690.41	15679.25
690.54	15688.61
690.68	15461.58
690.81	15520.09
690.95	15517.75
691.08	15594.99
691.22	15494.35
691.35	15208.80
691.49	15442.85
691.62	15218.16
691.76	14874.10
691.89	14864.74
692.03	14841.34
692.16	14560.47
692.30	14497.28
692.43	14719.63
692.57	14469.19
692.70	14675.16
692.84	14464.51
692.97	14508.98
693.11	14616.65
693.24	14429.40
693.38	14267.91
693.51	14333.44
693.65	14171.94
693.78	14190.67
693.92	14270.25
694.05	14097.05
694.19	13949.59
694.32	14075.98
694.45	13996.40
694.59	13874.70
694.72	13743.63
694.86	13724.90
694.99	13532.98
695.13	13593.83
695.26	13404.25
695.39	13598.51
695.53	13345.73
695.66	13273.18
695.80	13518.93
695.93	13357.44
696.07	13465.10
696.20	13341.05
696.33	13116.36
696.47	13078.91
696.60	13128.06
696.73	13172.54
696.87	13032.10
697.00	13004.02
697.14	13144.45
697.27	12652.94
697.40	12681.02
697.54	12662.30
697.67	12517.18
697.80	12524.21
697.94	12657.62
698.07	12491.44
698.21	12437.61
698.34	12533.57
698.47	12463.35
698.61	12704.43
698.74	12418.88
698.87	12386.12
699.01	12119.29
699.14	12341.64
699.27	11950.78
699.40	11946.09
699.54	12283.13
699.67	12149.72
699.80	12020.99
699.94	11812.68
700.07	11817.36
700.20	11517.78
700.34	11346.92
700.47	11428.84
700.60	11470.97
700.73	11646.51
700.87	11527.14
701.00	11222.87
701.13	11492.03
701.26	11632.46
701.40	11403.09
701.53	11356.28
701.66	11190.10
701.79	11314.15
701.93	11220.53
702.06	11028.60
702.19	10984.13
702.32	11082.44
702.46	11000.52
702.59	10764.12
702.72	10731.36
702.85	10640.08
702.99	10663.48
703.12	10553.48
703.25	10691.57
703.38	10548.79
703.51	10560.50
703.65	10370.91
703.78	10347.51
703.91	10347.51
704.04	10516.03
704.17	10406.02
704.31	10251.55
704.44	9973.02
704.57	10052.60
704.70	10113.45
704.83	10148.56
704.96	10022.17
705.10	9881.74
705.23	9689.82
>>>>>End Processed Spectral Data<<<<<
