SpectraSuite Data File
++++++++++++++++++++++++++++++++++++
Date: Fri Oct 18 13:58:12 GMT-05:00 2013
User: bianchi
Dark Spectrum Present: No
Reference Spectrum Present: No
Number of Sampled Component Spectra: 1
Spectrometers: USB2+H05261
Integration Time (usec): 50000 (USB2+H05261)
Spectra Averaged: 1 (USB2+H05261)
Boxcar Smoothing: 0 (USB2+H05261)
Correct for Electrical Dark: No (USB2+H05261)
Strobe/Lamp Enabled: No (USB2+H05261)
Correct for Detector Non-linearity: No (USB2+H05261)
Correct for Stray Light: No (USB2+H05261)
Number of Pixels in Processed Spectrum: 2048
>>>>>Begin Processed Spectral Data<<<<<
365.73	0.00
365.92	0.00
366.12	0.00
366.32	0.00
366.52	0.00
366.72	0.00
366.91	0.00
367.11	0.00
367.31	0.00
367.51	0.00
367.70	0.00
367.90	0.00
368.10	0.00
368.30	0.00
368.49	0.00
368.69	0.00
368.89	0.00
369.09	0.00
369.28	0.00
369.48	0.00
369.68	0.00
369.87	0.00
370.07	0.00
370.27	0.00
370.47	0.00
370.66	35.11
370.86	84.26
371.06	98.30
371.25	196.60
371.45	93.62
371.65	196.60
371.84	135.75
372.04	163.84
372.24	81.92
372.44	168.52
372.63	191.92
372.83	287.89
373.03	208.31
373.22	243.42
373.42	177.88
373.62	271.50
373.81	222.35
374.01	227.03
374.21	264.48
374.40	210.65
374.60	205.97
374.79	234.05
374.99	287.89
375.19	262.14
375.38	205.97
375.58	257.46
375.78	238.73
375.97	285.55
376.17	271.50
376.37	264.48
376.56	217.67
376.76	301.93
376.95	196.60
377.15	243.42
377.35	257.46
377.54	292.57
377.74	278.52
377.93	220.01
378.13	374.49
378.33	395.55
378.52	252.78
378.72	299.59
378.91	351.08
379.11	283.20
379.31	311.29
379.50	278.52
379.70	252.78
379.89	259.80
380.09	337.04
380.28	322.99
380.48	344.06
380.68	315.97
380.87	236.39
381.07	360.44
381.26	386.19
381.46	327.68
381.65	311.29
381.85	320.65
382.04	299.59
382.24	313.63
382.43	308.95
382.63	362.78
382.83	402.57
383.02	376.83
383.22	351.08
383.41	409.59
383.61	264.48
383.80	402.57
384.00	397.89
384.19	411.93
384.39	383.85
384.58	383.85
384.78	421.30
384.97	315.97
385.17	341.72
385.36	372.15
385.56	404.91
385.75	330.02
385.95	374.49
386.14	407.25
386.34	416.62
386.53	465.77
386.72	477.47
386.92	414.27
387.11	435.34
387.31	433.00
387.50	437.68
387.70	440.02
387.89	456.40
388.09	418.96
388.28	507.90
388.48	463.43
388.67	449.38
388.86	456.40
389.06	428.32
389.25	425.98
389.45	451.72
389.64	489.17
389.84	454.06
390.03	477.47
390.22	543.00
390.42	538.32
390.61	528.96
390.81	519.60
391.00	482.15
391.19	528.96
391.39	451.72
391.58	503.22
391.78	491.51
391.97	575.77
392.16	538.32
392.36	524.28
392.55	557.05
392.75	557.05
392.94	601.52
393.13	603.86
393.33	585.13
393.52	634.29
393.71	592.16
393.91	564.07
394.10	589.82
394.29	624.92
394.49	634.29
394.68	713.86
394.88	615.56
395.07	566.41
395.26	566.41
395.46	571.09
395.65	617.90
395.84	676.41
396.04	650.67
396.23	657.69
396.42	631.94
396.62	730.25
396.81	697.48
397.00	660.03
397.19	650.67
397.39	606.20
397.58	681.10
397.77	784.08
397.97	823.87
398.16	690.46
398.35	706.84
398.55	786.42
398.74	678.76
398.93	741.95
399.12	748.97
399.32	734.93
399.51	692.80
399.70	730.25
399.90	777.06
400.09	767.70
400.28	758.33
400.47	837.91
400.67	777.06
400.86	788.76
401.05	809.83
401.24	758.33
401.44	866.00
401.63	823.87
401.82	732.59
402.01	842.59
402.21	840.25
402.40	758.33
402.59	903.45
402.78	901.11
402.97	849.61
403.17	999.41
403.36	940.90
403.55	999.41
403.74	880.04
403.93	861.32
404.13	781.74
404.32	964.30
404.51	933.87
404.70	919.83
404.89	896.43
405.09	971.32
405.28	1027.50
405.47	966.64
405.66	987.71
405.85	922.17
406.05	954.94
406.24	1043.88
406.43	954.94
406.62	1022.81
406.81	1095.37
407.00	1078.99
407.20	1015.79
407.39	1032.18
407.58	1071.97
407.77	1029.84
407.96	1104.73
408.15	1022.81
408.34	1191.33
408.54	1046.22
408.73	1156.22
408.92	1123.46
409.11	1233.46
409.30	1076.65
409.49	1125.80
409.68	1123.46
409.87	1165.59
410.07	1233.46
410.26	1235.80
410.45	1219.42
410.64	1163.25
410.83	1179.63
411.02	1296.66
411.21	1261.55
411.40	1291.98
411.59	1299.00
411.78	1299.00
411.98	1221.76
412.17	1273.25
412.36	1287.29
412.55	1371.55
412.74	1385.60
412.93	1364.53
413.12	1383.26
413.31	1357.51
413.50	1404.32
413.69	1486.24
413.88	1521.35
414.07	1469.86
414.26	1432.41
414.45	1577.52
414.64	1605.61
414.83	1671.14
415.02	1593.90
415.22	1451.13
415.41	1645.40
415.60	1544.75
415.79	1556.46
415.98	1570.50
416.17	1589.22
416.36	1600.93
416.55	1556.46
416.74	1741.36
416.93	1633.69
417.12	1607.95
417.31	1614.97
417.50	1783.49
417.69	1685.19
417.88	1809.23
418.07	1788.17
418.26	1769.44
418.45	1771.79
418.64	1839.66
418.83	1907.54
419.02	1727.32
419.21	1816.26
419.39	1963.71
419.58	1820.94
419.77	1837.32
419.96	1846.68
420.15	1973.07
420.34	1867.75
420.53	1935.62
420.72	1975.41
420.91	1982.43
421.10	1935.62
421.29	2010.52
421.48	1914.56
421.67	1963.71
421.86	1914.56
422.05	1994.14
422.24	1944.99
422.43	1935.62
422.61	2083.08
422.80	2054.99
422.99	2019.88
423.18	2029.24
423.37	2167.34
423.56	2066.69
423.75	1994.14
423.94	1987.11
424.13	1898.17
424.32	1998.82
424.50	2078.40
424.69	1956.69
424.88	2080.74
425.07	2047.97
425.26	2101.80
425.45	2162.66
425.64	2033.93
425.83	2040.95
426.01	2080.74
426.20	2106.48
426.39	2076.06
426.58	2174.36
426.77	2160.31
426.96	2260.96
427.15	2190.74
427.33	2160.31
427.52	2127.55
427.71	2176.70
427.90	2186.06
428.09	2267.98
428.28	2345.22
428.46	2256.28
428.65	2167.34
428.84	2197.76
429.03	2291.38
429.22	2169.68
429.40	2333.51
429.59	2263.30
429.78	2232.87
429.97	2122.87
430.16	2375.64
430.34	2340.54
430.53	2420.11
430.72	2443.52
430.91	2303.09
431.10	2307.77
431.28	2401.39
431.47	2380.32
431.66	2389.69
431.85	2509.05
432.03	2490.33
432.22	2511.39
432.41	2483.31
432.60	2441.18
432.79	2473.95
432.97	2363.94
433.16	2480.97
433.35	2523.10
433.54	2530.12
433.72	2555.86
433.91	2637.78
434.10	2483.31
434.28	2661.19
434.47	2574.59
434.66	2607.36
434.85	2614.38
435.03	2562.89
435.22	2722.04
435.41	2705.66
435.59	2682.25
435.78	2715.02
435.97	2745.45
436.16	2789.92
436.34	2745.45
436.53	2782.90
436.72	2839.07
436.90	2775.88
437.09	2745.45
437.28	2717.36
437.46	2789.92
437.65	2825.03
437.84	2920.99
438.02	2972.48
438.21	2965.46
438.40	2888.22
438.58	2967.80
438.77	2925.67
438.96	2932.69
439.14	3019.29
439.33	3082.49
439.52	3033.33
439.70	3021.63
439.89	3101.21
440.08	3056.74
440.26	3061.42
440.45	3035.67
440.63	3166.74
440.82	3199.51
441.01	3185.47
441.19	3241.64
441.38	3180.79
441.57	3307.18
441.75	3241.64
441.94	3239.30
442.12	3309.52
442.31	3332.92
442.50	3274.41
442.68	3239.30
442.87	3473.36
443.05	3424.20
443.24	3400.80
443.43	3555.27
443.61	3456.97
443.80	3548.25
443.98	3452.29
444.17	3386.76
444.35	3562.30
444.54	3496.76
444.73	3639.53
444.91	3487.40
445.10	3557.61
445.28	3463.99
445.47	3574.00
445.65	3564.64
445.84	3419.52
446.02	3538.89
446.21	3522.51
446.39	3510.80
446.58	3768.26
446.77	3618.47
446.95	3555.27
447.14	3590.38
447.32	3597.40
447.51	3599.74
447.69	3761.24
447.88	3562.30
448.06	3602.08
448.25	3536.55
448.43	3681.66
448.62	3606.77
448.80	3545.91
448.99	3700.39
449.17	3726.13
449.36	3609.11
449.54	3777.62
449.73	3810.39
449.91	3868.91
450.10	3758.90
450.28	3775.28
450.46	3702.73
450.65	3775.28
450.83	3990.61
451.02	3868.91
451.20	3915.72
451.39	3960.19
451.57	3887.63
451.76	3763.58
451.94	3763.58
452.13	3990.61
452.31	3950.82
452.49	3772.94
452.68	4014.02
452.86	4032.74
453.05	3906.35
453.23	4126.36
453.42	3988.27
453.60	4042.11
453.78	4025.72
453.97	3906.35
454.15	3918.06
454.34	4014.02
454.52	3999.98
454.70	4016.36
454.89	4168.49
455.07	4102.96
455.26	4152.11
455.44	4030.40
455.62	4126.36
455.81	4236.37
455.99	4400.21
456.17	4189.56
456.36	4243.39
456.54	4278.50
456.73	4306.59
456.91	4287.86
457.09	4432.97
457.28	4503.19
457.46	4243.39
457.64	4353.40
457.83	4402.55
458.01	4395.53
458.19	4484.47
458.38	4337.01
458.56	4486.81
458.74	4500.85
458.93	4416.59
459.11	4564.04
459.29	4531.28
459.48	4538.30
459.66	4554.68
459.84	4664.69
460.03	4786.40
460.21	4531.28
460.39	4660.01
460.57	4550.00
460.76	4638.94
460.94	4753.63
461.12	4753.63
461.31	4662.35
461.49	4713.84
461.67	4692.77
461.85	4730.22
462.04	4774.69
462.22	5067.26
462.40	4809.80
462.59	5036.83
462.77	4929.17
462.95	4730.22
463.13	4798.10
463.32	4919.81
463.50	4770.01
463.68	4858.95
463.86	4896.40
464.05	4882.36
464.23	5093.01
464.41	5011.09
464.59	4924.49
464.78	5064.92
464.96	5032.15
465.14	4985.34
465.32	5163.22
465.50	5097.69
465.69	5095.35
465.87	5100.03
466.05	5156.20
466.23	4936.19
466.41	5118.75
466.60	5343.44
466.78	5144.50
466.96	5144.50
467.14	5088.32
467.32	5334.08
467.51	5331.74
467.69	5177.26
467.87	5394.93
468.05	5369.19
468.23	5083.64
468.41	5247.48
468.60	5411.32
468.78	5373.87
468.96	5142.16
469.14	5366.85
469.32	5406.64
469.50	5289.61
469.69	5343.44
469.87	5490.90
470.05	5434.72
470.23	5568.13
470.41	5397.28
470.59	5696.86
470.77	5479.19
470.95	5668.78
471.14	5729.63
471.32	5591.54
471.50	5638.35
471.68	5788.14
471.86	5720.27
472.04	5696.86
472.22	5874.74
472.40	5708.57
472.58	5820.91
472.77	5776.44
472.95	5884.11
473.13	6321.79
473.31	5891.13
473.49	6076.03
473.67	5853.68
473.85	5996.45
474.03	6244.55
474.21	6157.95
474.39	5984.75
474.57	6270.30
474.75	6293.70
474.93	6216.46
475.12	6293.70
475.30	6104.12
475.48	6186.04
475.66	6354.55
475.84	6389.66
476.02	6373.28
476.20	6532.44
476.38	6679.89
476.56	6525.41
476.74	6679.89
476.92	6642.44
477.10	6810.96
477.28	6682.23
477.46	6722.02
477.64	6862.45
477.82	6925.65
478.00	7145.66
478.18	7077.78
478.36	6958.41
478.54	7199.49
478.72	7314.17
478.90	7337.58
479.08	7194.81
479.26	7323.54
479.44	7562.27
479.62	7405.46
479.80	7351.62
479.98	7775.26
480.16	7679.30
480.34	7723.77
480.52	7826.75
480.70	7676.96
480.88	7772.92
481.06	7913.35
481.24	7815.05
481.41	7903.99
481.59	8037.40
481.77	8166.13
481.95	8128.68
482.13	8250.39
482.31	8290.18
482.49	8388.48
482.67	8414.23
482.85	8409.54
483.03	8753.60
483.21	8638.92
483.39	8812.12
483.57	8847.22
483.74	8858.93
483.92	9029.79
484.10	8978.30
484.28	9118.73
484.46	9186.60
484.64	9366.82
484.82	9088.30
485.00	9249.80
485.18	9638.33
485.35	9516.62
485.53	9441.72
485.71	9617.26
485.89	10038.56
486.07	9832.59
486.25	9760.03
486.43	9891.10
486.61	9926.21
486.78	10064.30
486.96	9841.95
487.14	10258.57
487.32	10256.23
487.50	10455.17
487.68	10420.06
487.85	10408.36
488.03	10583.90
488.21	10696.25
488.39	10590.92
488.57	11098.82
488.75	10963.07
488.92	10974.77
489.10	11234.57
489.28	11197.12
489.46	11108.18
489.64	11351.60
489.81	11386.71
489.99	11412.45
490.17	11550.54
490.35	11934.39
490.53	11751.83
490.70	12138.02
490.88	11948.43
491.06	11892.26
491.24	12032.69
491.41	11915.67
491.59	12449.31
491.77	12201.21
491.95	12472.71
492.13	12505.48
492.30	12402.50
492.48	12376.75
492.66	12549.95
492.84	12500.80
493.01	12798.05
493.19	12936.14
493.37	12982.95
493.54	13139.77
493.72	12966.57
493.90	13310.63
494.08	13104.66
494.25	13317.65
494.43	13446.38
494.61	13378.50
494.79	13584.47
494.96	13434.68
495.14	13455.74
495.32	13633.62
495.49	13575.11
495.67	14078.32
495.85	14071.30
496.02	14118.11
496.20	14150.88
496.38	14406.00
496.55	14164.92
496.73	14761.76
496.91	14471.53
497.09	14745.38
497.26	14665.80
497.44	14663.46
497.62	14808.57
497.79	14977.09
497.97	14766.44
498.14	15108.16
498.32	15435.83
498.50	15407.75
498.67	15274.34
498.85	15054.33
499.03	15569.24
499.20	15260.29
499.38	15349.23
499.56	15428.81
499.73	15726.06
499.91	16011.60
500.08	15779.89
500.26	15894.58
500.44	15899.26
500.61	15740.10
500.79	15857.13
500.97	15882.88
501.14	16287.79
501.32	16442.26
501.49	16065.44
501.67	16257.36
501.84	16182.46
502.02	16374.39
502.20	16645.89
502.37	16678.66
502.55	16535.88
502.72	16704.40
502.90	16765.26
503.07	16769.94
503.25	16793.34
503.43	16482.05
503.60	16805.05
503.78	16915.05
503.95	16882.28
504.13	16725.47
504.30	16854.20
504.48	16915.05
504.65	17224.00
504.83	17158.47
505.01	17462.74
505.18	17387.84
505.36	17568.06
505.53	17263.79
505.71	17593.81
505.88	17518.91
506.06	17453.37
506.23	17767.01
506.41	17738.92
506.58	17825.52
506.76	17867.65
506.93	17537.63
507.11	17661.68
507.28	18368.52
507.46	17832.54
507.63	18038.51
507.81	18640.03
507.98	18040.85
508.16	18431.72
508.33	18237.45
508.50	18326.39
508.68	18246.82
508.85	18553.43
509.03	18618.96
509.20	18726.63
509.38	18817.91
509.55	18834.29
509.73	18824.93
509.90	18621.30
510.08	19047.28
510.25	18829.61
510.42	18890.46
510.60	19248.57
510.77	18745.35
510.95	19358.57
511.12	19325.80
511.30	19161.97
511.47	19101.11
511.64	19063.66
511.82	19737.74
511.99	19381.98
512.17	19681.56
512.34	19594.96
512.51	19491.98
512.69	19527.09
512.86	19768.16
513.04	20144.99
513.21	19927.32
513.38	19782.21
513.56	20032.65
513.73	19749.44
513.90	20032.65
514.08	19913.28
514.25	20243.29
514.43	20512.46
514.60	20182.44
514.77	20315.85
514.95	20531.18
515.12	20215.21
515.29	20233.93
515.47	20238.61
515.64	20259.68
515.81	20638.84
515.99	20786.30
516.16	20805.02
516.33	20884.60
516.51	20858.85
516.68	20800.34
516.85	20781.62
517.03	21233.34
517.20	20912.69
517.37	21219.30
517.54	21167.80
517.72	20996.95
517.89	21287.17
518.06	21294.19
518.24	21158.44
518.41	21434.63
518.58	21425.26
518.75	21195.89
518.93	21551.65
519.10	21715.49
519.27	21699.11
519.45	21701.45
519.62	21397.18
519.79	21638.25
519.96	21532.93
520.14	21783.37
520.31	21708.47
520.48	21720.17
520.65	22249.13
520.83	22242.11
521.00	21869.97
521.17	22106.36
521.34	22068.91
521.52	21715.49
521.69	21823.16
521.86	22457.44
522.03	22356.80
522.20	22331.05
522.38	22471.48
522.55	22148.49
522.72	22251.47
522.89	22417.65
523.07	22611.92
523.24	22602.55
523.41	22735.96
523.58	22471.48
523.75	23190.03
523.92	22597.87
524.10	22876.40
524.27	22883.42
524.44	22918.53
524.61	23007.47
524.78	23243.86
524.96	22890.44
525.13	23438.12
525.30	23304.71
525.47	23115.13
525.64	23108.11
525.81	23187.69
525.98	23173.64
526.16	23173.64
526.33	23534.09
526.50	23548.13
526.67	23241.52
526.84	23522.38
527.01	23388.97
527.18	23363.23
527.36	23407.70
527.53	23541.11
527.70	23777.50
527.87	24112.20
528.04	23765.80
528.21	23971.77
528.38	23421.74
528.55	24016.24
528.72	23826.65
528.89	24070.07
529.07	23929.64
529.24	24119.22
529.41	24266.67
529.58	24173.05
529.75	24144.97
529.92	24187.10
530.09	23999.85
530.26	24182.42
530.43	24313.48
530.60	24287.74
530.77	24507.75
530.94	24467.96
531.11	24439.87
531.28	24339.23
531.46	24437.53
531.63	24526.47
531.80	24767.55
531.97	24514.77
532.14	24751.17
532.31	24795.64
532.48	24760.53
532.65	24751.17
532.82	24489.03
532.99	24809.68
533.16	24540.52
533.33	24868.19
533.50	25259.06
533.67	24676.27
533.84	24828.40
534.01	25092.88
534.18	24720.74
534.35	25301.19
534.52	25116.29
534.69	25270.76
534.86	25696.74
535.03	24952.45
535.20	25207.57
535.37	25656.95
535.54	25572.69
535.71	25296.51
535.88	25135.01
536.05	25212.25
536.22	25717.81
536.38	25685.04
536.55	25687.38
536.72	25465.03
536.89	25610.14
537.06	25790.36
537.23	25883.98
537.40	25542.27
537.57	25497.80
537.74	25577.37
537.91	26125.06
538.08	26211.66
538.25	25741.21
538.42	25930.80
538.59	25715.47
538.75	25626.53
538.92	25680.36
539.09	26305.28
539.26	26092.29
539.43	26192.94
539.60	26277.19
539.77	26120.38
539.94	26286.56
540.11	26239.75
540.28	26309.96
540.44	25944.84
540.61	26544.02
540.78	26143.78
540.95	26483.16
541.12	26368.48
541.29	26630.62
541.46	26417.63
541.62	26555.72
541.79	26405.92
541.96	26328.69
542.13	26665.72
542.30	26684.45
542.47	26890.41
542.63	26773.39
542.80	26647.00
542.97	27002.76
543.14	27000.42
543.31	27213.41
543.48	26892.76
543.64	27087.02
543.81	27283.62
543.98	27122.13
544.15	27321.07
544.32	27491.93
544.48	27543.42
544.65	27168.94
544.82	27033.19
544.99	27175.96
545.16	27072.98
545.32	27023.83
545.49	27756.41
545.66	27625.34
545.83	27702.58
546.00	27899.19
546.16	27157.24
546.33	27253.20
546.50	26918.50
546.67	27737.69
546.83	27190.00
547.00	27431.08
547.17	27690.88
547.34	27683.86
547.50	27758.75
547.67	27948.34
547.84	27784.50
548.00	27740.03
548.17	27885.14
548.34	27873.44
548.51	27915.57
548.67	27936.63
548.84	27812.59
549.01	28048.98
549.18	28002.17
549.34	27974.08
549.51	28006.85
549.68	27695.56
549.84	27906.21
550.01	27906.21
550.18	28285.37
550.34	28135.58
550.51	28210.48
550.68	28432.83
550.84	28371.97
551.01	28467.94
551.18	28332.18
551.34	27871.10
551.51	28498.36
551.68	28278.35
551.84	28563.90
552.01	28100.47
552.18	28542.83
552.34	28348.57
552.51	28781.57
552.68	28563.90
552.84	28643.48
553.01	28716.03
553.18	28603.69
553.34	28650.50
553.51	28701.99
553.67	28549.85
553.84	28971.15
554.01	29022.64
554.17	28594.32
554.34	28549.85
554.51	28868.17
554.67	28872.85
554.84	29003.92
555.00	28669.22
555.17	29071.79
555.33	28858.81
555.50	28823.70
555.67	28910.30
555.83	28657.52
556.00	28856.46
556.16	29259.04
556.33	29387.77
556.50	28954.77
556.66	29062.43
556.83	28765.18
556.99	29228.61
557.16	29223.93
557.32	29032.00
557.49	29221.59
557.65	29163.08
557.82	28966.47
557.98	28950.09
558.15	29284.78
558.32	29188.82
558.48	29064.77
558.65	29411.17
558.81	29230.95
558.98	29610.12
559.14	29556.28
559.31	29198.18
559.47	29266.06
559.64	29659.27
559.80	29575.01
559.97	29818.42
560.13	29607.78
560.30	29659.27
560.46	29848.85
560.63	29570.33
560.79	29680.33
560.96	29701.40
561.12	29654.59
561.29	29436.92
561.45	29769.27
561.61	29759.91
561.78	29874.60
561.94	29462.66
562.11	30019.71
562.27	29898.00
562.44	29600.76
562.60	29703.74
562.77	29773.95
562.93	29558.63
563.10	30115.67
563.26	29905.02
563.42	30218.66
563.59	29788.00
563.75	29898.00
563.92	30036.09
564.08	29881.62
564.24	29832.47
564.41	30078.22
564.57	29677.99
564.74	30089.93
564.90	30206.95
565.07	29862.90
565.23	29788.00
565.39	29972.90
565.56	30080.56
565.72	29848.85
565.88	30089.93
566.05	30026.73
566.21	30031.41
566.38	29881.62
566.54	30176.53
566.70	30429.30
566.87	30342.70
567.03	30024.39
567.19	30206.95
567.36	30246.74
567.52	30209.29
567.68	30249.08
567.85	29823.11
568.01	30471.43
568.17	29937.79
568.34	30272.49
568.50	30347.39
568.66	30270.15
568.83	30593.14
568.99	30291.21
569.15	29993.97
569.32	30284.19
569.48	30043.12
569.64	30417.60
569.81	30761.66
569.97	30190.57
570.13	30457.39
570.30	30321.64
570.46	30328.66
570.62	30618.89
570.78	29989.28
570.95	30052.48
571.11	30417.60
571.27	29965.88
571.43	30274.83
571.60	29858.21
571.76	30073.54
571.92	30749.96
572.09	30632.93
572.25	30319.30
572.41	30417.60
572.57	30567.40
572.74	30817.83
572.90	30143.76
573.06	30316.96
573.22	30405.90
573.38	30345.05
573.55	30347.39
573.71	30993.37
573.87	30455.05
574.03	30422.28
574.20	30600.16
574.36	30646.97
574.52	30457.39
574.68	30366.11
574.84	30518.25
575.01	30518.25
575.17	30878.69
575.33	30782.73
575.49	30448.03
575.65	30600.16
575.82	30951.24
575.98	30443.35
576.14	30415.26
576.30	30845.92
576.46	30672.72
576.62	30181.21
576.79	30742.94
576.95	30490.16
577.11	30555.69
577.27	30689.10
577.43	30686.76
577.59	30766.34
577.75	30630.59
577.92	30260.79
578.08	30319.30
578.24	30429.30
578.40	30675.06
578.56	30581.44
578.72	30703.15
578.88	31012.10
579.04	30902.09
579.21	30902.09
579.37	30778.04
579.53	30588.46
579.69	30543.99
579.85	31030.82
580.01	30417.60
580.17	30284.19
580.33	30441.01
580.49	30764.00
580.65	30675.06
580.82	30710.17
580.98	30843.58
581.14	30789.75
581.30	30841.24
581.46	30562.72
581.62	30541.65
581.78	30993.37
581.94	30735.92
582.10	30675.06
582.26	30551.01
582.42	30808.47
582.58	30937.20
582.74	30649.32
582.90	30756.98
583.06	30686.76
583.22	30796.77
583.38	31147.85
583.54	30871.67
583.70	30244.40
583.86	31110.40
584.02	30899.75
584.18	30742.94
584.34	30604.84
584.50	31014.44
584.66	30590.80
584.82	31292.96
584.98	31084.65
585.14	30883.37
585.30	30778.04
585.46	30785.07
585.62	30457.39
585.78	31035.50
585.94	30448.03
586.10	31037.84
586.26	31199.34
586.42	31049.55
586.58	31222.75
586.74	30553.35
586.90	30459.73
587.06	30572.08
587.22	30778.04
587.38	30974.65
587.54	31260.20
587.70	30913.80
587.86	31267.22
588.02	31154.87
588.18	31297.64
588.34	30803.79
588.49	30944.22
588.65	30567.40
588.81	30944.22
588.97	31087.00
589.13	30796.77
589.29	30834.22
589.45	31105.72
589.61	31372.54
589.77	31384.24
589.93	31220.41
590.08	31234.45
590.24	31269.56
590.40	31615.96
590.56	31236.79
590.72	31239.13
590.88	31192.32
591.04	30815.49
591.20	31325.73
591.35	31388.92
591.51	31449.78
591.67	31433.39
591.83	31452.12
591.99	31239.13
592.15	31168.91
592.31	31082.31
592.46	30590.80
592.62	30925.50
592.78	31005.08
592.94	31370.20
593.10	31232.11
593.26	31566.81
593.41	31470.84
593.57	31138.49
593.73	31552.76
593.89	31388.92
594.05	30991.03
594.20	31215.72
594.36	31377.22
594.52	31096.36
594.68	31218.07
594.84	31257.85
594.99	31470.84
595.15	31145.51
595.31	31545.74
595.47	31442.76
595.62	31468.50
595.78	31683.83
595.94	31419.35
596.10	31878.10
596.25	31082.31
596.41	31159.55
596.57	31257.85
596.73	31370.20
596.88	31508.29
597.04	31459.14
597.20	31674.47
597.36	31985.76
597.51	31662.77
597.67	31566.81
597.83	31220.41
597.99	31541.06
598.14	31601.91
598.30	31180.62
598.46	31583.19
598.61	31473.18
598.77	31311.69
598.93	31489.57
599.09	31555.10
599.24	31632.34
599.40	31573.83
599.56	31620.64
599.71	31475.52
599.87	31290.62
600.03	31468.50
600.18	31482.55
600.34	31056.57
600.50	31569.15
600.65	31101.04
600.81	31835.97
600.97	31716.60
601.12	31847.67
601.28	31648.72
601.44	31349.14
601.59	31789.16
601.75	31630.00
601.91	31917.89
602.06	31440.42
602.22	31527.02
602.37	31243.81
602.53	31311.69
602.69	31370.20
602.84	31442.76
603.00	31515.31
603.16	31620.64
603.31	31487.23
603.47	31463.82
603.62	31412.33
603.78	31571.49
603.94	31318.71
604.09	31487.23
604.25	31489.57
604.40	31519.99
604.56	31412.33
604.71	31573.83
604.87	31763.41
605.03	31445.10
605.18	31461.48
605.34	31868.73
605.49	31438.08
605.65	31356.16
605.80	31468.50
605.96	31356.16
606.12	31578.51
606.27	31318.71
606.43	31445.10
606.58	31969.38
606.74	31697.88
606.89	31386.58
607.05	31557.44
607.20	31412.33
607.36	31339.77
607.51	31438.08
607.67	31189.98
607.82	31400.63
607.98	31211.04
608.13	31131.47
608.29	31454.46
608.44	31868.73
608.60	30974.65
608.75	31571.49
608.91	31470.84
609.06	30871.67
609.22	31377.22
609.37	31037.84
609.53	31267.22
609.68	31337.43
609.84	31241.47
609.99	31405.31
610.15	31089.34
610.30	31101.04
610.46	31189.98
610.61	31257.85
610.76	31494.25
610.92	31400.63
611.07	31349.14
611.23	31056.57
611.38	30829.54
611.54	30878.69
611.69	31108.06
611.84	31395.95
612.00	30801.45
612.15	30845.92
612.31	31119.76
612.46	30892.73
612.62	31070.61
612.77	31449.78
612.92	31014.44
613.08	30890.39
613.23	31241.47
613.39	31124.44
613.54	31042.53
613.69	30852.94
613.85	31033.16
614.00	31124.44
614.15	31089.34
614.31	30876.35
614.46	31143.17
614.62	31089.34
614.77	31332.75
614.92	31138.49
615.08	30773.36
615.23	30892.73
615.38	31065.93
615.54	30614.21
615.69	30534.63
615.84	30719.53
616.00	30780.39
616.15	30789.75
616.30	30871.67
616.46	30162.48
616.61	30637.61
616.76	31019.12
616.92	30604.84
617.07	30848.26
617.22	30845.92
617.37	30314.62
617.53	30824.86
617.68	30443.35
617.83	30359.09
617.99	30380.15
618.14	30618.89
618.29	30504.20
618.45	30948.90
618.60	30747.62
618.75	30352.07
618.90	30548.67
619.06	30539.31
619.21	30171.85
619.36	30391.86
619.51	30026.73
619.67	30242.06
619.82	30328.66
619.97	30162.48
620.12	30382.49
620.28	30569.74
620.43	30326.32
620.58	30555.69
620.73	30787.41
620.89	30649.32
621.04	30600.16
621.19	29998.65
621.34	30078.22
621.49	29982.26
621.65	29804.38
621.80	30052.48
621.95	29865.24
622.10	30059.50
622.25	29933.11
622.41	29998.65
622.56	30164.82
622.71	30314.62
622.86	30176.53
623.01	30085.25
623.16	29806.72
623.32	29647.57
623.47	29979.92
623.62	29898.00
623.77	29687.36
623.92	30078.22
624.07	29710.76
624.23	30047.80
624.38	30110.99
624.53	29701.40
624.68	30094.61
624.83	30359.09
624.98	30047.80
625.13	30050.14
625.29	30096.95
625.44	29895.66
625.59	29567.99
625.74	29848.85
625.89	29450.96
626.04	29383.09
626.19	29635.86
626.34	29436.92
626.49	29200.52
626.65	29490.75
626.80	29933.11
626.95	29757.57
627.10	29331.59
627.25	29647.57
627.40	29142.01
627.55	29340.96
627.70	29221.59
627.85	29420.53
628.00	29362.02
628.15	29467.34
628.30	29256.70
628.45	29397.13
628.60	29570.33
628.76	29633.52
628.91	29071.79
629.06	29408.83
629.21	29315.21
629.36	29268.40
629.51	29097.54
629.66	29219.25
629.81	29081.16
629.96	29174.78
630.11	29057.75
630.26	29237.97
630.41	29048.39
630.56	29060.09
630.71	29069.45
630.86	29149.03
631.01	28830.72
631.16	29085.84
631.31	29106.90
631.46	29177.12
631.61	29256.70
631.76	28779.23
631.91	28900.94
632.06	28844.76
632.21	28624.75
632.36	28917.32
632.51	28531.13
632.66	28982.85
632.81	28559.22
632.96	29013.28
633.10	28479.64
633.25	28947.75
633.40	29015.62
633.55	28868.17
633.70	28767.52
633.85	28170.69
634.00	28250.27
634.15	28788.59
634.30	28510.07
634.45	28690.29
634.60	28371.97
634.75	28336.87
634.90	28676.24
635.05	28673.90
635.19	28713.69
635.34	29017.96
635.49	28617.73
635.64	28540.49
635.79	28290.06
635.94	28737.10
636.09	28699.65
636.24	28648.16
636.39	28318.14
636.53	28299.42
636.68	28158.99
636.83	28404.74
636.98	28451.55
637.13	28430.49
637.28	28563.90
637.43	28615.39
637.57	28678.58
637.72	28329.84
637.87	28538.15
638.02	28577.94
638.17	28369.63
638.32	27751.73
638.46	27592.58
638.61	28018.55
638.76	28350.91
638.91	27929.61
639.06	28212.82
639.20	28109.83
639.35	28229.20
639.50	28133.24
639.65	28496.02
639.80	28058.34
639.94	28072.39
640.09	27623.00
640.24	28268.99
640.39	28357.93
640.54	27817.27
640.68	27648.75
640.83	27765.78
640.98	27651.09
641.13	27498.95
641.27	27625.34
641.42	27920.25
641.57	28402.40
641.72	28037.28
641.86	27583.21
642.01	27859.40
642.16	27924.93
642.31	27377.25
642.45	27917.91
642.60	27030.85
642.75	27608.96
642.90	27309.37
643.04	27459.16
643.19	27543.42
643.34	27337.46
643.48	27676.83
643.63	27552.79
643.78	27587.89
643.93	27662.79
644.07	27740.03
644.22	27857.06
644.37	27695.56
644.51	27445.12
644.66	27033.19
644.81	27470.87
644.95	27363.20
645.10	27438.10
645.25	27325.75
645.39	27433.42
645.54	27744.71
645.69	27679.18
645.83	27136.17
645.98	27402.99
646.13	27491.93
646.27	27489.59
646.42	27304.69
646.57	27534.06
646.71	27115.11
646.86	27461.51
647.00	27473.21
647.15	26995.74
647.30	27105.74
647.44	26871.69
647.59	26934.88
647.74	27105.74
647.88	27068.30
648.03	27325.75
648.17	27171.28
648.32	27229.79
648.47	27379.59
648.61	27112.77
648.76	27227.45
648.90	27058.93
649.05	27065.96
649.20	27091.70
649.34	27065.96
649.49	26693.81
649.63	26852.97
649.78	26696.15
649.92	26684.45
650.07	26775.73
650.21	26995.74
650.36	26951.27
650.51	26981.70
650.65	27318.73
650.80	26843.60
650.94	26651.68
651.09	26806.16
651.23	26429.33
651.38	26831.90
651.52	26759.34
651.67	26749.98
651.81	26796.79
651.96	26464.44
652.10	26588.49
652.25	26902.12
652.39	26754.66
652.54	26927.86
652.68	26675.09
652.83	26607.21
652.97	26979.36
653.12	26878.71
653.26	26373.16
653.41	26728.92
653.55	26338.05
653.70	26417.63
653.84	26595.51
653.99	26382.52
654.13	25860.58
654.27	26370.82
654.42	26075.91
654.56	26305.28
654.71	26354.43
654.85	26483.16
655.00	26359.11
655.14	26581.46
655.29	26029.10
655.43	26349.75
655.57	25790.36
655.72	26281.88
655.86	26480.82
656.01	25998.67
656.15	26146.12
656.30	25905.05
656.44	26338.05
656.58	26017.40
656.73	25809.09
656.87	25916.75
657.01	25893.35
657.16	26038.46
657.30	26031.44
657.45	25802.07
657.59	26066.55
657.73	26024.42
657.88	26246.77
658.02	25790.36
658.16	25785.68
658.31	25958.88
658.45	25862.92
658.60	25818.45
658.74	25607.80
658.88	25738.87
659.03	25546.95
659.17	25596.10
659.31	25708.44
659.46	25663.97
659.60	25834.83
659.74	25490.77
659.89	25450.99
660.03	25701.42
660.17	25570.35
660.32	25493.12
660.46	25340.98
660.60	25003.94
660.74	25362.04
660.89	25287.15
661.03	24961.81
661.17	25245.02
661.32	25127.99
661.46	25598.44
661.60	25200.55
661.74	25413.54
661.89	25549.29
662.03	25263.74
662.17	25441.62
662.31	25282.47
662.46	25315.23
662.60	24978.20
662.74	25076.50
662.88	24737.12
663.03	24886.92
663.17	24631.80
663.31	24641.16
663.45	24812.02
663.60	24758.19
663.74	24840.11
663.88	24886.92
664.02	24327.53
664.17	24683.29
664.31	24823.72
664.45	24737.12
664.59	24732.44
664.73	24531.15
664.88	24369.66
665.02	24133.26
665.16	24362.64
665.30	24311.14
665.44	24589.67
665.59	24116.88
665.73	24411.79
665.87	24137.94
666.01	23999.85
666.15	24219.86
666.29	24266.67
666.44	24404.77
666.58	24030.28
666.72	24175.39
666.86	23974.11
667.00	24442.21
667.14	24159.01
667.28	24027.94
667.43	23817.29
667.57	23627.71
667.71	23908.57
667.85	23992.83
667.99	23763.46
668.13	23686.22
668.27	23690.90
668.41	23824.31
668.56	23461.53
668.70	23807.93
668.84	23917.93
668.98	23330.46
669.12	23747.08
669.26	23580.90
669.40	23496.64
669.54	23335.14
669.68	23248.54
669.82	23374.93
669.96	23063.64
670.10	22892.78
670.25	23063.64
670.39	22932.57
670.53	23337.48
670.67	23126.83
670.81	23297.69
670.95	23124.49
671.09	23433.44
671.23	23096.41
671.37	22927.89
671.51	22958.31
671.65	23028.53
671.79	23225.14
671.93	22967.68
672.07	22822.56
672.21	22373.18
672.35	22792.14
672.49	22537.02
672.63	22267.86
672.77	22614.26
672.91	22642.34
673.05	22459.78
673.19	22106.36
673.33	22391.91
673.47	22471.48
673.61	22111.04
673.75	22473.82
673.89	22092.32
674.03	22246.79
674.17	21860.60
674.31	22050.19
674.45	22405.95
674.59	22230.41
674.73	22251.47
674.87	22010.40
675.01	21596.12
675.15	21916.78
675.29	21568.04
675.43	21528.25
675.56	21474.42
675.70	21774.00
675.84	21710.81
675.98	20826.09
676.12	21467.39
676.26	21898.05
676.40	21729.53
676.54	21476.76
676.68	21221.64
676.82	20629.48
676.96	21322.28
677.10	21287.17
677.23	21074.18
677.37	20924.39
677.51	20776.94
677.65	20908.01
677.79	20688.00
677.93	20552.24
678.07	20776.94
678.21	20575.65
678.34	20320.53
678.48	20486.71
678.62	20276.06
678.76	20465.64
678.90	20222.23
679.04	20390.75
679.18	20409.47
679.31	19950.73
679.45	20072.43
679.59	19999.88
679.73	19875.83
679.87	19850.08
680.00	19824.34
680.14	19566.88
680.28	19721.35
680.42	20004.56
680.56	19754.12
680.70	19751.78
680.83	19941.36
680.97	19644.12
681.11	19332.82
681.25	19293.04
681.39	19281.33
681.52	19094.09
681.66	19309.42
681.80	18878.76
681.94	19204.10
682.07	18862.38
682.21	19035.58
682.35	18717.26
682.49	18696.20
682.62	18822.59
682.76	18963.02
682.90	18733.65
683.04	18462.15
683.17	18787.48
683.31	18597.90
683.45	18530.02
683.59	18789.82
683.72	18609.60
683.86	18384.91
684.00	18349.80
684.13	18244.48
684.27	18272.56
684.41	17928.50
684.55	17975.31
684.68	17689.77
684.82	17598.49
684.96	17811.48
685.09	17715.51
685.23	17188.89
685.37	17935.53
685.50	17612.53
685.64	17839.56
685.78	17539.97
685.91	17598.49
686.05	17628.92
686.19	17561.04
686.32	17362.09
686.46	17228.68
686.60	17397.20
686.73	17280.18
686.87	17329.33
687.01	16856.54
687.14	17130.38
687.28	16929.09
687.42	16739.51
687.55	16837.81
687.69	16662.27
687.82	16519.50
687.96	16795.68
688.10	16526.52
688.23	16519.50
688.37	16395.45
688.50	16634.19
688.64	16388.43
688.78	16313.53
688.91	16233.96
689.05	16067.78
689.18	16320.56
689.32	15822.02
689.46	15845.43
689.59	16079.48
689.73	16056.08
689.86	15545.84
690.00	16095.86
690.13	15791.59
690.27	15594.99
690.41	15459.24
690.54	15908.62
690.68	15564.56
690.81	15669.89
690.95	15894.58
691.08	15777.55
691.22	15557.54
691.35	15241.57
691.49	15358.60
691.62	15499.03
691.76	15080.07
691.89	15222.84
692.03	14958.36
692.16	15033.26
692.30	14888.15
692.43	14663.46
692.57	14682.18
692.70	14759.42
692.84	14686.86
692.97	14590.90
693.11	14621.33
693.24	14398.98
693.38	14544.09
693.51	14263.22
693.65	14504.30
693.78	14415.36
693.92	14712.61
694.05	14406.00
694.19	14111.09
694.32	14040.87
694.45	13947.25
694.59	13834.91
694.72	13832.57
694.86	13926.19
694.99	13516.59
695.13	13987.04
695.26	13619.58
695.39	13490.85
695.53	13752.99
695.66	13736.60
695.80	13540.00
695.93	13575.11
696.07	13650.00
696.20	13507.23
696.33	13350.42
696.47	13298.92
696.60	13465.10
696.73	13350.42
696.87	13081.25
697.00	13001.68
697.14	13116.36
697.27	12643.57
697.40	12718.47
697.54	12755.92
697.67	12638.89
697.80	12643.57
697.94	12685.70
698.07	12475.06
698.21	12409.52
698.34	12819.11
698.47	12952.52
698.61	12669.32
698.74	12629.53
698.87	12198.87
699.01	12346.33
699.14	12449.31
699.27	12032.69
699.40	12149.72
699.54	11927.37
699.67	11913.33
699.80	11903.96
699.94	12161.42
700.07	11667.57
700.20	11590.33
700.34	11866.52
700.47	11698.00
700.60	11815.02
700.73	11606.72
700.87	11730.76
701.00	11501.39
701.13	11578.63
701.26	11620.76
701.40	11389.05
701.53	11524.80
701.66	11583.31
701.79	11435.86
701.93	11300.11
702.06	11351.60
702.19	11103.50
702.32	11103.50
702.46	11059.03
702.59	10822.64
702.72	10698.59
702.85	10700.93
702.99	10647.10
703.12	10810.93
703.25	10796.89
703.38	10710.29
703.51	10785.19
703.65	10733.70
703.78	10576.88
703.91	10525.39
704.04	10707.95
704.17	10740.72
704.31	10417.72
704.44	10509.01
704.57	10272.61
704.70	10068.98
704.83	10094.73
704.96	10176.65
705.10	10113.45
705.23	10094.73
>>>>>End Processed Spectral Data<<<<<
