SpectraSuite Data File
++++++++++++++++++++++++++++++++++++
Date: Fri Oct 18 13:57:58 GMT-05:00 2013
User: bianchi
Dark Spectrum Present: No
Reference Spectrum Present: No
Number of Sampled Component Spectra: 1
Spectrometers: USB2+H05261
Integration Time (usec): 50000 (USB2+H05261)
Spectra Averaged: 1 (USB2+H05261)
Boxcar Smoothing: 0 (USB2+H05261)
Correct for Electrical Dark: No (USB2+H05261)
Strobe/Lamp Enabled: No (USB2+H05261)
Correct for Detector Non-linearity: No (USB2+H05261)
Correct for Stray Light: No (USB2+H05261)
Number of Pixels in Processed Spectrum: 2048
>>>>>Begin Processed Spectral Data<<<<<
365.73	0.00
365.92	0.00
366.12	0.00
366.32	0.00
366.52	0.00
366.72	0.00
366.91	0.00
367.11	0.00
367.31	0.00
367.51	0.00
367.70	0.00
367.90	0.00
368.10	0.00
368.30	0.00
368.49	0.00
368.69	0.00
368.89	0.00
369.09	0.00
369.28	0.00
369.48	0.00
369.68	0.00
369.87	0.00
370.07	0.00
370.27	0.00
370.47	0.00
370.66	46.81
370.86	124.05
371.06	180.22
371.25	128.73
371.45	154.48
371.65	215.33
371.84	98.30
372.04	159.16
372.24	159.16
372.44	201.29
372.63	222.35
372.83	229.37
373.03	114.69
373.22	201.29
373.42	201.29
373.62	220.01
373.81	220.01
374.01	311.29
374.21	280.86
374.40	177.88
374.60	212.99
374.79	210.65
374.99	248.10
375.19	229.37
375.38	264.48
375.58	234.05
375.78	283.20
375.97	203.63
376.17	220.01
376.37	259.80
376.56	332.36
376.76	177.88
376.95	170.86
377.15	245.76
377.35	262.14
377.54	285.55
377.74	297.25
377.93	241.08
378.13	245.76
378.33	257.46
378.52	304.27
378.72	269.16
378.91	313.63
379.11	264.48
379.31	297.25
379.50	330.02
379.70	374.49
379.89	257.46
380.09	318.31
380.28	313.63
380.48	315.97
380.68	278.52
380.87	358.10
381.07	217.67
381.26	351.08
381.46	332.36
381.65	252.78
381.85	351.08
382.04	315.97
382.24	301.93
382.43	334.70
382.63	397.89
382.83	444.70
383.02	414.27
383.22	376.83
383.41	407.25
383.61	339.38
383.80	414.27
384.00	395.55
384.19	318.31
384.39	386.19
384.58	374.49
384.78	475.13
384.97	521.94
385.17	404.91
385.36	365.12
385.56	440.02
385.75	393.21
385.95	486.83
386.14	486.83
386.34	500.87
386.53	472.79
386.72	379.17
386.92	379.17
387.11	320.65
387.31	440.02
387.50	383.85
387.70	411.93
387.89	498.53
388.09	521.94
388.28	388.53
388.48	479.81
388.67	535.98
388.86	496.19
389.06	444.70
389.25	463.43
389.45	397.89
389.64	538.32
389.84	472.79
390.03	489.17
390.22	552.37
390.42	482.15
390.61	521.94
390.81	475.13
391.00	472.79
391.19	514.92
391.39	531.30
391.58	484.49
391.78	454.06
391.97	533.64
392.16	524.28
392.36	547.69
392.55	477.47
392.75	528.96
392.94	517.26
393.13	592.16
393.33	622.58
393.52	613.22
393.71	629.60
393.91	596.84
394.10	538.32
394.29	634.29
394.49	540.66
394.68	669.39
394.88	657.69
395.07	641.31
395.26	648.33
395.46	676.41
395.65	641.31
395.84	624.92
396.04	744.29
396.23	641.31
396.42	751.31
396.62	585.13
396.81	692.80
397.00	732.59
397.19	788.76
397.39	681.10
397.58	641.31
397.77	709.18
397.97	610.88
398.16	678.76
398.35	760.67
398.55	720.88
398.74	718.54
398.93	734.93
399.12	727.91
399.32	704.50
399.51	758.33
399.70	695.14
399.90	725.57
400.09	791.10
400.28	791.10
400.47	786.42
400.67	809.83
400.86	849.61
401.05	779.40
401.24	770.04
401.44	828.55
401.63	870.68
401.82	814.51
402.01	835.57
402.21	802.80
402.40	868.34
402.59	807.48
402.78	814.51
402.97	842.59
403.17	875.36
403.36	938.55
403.55	870.68
403.74	966.64
403.93	903.45
404.13	915.15
404.32	861.32
404.51	938.55
404.70	1057.92
404.89	1034.52
405.09	997.07
405.28	929.19
405.47	940.90
405.66	968.98
405.85	1069.62
406.05	910.47
406.24	1062.60
406.43	912.81
406.62	1104.73
406.81	1088.35
407.00	961.96
407.20	990.05
407.39	1053.24
407.58	1046.22
407.77	1046.22
407.96	1118.78
408.15	1146.86
408.34	978.34
408.54	1205.38
408.73	1107.07
408.92	1191.33
409.11	1069.62
409.30	1160.91
409.49	1219.42
409.68	1196.01
409.87	1135.16
410.07	1214.74
410.26	1193.67
410.45	1128.14
410.64	1254.53
410.83	1226.44
411.02	1245.16
411.21	1268.57
411.40	1179.63
411.59	1289.64
411.78	1270.91
411.98	1317.72
412.17	1387.94
412.36	1284.95
412.55	1282.61
412.74	1455.81
412.93	1369.21
413.12	1254.53
413.31	1462.83
413.50	1399.64
413.69	1465.18
413.88	1511.99
414.07	1453.47
414.26	1568.16
414.45	1390.28
414.64	1547.09
414.83	1565.82
415.02	1558.80
415.22	1610.29
415.41	1624.33
415.60	1605.61
415.79	1530.71
415.98	1572.84
416.17	1699.23
416.36	1575.18
416.55	1650.08
416.74	1788.17
416.93	1720.29
417.12	1692.21
417.31	1696.89
417.50	1736.68
417.69	1774.13
417.88	1830.30
418.07	1717.95
418.26	1781.15
418.45	1799.87
418.64	1771.79
418.83	1877.11
419.02	1811.57
419.21	1860.73
419.39	1888.81
419.58	1825.62
419.77	1823.28
419.96	1867.75
420.15	1963.71
420.34	1760.08
420.53	1961.37
420.72	1998.82
420.91	1874.77
421.10	2054.99
421.29	2022.22
421.48	1998.82
421.67	1944.99
421.86	2097.12
422.05	1994.14
422.24	1942.64
422.43	2026.90
422.61	2036.27
422.80	2099.46
422.99	1944.99
423.18	2031.58
423.37	2069.03
423.56	2087.76
423.75	2022.22
423.94	2069.03
424.13	1879.45
424.32	1973.07
424.50	2038.61
424.69	2099.46
424.88	2118.18
425.07	2101.80
425.26	2115.84
425.45	2090.10
425.64	2026.90
425.83	2050.31
426.01	2101.80
426.20	2125.21
426.39	2122.87
426.58	2132.23
426.77	2136.91
426.96	2186.06
427.15	2083.08
427.33	2190.74
427.52	2176.70
427.71	2270.32
427.90	2270.32
428.09	2291.38
428.28	2286.70
428.46	2165.00
428.65	2146.27
428.84	2286.70
429.03	2335.85
429.22	2200.10
429.40	2305.43
429.59	2282.02
429.78	2275.00
429.97	2172.02
430.16	2136.91
430.34	2338.20
430.53	2349.90
430.72	2286.70
430.91	2338.20
431.10	2200.10
431.28	2406.07
431.47	2382.67
431.66	2375.64
431.85	2415.43
432.03	2422.45
432.22	2499.69
432.41	2558.21
432.60	2548.84
432.79	2436.50
432.97	2476.29
433.16	2293.72
433.35	2602.68
433.54	2530.12
433.72	2691.62
433.91	2588.63
434.10	2630.76
434.28	2466.92
434.47	2605.02
434.66	2621.40
434.85	2743.11
435.03	2567.57
435.22	2818.00
435.41	2810.98
435.59	2733.75
435.78	2691.62
435.97	2677.57
436.16	2773.53
436.34	2740.77
436.53	2743.11
436.72	2759.49
436.90	2909.29
437.09	2693.96
437.28	2712.68
437.46	2839.07
437.65	2820.35
437.84	2834.39
438.02	2771.19
438.21	2850.77
438.40	2722.04
438.58	3009.93
438.77	3016.95
438.96	2935.03
439.14	3023.97
439.33	2876.52
439.52	2899.92
439.70	3019.29
439.89	3133.98
440.08	3122.27
440.26	3145.68
440.45	3028.65
440.63	3129.30
440.82	3225.26
441.01	3251.00
441.19	3211.22
441.38	3279.09
441.57	3265.05
441.75	3309.52
441.94	3361.01
442.12	3248.66
442.31	3407.82
442.50	3370.37
442.68	3283.77
442.87	3325.90
443.05	3463.99
443.24	3524.85
443.43	3442.93
443.61	3494.42
443.80	3609.11
443.98	3421.86
444.17	3410.16
444.35	3442.93
444.54	3489.74
444.73	3548.25
444.91	3595.06
445.10	3433.57
445.28	3510.80
445.47	3548.25
445.65	3552.93
445.84	3595.06
446.02	3672.30
446.21	3557.61
446.39	3520.17
446.58	3501.44
446.77	3665.28
446.95	3459.31
447.14	3569.32
447.32	3646.55
447.51	3634.85
447.69	3543.57
447.88	3630.17
448.06	3648.90
448.25	3550.59
448.43	3501.44
448.62	3665.28
448.80	3599.74
448.99	3620.81
449.17	3672.30
449.36	3735.50
449.54	3775.28
449.73	3761.24
449.91	3819.75
450.10	3817.41
450.28	3819.75
450.46	3836.14
450.65	3859.54
450.83	3932.10
451.02	3758.90
451.20	3866.56
451.39	3817.41
451.57	3868.91
451.76	3819.75
451.94	3772.94
452.13	3913.38
452.31	4067.85
452.49	3950.82
452.68	4037.42
452.86	3990.61
453.05	4021.04
453.23	3964.87
453.42	3957.85
453.60	3817.41
453.78	3969.55
453.97	4044.45
454.15	4100.62
454.34	3892.31
454.52	4105.30
454.70	4154.45
454.89	4074.87
455.07	4098.28
455.26	4205.94
455.44	4212.96
455.62	4196.58
455.81	4156.79
455.99	4168.49
456.17	4227.01
456.36	4205.94
456.54	4334.67
456.73	4409.57
456.91	4411.91
457.09	4404.89
457.28	4409.57
457.46	4372.12
457.64	4379.14
457.83	4435.32
458.01	4329.99
458.19	4367.44
458.38	4440.00
458.56	4514.89
458.74	4507.87
458.93	4430.63
459.11	4470.42
459.29	4482.13
459.48	4486.81
459.66	4648.30
459.84	4601.49
460.03	4664.69
460.21	4713.84
460.39	4711.50
460.57	4622.56
460.76	4648.30
460.94	4861.29
461.12	4685.75
461.31	4706.82
461.49	4734.90
461.67	4741.93
461.85	4816.82
462.04	4896.40
462.22	5247.48
462.40	4798.10
462.59	4861.29
462.77	4851.93
462.95	4929.17
463.13	4905.76
463.32	4961.94
463.50	4968.96
463.68	4835.55
463.86	4863.63
464.05	5015.77
464.23	4912.78
464.41	5027.47
464.59	4922.15
464.78	5167.90
464.96	5064.92
465.14	4865.97
465.32	4992.36
465.50	5214.71
465.69	5156.20
465.87	5060.24
466.05	4898.74
466.23	5053.22
466.41	5123.43
466.60	5376.21
466.78	5170.24
466.96	5071.94
467.14	5130.45
467.32	5242.80
467.51	5334.08
467.69	5027.47
467.87	5083.64
468.05	5355.15
468.23	5256.84
468.41	5275.57
468.60	5364.51
468.78	5242.80
468.96	5270.89
469.14	5401.96
469.32	5448.77
469.50	5282.59
469.69	5423.02
469.87	5439.40
470.05	5643.03
470.23	5652.39
470.41	5633.67
470.59	5589.20
470.77	5556.43
470.95	5551.75
471.14	5778.78
471.32	5685.16
471.50	5579.84
471.68	5640.69
471.86	5778.78
472.04	5849.00
472.22	5949.64
472.40	5785.80
472.58	5912.19
472.77	5937.94
472.95	5891.13
473.13	6104.12
473.31	6017.52
473.49	5951.98
473.67	5891.13
473.85	5984.75
474.03	6045.60
474.21	6181.35
474.39	6047.94
474.57	6092.41
474.75	6218.80
474.93	6267.95
475.12	6244.55
475.30	6319.45
475.48	6270.30
475.66	6347.53
475.84	6377.96
476.02	6487.96
476.20	6396.68
476.38	6691.59
476.56	6590.95
476.74	6782.87
476.92	6602.65
477.10	6710.32
477.28	6747.76
477.46	6747.76
477.64	7037.99
477.82	7030.97
478.00	7056.72
478.18	6958.41
478.36	7173.74
478.54	7030.97
478.72	7190.13
478.90	7258.00
479.08	7304.81
479.26	7573.97
479.44	7368.01
479.62	7351.62
479.80	7492.05
479.98	7454.61
480.16	7648.87
480.34	7817.39
480.52	7786.96
480.70	7978.89
480.88	7705.04
481.06	8039.74
481.24	7997.61
481.41	8025.70
481.59	8109.96
481.77	8229.32
481.95	8285.50
482.13	8327.63
482.31	8461.04
482.49	8475.08
482.67	8545.30
482.85	8685.73
483.03	8624.87
483.21	8879.99
483.39	8643.60
483.57	8826.16
483.74	8720.84
483.92	8779.35
484.10	8837.86
484.28	9200.65
484.46	9144.47
484.64	9369.16
484.82	9174.90
485.00	9301.29
485.18	9455.76
485.35	9596.20
485.53	9579.81
485.71	9589.17
485.89	9673.43
486.07	9764.72
486.25	9788.12
486.43	9926.21
486.61	10024.51
486.78	10106.43
486.96	10022.17
487.14	10209.42
487.32	10174.31
487.50	10380.28
487.68	10438.79
487.85	10539.43
488.03	10331.12
488.21	10808.59
488.39	10724.33
488.57	10965.41
488.75	10738.38
488.92	11103.50
489.10	11290.74
489.28	11176.06
489.46	11370.32
489.64	11459.26
489.81	11709.70
489.99	11705.02
490.17	11515.44
490.35	11665.23
490.53	11899.28
490.70	11885.24
490.88	11747.15
491.06	12107.59
491.24	12133.34
491.41	12088.87
491.59	12219.94
491.77	12372.07
491.95	12542.93
492.13	12446.97
492.30	12575.70
492.48	12692.73
492.66	12461.01
492.84	12556.97
493.01	12938.48
493.19	12933.80
493.37	13245.09
493.54	13085.94
493.72	13343.39
493.90	13135.09
494.08	13195.94
494.25	13467.44
494.43	13497.87
494.61	13570.43
494.79	13951.93
494.96	13701.50
495.14	14029.17
495.32	13771.71
495.49	13989.38
495.67	13879.38
495.85	14207.05
496.02	14129.81
496.20	14223.44
496.38	14326.42
496.55	14387.27
496.73	14862.40
496.91	14661.12
497.09	14583.88
497.26	14937.30
497.44	14710.27
497.62	14691.54
497.79	15206.46
497.97	14698.56
498.14	14881.13
498.32	15201.78
498.50	15276.68
498.67	15473.28
498.85	15286.04
499.03	15042.62
499.20	15295.40
499.38	15548.18
499.56	15651.16
499.73	15667.55
499.91	15513.07
500.08	15667.55
500.26	15529.45
500.44	15983.52
500.61	15974.16
500.79	16023.31
500.97	15910.96
501.14	16257.36
501.32	16439.92
501.49	16266.72
501.67	16175.44
501.84	16407.16
502.02	16121.61
502.20	16430.56
502.37	16416.52
502.55	16578.01
502.72	16755.90
502.90	16542.91
503.07	16657.59
503.25	16596.74
503.43	16657.59
503.60	16938.46
503.78	16865.90
503.95	16872.92
504.13	16863.56
504.30	17006.33
504.48	17069.53
504.65	17088.25
504.83	17305.92
505.01	17589.13
505.18	17238.05
505.36	17509.55
505.53	17399.54
505.71	17706.15
505.88	17797.43
506.06	17380.82
506.23	17596.15
506.41	17591.47
506.58	17958.93
506.76	17989.36
506.93	18031.49
507.11	17806.80
507.28	18293.63
507.46	17893.40
507.63	18228.09
507.81	18272.56
507.98	18090.00
508.16	18284.26
508.33	18459.81
508.50	18192.98
508.68	18415.34
508.85	18724.29
509.03	18775.78
509.20	18527.68
509.38	18761.73
509.55	18789.82
509.73	18469.17
509.90	18981.74
510.08	18923.23
510.25	18827.27
510.42	19140.90
510.60	19150.26
510.77	18986.43
510.95	19417.08
511.12	18874.08
511.30	19084.73
511.47	18956.00
511.64	19328.14
511.82	19513.05
511.99	19314.10
512.17	19358.57
512.34	19601.99
512.51	19686.25
512.69	19695.61
512.86	19733.06
513.04	19861.79
513.21	19978.81
513.38	19850.08
513.56	19915.62
513.73	19831.36
513.90	19985.83
514.08	19686.25
514.25	20095.84
514.43	20308.83
514.60	20444.58
514.77	20189.46
514.95	20456.28
515.12	20400.11
515.29	20374.36
515.47	20521.82
515.64	20613.10
515.81	20556.93
515.99	20699.70
516.16	20439.90
516.33	20610.76
516.51	20645.87
516.68	20355.64
516.85	20802.68
517.03	20823.75
517.20	20950.14
517.37	21118.65
517.54	21202.91
517.72	21209.93
517.89	21071.84
518.06	21137.38
518.24	21078.86
518.41	21212.28
518.58	21528.25
518.75	21193.55
518.93	21371.43
519.10	21193.55
519.27	21881.67
519.45	21546.97
519.62	21785.71
519.79	21617.19
519.96	21415.90
520.14	21729.53
520.31	21820.81
520.48	21954.22
520.65	21841.88
520.83	22181.26
521.00	22164.87
521.17	22031.46
521.34	21848.90
521.52	21935.50
521.69	22174.24
521.86	22111.04
522.03	22288.92
522.20	22288.92
522.38	22398.93
522.55	22555.74
522.72	22403.61
522.89	22677.45
523.07	23005.13
523.24	22628.30
523.41	22548.72
523.58	22485.53
523.75	22710.22
523.92	22539.36
524.10	22899.80
524.27	22815.54
524.44	22817.88
524.61	23234.50
524.78	23108.11
524.96	22668.09
525.13	23400.68
525.30	23257.90
525.47	22955.97
525.64	22817.88
525.81	23323.44
525.98	23653.45
526.16	23634.73
526.33	23498.98
526.50	23765.80
526.67	23260.24
526.84	23218.11
527.01	23651.11
527.18	23466.21
527.36	23793.89
527.53	23585.58
527.70	23749.42
527.87	24058.37
528.04	23733.03
528.21	23742.39
528.38	23969.43
528.55	24006.87
528.72	23723.67
528.89	23903.89
529.07	24067.73
529.24	24081.77
529.41	23943.68
529.58	24266.67
529.75	23969.43
529.92	23985.81
530.09	24421.15
530.26	23950.70
530.43	24388.38
530.60	24100.50
530.77	24142.63
530.94	24346.25
531.11	24276.04
531.28	24194.12
531.46	24596.69
531.63	24613.07
531.80	24706.70
531.97	24854.15
532.14	24844.79
532.31	24655.20
532.48	24716.06
532.65	25118.63
532.82	24666.91
532.99	24966.49
533.16	24629.46
533.33	24938.41
533.50	25146.72
533.67	25336.30
533.84	25223.95
534.01	25156.08
534.18	24765.21
534.35	25373.75
534.52	24985.22
534.69	25235.66
534.86	25493.12
535.03	25340.98
535.20	25476.73
535.37	25521.20
535.54	25530.56
535.71	25195.87
535.88	25443.96
536.05	25422.90
536.22	25535.24
536.38	25671.00
536.55	25673.34
536.72	25308.21
536.89	25750.57
537.06	25420.56
537.23	25879.30
537.40	25816.11
537.57	25837.17
537.74	26127.40
537.91	26225.70
538.08	25968.24
538.25	25921.43
538.42	25586.74
538.59	26022.08
538.75	25668.66
538.92	26096.97
539.09	26103.99
539.26	25898.03
539.43	26059.52
539.60	26429.33
539.77	26235.06
539.94	26153.15
540.11	26230.38
540.28	26499.55
540.44	25972.92
540.61	26012.71
540.78	26171.87
540.95	26403.58
541.12	26300.60
541.29	26625.93
541.46	26614.23
541.62	26309.96
541.79	26218.68
541.96	26279.54
542.13	26263.15
542.30	26569.76
542.47	26998.08
542.63	26841.26
542.80	26808.50
542.97	26855.31
543.14	26820.20
543.31	26834.24
543.48	27014.46
543.64	27143.19
543.81	27552.79
543.98	27351.50
544.15	27309.37
544.32	27494.27
544.48	27248.52
544.65	27276.60
544.82	27119.79
544.99	26876.37
545.16	27166.60
545.32	26998.08
545.49	27908.55
545.66	27632.36
545.83	27513.00
546.00	27789.18
546.16	27608.96
546.33	27424.06
546.50	27033.19
546.67	27449.80
546.83	27314.05
547.00	27880.46
547.17	27639.39
547.34	27604.28
547.50	27990.47
547.67	28158.99
547.84	27662.79
548.00	28177.71
548.17	28034.94
548.34	27838.33
548.51	27985.79
548.67	27896.85
548.84	28187.07
549.01	27688.54
549.18	28046.64
549.34	27592.58
549.51	27997.49
549.68	28184.73
549.84	27960.04
550.01	27913.23
550.18	28187.07
550.34	28395.38
550.51	28533.47
550.68	28936.04
550.84	28070.04
551.01	28163.67
551.18	27999.83
551.34	28257.29
551.51	28273.67
551.68	28037.28
551.84	28053.66
552.01	28407.08
552.18	28645.82
552.34	28631.77
552.51	28755.82
552.68	28547.51
552.84	28353.25
553.01	28484.32
553.18	28692.63
553.34	28830.72
553.51	28781.57
553.67	28650.50
553.84	29277.76
554.01	29284.78
554.17	28844.76
554.34	29081.16
554.51	28554.54
554.67	28676.24
554.84	29120.95
555.00	29106.90
555.17	28456.23
555.33	28936.04
555.50	28804.97
555.67	29039.03
555.83	28788.59
556.00	29193.50
556.16	29387.77
556.33	28680.92
556.50	28968.81
556.66	29123.29
556.83	28514.75
556.99	29219.25
557.16	29656.93
557.32	29399.47
557.49	29434.58
557.65	29317.55
557.82	28917.32
557.98	28797.95
558.15	29090.52
558.32	29153.71
558.48	29411.17
558.65	29560.97
558.81	29603.10
558.98	29701.40
559.14	29310.53
559.31	29378.40
559.47	29146.69
559.64	29109.24
559.80	29539.90
559.97	29631.18
560.13	29380.74
560.30	29551.60
560.46	29584.37
560.63	29385.43
560.79	29610.12
560.96	29591.39
561.12	29476.71
561.29	29340.96
561.45	29518.84
561.61	29649.91
561.78	29481.39
561.94	29979.92
562.11	30073.54
562.27	29780.98
562.44	29673.31
562.60	29848.85
562.77	29635.86
562.93	29806.72
563.10	29799.70
563.26	29820.77
563.42	30225.68
563.59	29743.53
563.75	30057.16
563.92	29841.83
564.08	29738.85
564.24	29858.21
564.41	29853.53
564.57	29942.47
564.74	29898.00
564.90	29947.15
565.07	29827.79
565.23	30265.47
565.39	29816.08
565.56	29692.04
565.72	30008.01
565.88	29865.24
566.05	30136.74
566.21	29699.06
566.38	29886.30
566.54	29685.01
566.70	30354.41
566.87	30274.83
567.03	30288.87
567.19	30216.32
567.36	30115.67
567.52	30188.23
567.68	30361.43
567.85	30082.91
568.01	30183.55
568.17	29886.30
568.34	30230.36
568.50	30110.99
568.66	30127.38
568.83	30443.35
568.99	29977.58
569.15	30270.15
569.32	30291.21
569.48	29771.61
569.64	29935.45
569.81	29919.07
569.97	30218.66
570.13	30670.38
570.30	30232.70
570.46	30150.78
570.62	30206.95
570.78	30316.96
570.95	30141.42
571.11	30274.83
571.27	30017.37
571.43	29986.94
571.60	30452.71
571.76	30122.69
571.92	30373.13
572.09	30466.75
572.25	30249.08
572.41	30677.40
572.57	30497.18
572.74	30466.75
572.90	30569.74
573.06	30347.39
573.22	30476.12
573.38	30649.32
573.55	30389.52
573.71	30745.28
573.87	30735.92
574.03	30132.06
574.20	30452.71
574.36	29965.88
574.52	30536.97
574.68	30363.77
574.84	30457.39
575.01	30696.13
575.17	30387.18
575.33	30480.80
575.49	30874.01
575.65	30866.98
575.82	30637.61
575.98	30525.27
576.14	30331.00
576.30	30380.15
576.46	30569.74
576.62	30712.51
576.79	30682.08
576.95	30265.47
577.11	30328.66
577.27	30707.83
577.43	30845.92
577.59	30492.50
577.75	30272.49
577.92	30396.54
578.08	30129.72
578.24	30438.67
578.40	30749.96
578.56	30581.44
578.72	31126.78
578.88	30820.17
579.04	30850.60
579.21	30745.28
579.37	30551.01
579.53	30476.12
579.69	30567.40
579.85	30714.85
580.01	30476.12
580.17	30625.91
580.33	30527.61
580.49	30508.88
580.65	30642.29
580.82	30946.56
580.98	30646.97
581.14	30754.64
581.30	31145.51
581.46	30686.76
581.62	30522.93
581.78	30717.19
581.94	30892.73
582.10	30639.95
582.26	31035.50
582.42	31110.40
582.58	30703.15
582.74	30808.47
582.90	30738.26
583.06	30686.76
583.22	30569.74
583.38	30609.53
583.54	30625.91
583.70	30480.80
583.86	30806.13
584.02	30829.54
584.18	30740.60
584.34	31115.08
584.50	30625.91
584.66	30869.33
584.82	30916.14
584.98	30799.11
585.14	30710.17
585.30	30677.40
585.46	31290.62
585.62	30646.97
585.78	30700.81
585.94	30567.40
586.10	30742.94
586.26	30857.62
586.42	30874.01
586.58	30881.03
586.74	30740.60
586.90	30707.83
587.06	31180.62
587.22	30969.97
587.38	30899.75
587.54	31370.20
587.70	31168.91
587.86	31054.23
588.02	31042.53
588.18	31019.12
588.34	31360.84
588.49	30785.07
588.65	31061.25
588.81	31042.53
588.97	31082.31
589.13	30829.54
589.29	30881.03
589.45	31070.61
589.61	30822.51
589.77	31297.64
589.93	31164.23
590.08	31325.73
590.24	30969.97
590.40	30806.13
590.56	31253.17
590.72	31075.29
590.88	31049.55
591.04	31274.24
591.20	30789.75
591.35	31470.84
591.51	31648.72
591.67	31370.20
591.83	31494.25
591.99	31145.51
592.15	31447.44
592.31	31271.90
592.46	31072.95
592.62	31269.56
592.78	31030.82
592.94	30948.90
593.10	30932.52
593.26	31260.20
593.41	31370.20
593.57	31185.30
593.73	31222.75
593.89	31438.08
594.05	31271.90
594.20	31094.02
594.36	31005.08
594.52	31213.38
594.68	30902.09
594.84	30960.61
594.99	31421.69
595.15	31393.61
595.31	31440.42
595.47	31585.53
595.62	31185.30
595.78	30834.22
595.94	31805.54
596.10	31611.28
596.25	31529.36
596.41	31475.52
596.57	30991.03
596.73	31489.57
596.88	31407.65
597.04	31398.29
597.20	31960.02
597.36	31157.21
597.51	31622.98
597.67	31377.22
597.83	31292.96
597.99	31555.10
598.14	31480.21
598.30	31356.16
598.46	31344.45
598.61	31419.35
598.77	31030.82
598.93	31782.13
599.09	31117.42
599.24	31866.39
599.40	32046.62
599.56	31814.90
599.71	31651.06
599.87	31669.79
600.03	31737.66
600.18	31253.17
600.34	30951.24
600.50	31136.15
600.65	31349.14
600.81	31466.16
600.97	31835.97
601.12	31527.02
601.28	31386.58
601.44	31700.22
601.59	32238.54
601.75	31388.92
601.91	31777.45
602.06	31412.33
602.22	31360.84
602.37	31550.42
602.53	31412.33
602.69	31342.11
602.84	31440.42
603.00	31426.37
603.16	31517.65
603.31	31321.05
603.47	31583.19
603.62	31346.79
603.78	31821.92
603.94	30916.14
604.09	31566.81
604.25	30951.24
604.40	31360.84
604.56	31714.26
604.71	31508.29
604.87	31283.60
605.03	31555.10
605.18	31007.42
605.34	31480.21
605.49	31447.44
605.65	31393.61
605.80	31037.84
605.96	31047.21
606.12	31477.86
606.27	31489.57
606.43	31271.90
606.58	31608.93
606.74	31098.70
606.89	31250.83
607.05	31735.32
607.20	31424.03
607.36	31880.44
607.51	31363.18
607.67	31096.36
607.82	31175.94
607.98	31079.97
608.13	31201.68
608.29	31470.84
608.44	31438.08
608.60	31222.75
608.75	31381.90
608.91	31302.32
609.06	31578.51
609.22	31503.61
609.37	31030.82
609.53	31297.64
609.68	31047.21
609.84	31098.70
609.99	30969.97
610.15	31297.64
610.30	31449.78
610.46	30920.82
610.61	31122.10
610.76	31428.71
610.92	31173.60
611.07	31028.48
611.23	31201.68
611.38	31229.77
611.54	30965.29
611.69	30888.05
611.84	30759.32
612.00	30717.19
612.15	30852.94
612.31	30677.40
612.46	30953.58
612.62	30904.43
612.77	30780.39
612.92	30885.71
613.08	30946.56
613.23	31082.31
613.39	30693.79
613.54	30600.16
613.69	30719.53
613.85	30998.06
614.00	30906.77
614.15	31147.85
614.31	30721.87
614.46	31105.72
614.62	30904.43
614.77	30649.32
614.92	31131.47
615.08	30897.41
615.23	30789.75
615.38	30834.22
615.54	30455.05
615.69	30677.40
615.84	30541.65
616.00	30815.49
616.15	30490.16
616.30	30888.05
616.46	31152.53
616.61	30693.79
616.76	30590.80
616.92	30256.11
617.07	30483.14
617.22	31026.14
617.37	30183.55
617.53	30532.29
617.68	30398.88
617.83	30415.26
617.99	30548.67
618.14	30412.92
618.29	30436.33
618.45	30583.78
618.60	30401.22
618.75	30272.49
618.90	30286.53
619.06	30567.40
619.21	30305.26
619.36	30375.47
619.51	30260.79
619.67	30356.75
619.82	30253.76
619.97	30478.46
620.12	30176.53
620.28	30251.42
620.43	30291.21
620.58	29977.58
620.73	30412.92
620.89	30272.49
621.04	30211.64
621.19	30211.64
621.34	30412.92
621.49	29876.94
621.65	30075.88
621.80	30050.14
621.95	29907.37
622.10	30256.11
622.25	30192.91
622.41	29752.89
622.56	30115.67
622.71	30323.98
622.86	29914.39
623.01	30267.81
623.16	30202.27
623.32	29757.57
623.47	30206.95
623.62	29900.34
623.77	29785.66
623.92	29858.21
624.07	29806.72
624.23	29692.04
624.38	29640.54
624.53	29898.00
624.68	29745.87
624.83	29893.32
624.98	29998.65
625.13	29502.45
625.29	30174.19
625.44	29766.93
625.59	29752.89
625.74	29448.62
625.89	29422.87
626.04	29422.87
626.19	29509.47
626.34	29773.95
626.49	29525.86
626.65	29879.28
626.80	29706.08
626.95	29701.40
627.10	29675.65
627.25	29766.93
627.40	29343.30
627.55	29345.64
627.70	29322.23
627.85	29261.38
628.00	29764.59
628.15	29195.84
628.30	29340.96
628.45	29275.42
628.60	29242.65
628.76	29036.69
628.91	29450.96
629.06	29280.10
629.21	29216.91
629.36	29317.55
629.51	29303.51
629.66	29071.79
629.81	28748.80
629.96	29020.30
630.11	29172.44
630.26	28936.04
630.41	28989.88
630.56	29165.42
630.71	29340.96
630.86	29186.48
631.01	29006.26
631.16	28725.39
631.31	28968.81
631.46	29142.01
631.61	29125.63
631.76	28685.61
631.91	28851.78
632.06	28456.23
632.21	28655.18
632.36	29113.92
632.51	28631.77
632.66	28669.22
632.81	28606.03
632.96	29046.05
633.10	28879.87
633.25	28856.46
633.40	29242.65
633.55	28723.05
633.70	28613.05
633.85	28622.41
634.00	28528.79
634.15	28685.61
634.30	28601.35
634.45	28577.94
634.60	28395.38
634.75	28617.73
634.90	28643.48
635.05	28966.47
635.19	28428.15
635.34	28964.13
635.49	28465.60
635.64	29067.11
635.79	28273.67
635.94	28606.03
636.09	28573.26
636.24	28266.65
636.39	28402.40
636.53	28638.80
636.68	28435.17
636.83	28212.82
636.98	28119.20
637.13	28428.15
637.28	28531.13
637.43	28671.56
637.57	28554.54
637.72	28175.37
637.87	28140.26
638.02	28107.49
638.17	28292.40
638.32	28421.13
638.46	27817.27
638.61	27901.53
638.76	27688.54
638.91	28287.71
639.06	28018.55
639.20	27908.55
639.35	28240.90
639.50	28170.69
639.65	28271.33
639.80	28362.61
639.94	28128.56
640.09	28238.56
640.24	27875.78
640.39	27419.38
640.54	27412.35
640.68	27711.94
640.83	27735.35
640.98	27850.03
641.13	27653.43
641.27	27875.78
641.42	27854.72
641.57	27744.71
641.72	27477.89
641.86	27686.20
642.01	27756.41
642.16	27725.99
642.31	27793.86
642.45	28126.22
642.60	27154.90
642.75	27421.72
642.90	27527.04
643.04	27751.73
643.19	27377.25
643.34	27510.66
643.48	27658.11
643.63	27405.33
643.78	27456.82
643.93	27498.95
644.07	27475.55
644.22	27814.93
644.37	27564.49
644.51	27697.90
644.66	27498.95
644.81	27239.15
644.95	27225.11
645.10	27178.30
645.25	27342.14
645.39	27253.20
645.54	27330.44
645.69	27269.58
645.83	27374.91
645.98	27686.20
646.13	27281.28
646.27	27784.50
646.42	27454.48
646.57	27187.66
646.71	27325.75
646.86	26948.93
647.00	27241.50
647.15	27276.60
647.30	27255.54
647.44	27098.72
647.59	26813.18
647.74	27098.72
647.88	26867.01
648.03	27262.56
648.17	27197.02
648.32	27007.44
648.47	27056.59
648.61	26845.94
648.76	27192.34
648.90	26944.25
649.05	27185.32
649.20	27030.85
649.34	26719.56
649.49	26595.51
649.63	26518.27
649.78	26464.44
649.92	26995.74
650.07	26855.31
650.21	26845.94
650.36	26740.62
650.51	26658.70
650.65	26906.80
650.80	27087.02
650.94	26939.57
651.09	26696.15
651.23	26771.05
651.38	26504.23
651.52	26455.08
651.67	26654.02
651.81	26749.98
651.96	26663.38
652.10	26581.46
652.25	26356.77
652.39	26462.10
652.54	26885.73
652.68	26733.60
652.83	26593.17
652.97	26651.68
653.12	26565.08
653.26	26719.56
653.41	26778.07
653.55	26340.39
653.70	26239.75
653.84	26487.84
653.99	26298.26
654.13	25940.16
654.27	26712.53
654.42	26057.18
654.56	26127.40
654.71	26370.82
654.85	26181.23
655.00	26391.88
655.14	26576.78
655.29	26157.83
655.43	26003.35
655.57	26050.16
655.72	26082.93
655.86	26087.61
656.01	26164.85
656.15	26064.21
656.30	25895.69
656.44	26059.52
656.58	26274.85
656.73	26192.94
656.87	26136.76
657.01	26073.57
657.16	26071.23
657.30	26302.94
657.45	26237.41
657.59	26181.23
657.73	25832.49
657.88	25951.86
658.02	25523.54
658.16	25926.11
658.31	25802.07
658.45	25914.41
658.60	25778.66
658.74	25673.34
658.88	25577.37
659.03	25827.81
659.17	25610.14
659.31	25844.20
659.46	25736.53
659.60	25816.11
659.74	25949.52
659.89	25825.47
660.03	25420.56
660.17	25638.23
660.32	25123.31
660.46	25439.28
660.60	25333.96
660.74	25333.96
660.89	25181.82
661.03	24992.24
661.17	25319.92
661.32	25135.01
661.46	25219.27
661.60	25198.21
661.74	25546.95
661.89	25184.16
662.03	25289.49
662.17	25163.10
662.31	25142.03
662.46	24837.76
662.60	24814.36
662.74	25013.31
662.88	24957.13
663.03	24573.28
663.17	24957.13
663.31	24570.94
663.45	24678.61
663.60	24788.61
663.74	24477.32
663.88	24444.56
664.02	24451.58
664.17	24746.48
664.31	24615.41
664.45	24341.57
664.59	24837.76
664.73	24753.51
664.88	24629.46
665.02	23990.49
665.16	24425.83
665.30	24151.99
665.44	24376.68
665.59	24140.29
665.73	24074.75
665.87	23868.78
666.01	24369.66
666.15	24425.83
666.29	24226.89
666.44	24432.85
666.58	23899.21
666.72	24311.14
666.86	24009.22
667.00	24381.36
667.14	23866.44
667.28	23639.41
667.43	23576.22
667.57	23962.40
667.71	23777.50
667.85	23995.17
667.99	23318.76
668.13	23634.73
668.27	23946.02
668.41	23688.56
668.56	23477.91
668.70	23377.27
668.84	23662.82
668.98	23915.59
669.12	23761.12
669.26	23396.00
669.40	23625.37
669.54	23145.56
669.68	23477.91
669.82	23164.28
669.96	23166.62
670.10	23194.71
670.25	23140.88
670.39	23073.00
670.53	23023.85
670.67	23173.64
670.81	23147.90
670.95	22843.63
671.09	23103.43
671.23	23194.71
671.37	22946.61
671.51	22979.38
671.65	22885.76
671.79	22824.90
671.93	22635.32
672.07	22759.37
672.21	22483.19
672.35	22565.10
672.49	22459.78
672.63	22565.10
672.77	22274.88
672.91	22211.68
673.05	22726.60
673.19	22455.10
673.33	22555.74
673.47	21937.84
673.61	22415.31
673.75	22483.19
673.89	22431.69
674.03	22047.85
674.17	21956.57
674.31	22045.51
674.45	21912.10
674.59	21909.75
674.73	22111.04
674.87	21860.60
675.01	21792.73
675.15	21776.34
675.29	21724.85
675.43	21802.09
675.56	21530.59
675.70	21504.84
675.84	21441.65
675.98	20868.22
676.12	21865.28
676.26	21645.27
676.40	21654.64
676.54	21216.96
676.68	21205.25
676.82	20648.21
676.96	21167.80
677.10	20816.72
677.23	20987.58
677.37	20725.44
677.51	20774.60
677.65	21069.50
677.79	20479.69
677.93	20676.29
678.07	20236.27
678.21	20554.58
678.34	20437.56
678.48	20451.60
678.62	20402.45
678.76	20194.14
678.90	20222.23
679.04	20231.59
679.18	20336.91
679.31	20250.32
679.45	19974.13
679.59	19871.15
679.73	19852.42
679.87	19768.16
680.00	19885.19
680.14	19651.14
680.28	19594.96
680.42	19814.98
680.56	19924.98
680.70	19878.17
680.83	19634.75
680.97	19651.14
681.11	19021.53
681.25	19087.07
681.39	19721.35
681.52	19323.46
681.66	19339.85
681.80	19075.37
681.94	18986.43
682.07	19087.07
682.21	19220.48
682.35	18810.89
682.49	19082.39
682.62	18611.94
682.76	18824.93
682.90	18621.30
683.04	18670.45
683.17	18361.50
683.31	18888.12
683.45	18466.83
683.59	18368.52
683.72	18541.72
683.86	18588.53
684.00	18242.14
684.13	18087.66
684.27	18567.47
684.41	18094.68
684.55	17928.50
684.68	17762.33
684.82	17937.87
684.96	17666.36
685.09	17865.31
685.23	17486.14
685.37	17799.77
685.50	17738.92
685.64	17762.33
685.78	17635.94
685.91	17755.30
686.05	17575.08
686.19	17319.96
686.32	17418.27
686.46	17186.55
686.60	16999.31
686.73	17020.38
686.87	17048.46
687.01	16912.71
687.14	17102.29
687.28	16863.56
687.42	16788.66
687.55	16669.30
687.69	16575.67
687.82	16971.22
687.96	16458.65
688.10	16566.31
688.23	16566.31
688.37	16695.04
688.50	16650.57
688.64	16552.27
688.78	16327.58
688.91	16107.57
689.05	16278.43
689.18	16196.51
689.32	16002.24
689.46	16086.50
689.59	15737.76
689.73	16070.12
689.86	15920.32
690.00	15487.32
690.13	15805.64
690.27	15569.24
690.41	15815.00
690.54	15868.83
690.68	15709.68
690.81	15552.86
690.95	15515.41
691.08	15658.18
691.22	15382.00
691.35	15332.85
691.49	15400.72
691.62	15281.36
691.76	15384.34
691.89	15316.47
692.03	14867.08
692.16	14843.68
692.30	14836.66
692.43	14696.22
692.57	14520.68
692.70	14927.94
692.84	14485.58
692.97	14623.67
693.11	14590.90
693.24	14356.85
693.38	14616.65
693.51	14413.02
693.65	14300.67
693.78	14333.44
693.92	14480.89
694.05	14230.46
694.19	14244.50
694.32	14143.86
694.45	13870.01
694.59	14038.53
694.72	13437.02
694.86	13872.36
694.99	13647.66
695.13	13954.27
695.26	13769.37
695.39	13619.58
695.53	13682.77
695.66	13476.80
695.80	13544.68
695.93	13708.52
696.07	13720.22
696.20	13577.45
696.33	13394.89
696.47	13425.31
696.60	13397.23
696.73	13132.75
696.87	12901.03
697.00	13238.07
697.14	12772.30
697.27	12809.75
697.40	12641.23
697.54	12739.54
697.67	12748.90
697.80	12482.08
697.94	12533.57
698.07	12496.12
698.21	12262.07
698.34	12432.93
698.47	12545.27
698.61	12442.29
698.74	12568.68
698.87	12695.07
699.01	12334.62
699.14	12414.20
699.27	12229.30
699.40	12308.88
699.54	12116.95
699.67	12100.57
699.80	11826.73
699.94	12044.40
700.07	11906.31
700.20	11606.72
700.34	11623.10
700.47	11412.45
700.60	11695.66
700.73	11775.24
700.87	11419.47
701.00	11571.61
701.13	11494.37
701.26	11417.13
701.40	11477.99
701.53	11520.12
701.66	11403.09
701.79	11332.87
701.93	11410.11
702.06	11166.70
702.19	11077.76
702.32	10932.64
702.46	10951.37
702.59	10757.10
702.72	10930.30
702.85	10906.90
702.99	10724.33
703.12	10619.01
703.25	10675.18
703.38	10448.15
703.51	10616.67
703.65	10696.25
703.78	10420.06
703.91	10513.69
704.04	10654.12
704.17	10523.05
704.31	10516.03
704.44	10403.68
704.57	10281.97
704.70	10331.12
704.83	10031.54
704.96	10010.47
705.10	9996.43
705.23	9879.40
>>>>>End Processed Spectral Data<<<<<
