SpectraSuite Data File
++++++++++++++++++++++++++++++++++++
Date: Fri Oct 18 13:58:21 GMT-05:00 2013
User: bianchi
Dark Spectrum Present: No
Reference Spectrum Present: No
Number of Sampled Component Spectra: 1
Spectrometers: USB2+H05261
Integration Time (usec): 50000 (USB2+H05261)
Spectra Averaged: 1 (USB2+H05261)
Boxcar Smoothing: 0 (USB2+H05261)
Correct for Electrical Dark: No (USB2+H05261)
Strobe/Lamp Enabled: No (USB2+H05261)
Correct for Detector Non-linearity: No (USB2+H05261)
Correct for Stray Light: No (USB2+H05261)
Number of Pixels in Processed Spectrum: 2048
>>>>>Begin Processed Spectral Data<<<<<
365.73	0.00
365.92	0.00
366.12	0.00
366.32	0.00
366.52	0.00
366.72	0.00
366.91	0.00
367.11	0.00
367.31	0.00
367.51	0.00
367.70	0.00
367.90	0.00
368.10	0.00
368.30	0.00
368.49	0.00
368.69	0.00
368.89	0.00
369.09	0.00
369.28	0.00
369.48	0.00
369.68	0.00
369.87	0.00
370.07	0.00
370.27	0.00
370.47	0.00
370.66	74.90
370.86	60.85
371.06	102.98
371.25	107.66
371.45	121.71
371.65	140.43
371.84	119.37
372.04	212.99
372.24	210.65
372.44	124.05
372.63	133.41
372.83	227.03
373.03	248.10
373.22	173.20
373.42	220.01
373.62	220.01
373.81	234.05
374.01	173.20
374.21	215.33
374.40	222.35
374.60	203.63
374.79	269.16
374.99	208.31
375.19	269.16
375.38	224.69
375.58	238.73
375.78	241.08
375.97	266.82
376.17	191.92
376.37	285.55
376.56	264.48
376.76	330.02
376.95	255.12
377.15	208.31
377.35	227.03
377.54	248.10
377.74	196.60
377.93	236.39
378.13	334.70
378.33	273.84
378.52	269.16
378.72	205.97
378.91	299.59
379.11	311.29
379.31	255.12
379.50	313.63
379.70	257.46
379.89	322.99
380.09	234.05
380.28	215.33
380.48	262.14
380.68	297.25
380.87	236.39
381.07	330.02
381.26	257.46
381.46	301.93
381.65	327.68
381.85	348.74
382.04	337.04
382.24	327.68
382.43	334.70
382.63	348.74
382.83	374.49
383.02	379.17
383.22	386.19
383.41	250.44
383.61	402.57
383.80	360.44
384.00	301.93
384.19	355.76
384.39	358.10
384.58	367.46
384.78	362.78
384.97	304.27
385.17	330.02
385.36	386.19
385.56	383.85
385.75	402.57
385.95	360.44
386.14	463.43
386.34	379.17
386.53	475.13
386.72	386.19
386.92	369.80
387.11	468.11
387.31	475.13
387.50	428.32
387.70	374.49
387.89	437.68
388.09	386.19
388.28	484.49
388.48	451.72
388.67	397.89
388.86	428.32
389.06	454.06
389.25	376.83
389.45	423.64
389.64	428.32
389.84	505.56
390.03	503.22
390.22	486.83
390.42	496.19
390.61	409.59
390.81	463.43
391.00	498.53
391.19	482.15
391.39	421.30
391.58	510.24
391.78	475.13
391.97	531.30
392.16	477.47
392.36	500.87
392.55	500.87
392.75	477.47
392.94	489.17
393.13	568.75
393.33	512.58
393.52	489.17
393.71	582.79
393.91	557.05
394.10	533.64
394.29	613.22
394.49	589.82
394.68	617.90
394.88	547.69
395.07	606.20
395.26	660.03
395.46	601.52
395.65	564.07
395.84	617.90
396.04	629.60
396.23	566.41
396.42	566.41
396.62	573.43
396.81	617.90
397.00	657.69
397.19	697.48
397.39	645.99
397.58	692.80
397.77	613.22
397.97	650.67
398.16	641.31
398.35	741.95
398.55	657.69
398.74	699.82
398.93	667.05
399.12	739.61
399.32	643.65
399.51	816.85
399.70	720.88
399.90	774.72
400.09	744.29
400.28	737.27
400.47	737.27
400.67	718.54
400.86	746.63
401.05	720.88
401.24	777.06
401.44	744.29
401.63	751.31
401.82	823.87
402.01	758.33
402.21	748.97
402.40	861.32
402.59	826.21
402.78	828.55
402.97	842.59
403.17	849.61
403.36	931.53
403.55	772.38
403.74	863.66
403.93	880.04
404.13	903.45
404.32	889.40
404.51	880.04
404.70	905.79
404.89	884.72
405.09	933.87
405.28	915.15
405.47	891.74
405.66	987.71
405.85	999.41
406.05	985.37
406.24	947.92
406.43	1011.11
406.62	1043.88
406.81	1064.94
407.00	856.64
407.20	1020.47
407.39	1018.13
407.58	1104.73
407.77	1020.47
407.96	943.24
408.15	1111.75
408.34	1081.33
408.54	1071.97
408.73	1088.35
408.92	1060.26
409.11	1090.69
409.30	1086.01
409.49	1198.35
409.68	1181.97
409.87	1191.33
410.07	1170.27
410.26	1160.91
410.45	1177.29
410.64	1181.97
410.83	1163.25
411.02	1217.08
411.21	1273.25
411.40	1322.40
411.59	1306.02
411.78	1245.16
411.98	1289.64
412.17	1287.29
412.36	1296.66
412.55	1324.74
412.74	1249.85
412.93	1291.98
413.12	1317.72
413.31	1385.60
413.50	1409.00
413.69	1392.62
413.88	1394.96
414.07	1401.98
414.26	1390.28
414.45	1416.02
414.64	1476.88
414.83	1521.35
415.02	1502.62
415.22	1540.07
415.41	1523.69
415.60	1507.30
415.79	1582.20
415.98	1526.03
416.17	1591.56
416.36	1598.59
416.55	1659.44
416.74	1521.35
416.93	1621.99
417.12	1668.80
417.31	1631.35
417.50	1645.40
417.69	1668.80
417.88	1645.40
418.07	1619.65
418.26	1661.78
418.45	1724.97
418.64	1757.74
418.83	1790.51
419.02	1792.85
419.21	1790.51
419.39	1755.40
419.58	1837.32
419.77	1760.08
419.96	1753.06
420.15	1919.24
420.34	1785.83
420.53	1872.43
420.72	1881.79
420.91	1893.49
421.10	1771.79
421.29	1806.89
421.48	1898.17
421.67	2005.84
421.86	1895.83
422.05	1912.22
422.24	1956.69
422.43	1968.39
422.61	1816.26
422.80	1987.11
422.99	2047.97
423.18	1956.69
423.37	1982.43
423.56	2008.18
423.75	2111.16
423.94	1984.77
424.13	1860.73
424.32	1816.26
424.50	2062.01
424.69	2059.67
424.88	2143.93
425.07	1989.46
425.26	2043.29
425.45	1919.24
425.64	1867.75
425.83	2012.86
426.01	2064.35
426.20	2019.88
426.39	2125.21
426.58	2022.22
426.77	2008.18
426.96	2078.40
427.15	2127.55
427.33	2094.78
427.52	2085.42
427.71	2176.70
427.90	2174.36
428.09	2157.97
428.28	2176.70
428.46	2136.91
428.65	2244.57
428.84	2132.23
429.03	2282.02
429.22	2139.25
429.40	2230.53
429.59	2190.74
429.78	1933.28
429.97	2167.34
430.16	2251.60
430.34	2211.81
430.53	2258.62
430.72	2260.96
430.91	2195.42
431.10	2235.21
431.28	2244.57
431.47	2363.94
431.66	2392.03
431.85	2338.20
432.03	2424.80
432.22	2546.50
432.41	2321.81
432.60	2417.77
432.79	2349.90
432.97	2438.84
433.16	2476.29
433.35	2333.51
433.54	2401.39
433.72	2469.27
433.91	2455.22
434.10	2506.71
434.28	2623.74
434.47	2492.67
434.66	2574.59
434.85	2619.06
435.03	2513.74
435.22	2572.25
435.41	2644.81
435.59	2569.91
435.78	2719.70
435.97	2682.25
436.16	2593.31
436.34	2682.25
436.53	2579.27
436.72	2722.04
436.90	2682.25
437.09	2752.47
437.28	2726.72
437.46	2703.32
437.65	2705.66
437.84	2827.37
438.02	2789.92
438.21	2750.13
438.40	2668.21
438.58	2829.71
438.77	2862.48
438.96	2705.66
439.14	2902.26
439.33	2855.45
439.52	2967.80
439.70	3012.27
439.89	3054.40
440.08	3005.25
440.26	2967.80
440.45	2979.50
440.63	3063.76
440.82	3119.93
441.01	3023.97
441.19	3026.31
441.38	3197.17
441.57	3197.17
441.75	3269.73
441.94	3258.03
442.12	3211.22
442.31	3379.73
442.50	3262.71
442.68	3180.79
442.87	3304.84
443.05	3396.12
443.24	3283.77
443.43	3330.58
443.61	3499.10
443.80	3414.84
443.98	3314.20
444.17	3283.77
444.35	3417.18
444.54	3372.71
444.73	3358.67
444.91	3194.83
445.10	3372.71
445.28	3375.05
445.47	3426.54
445.65	3428.88
445.84	3482.72
446.02	3461.65
446.21	3480.38
446.39	3405.48
446.58	3655.92
446.77	3487.40
446.95	3590.38
447.14	3478.04
447.32	3588.04
447.51	3529.53
447.69	3454.63
447.88	3475.70
448.06	3562.30
448.25	3506.12
448.43	3403.14
448.62	3578.68
448.80	3513.14
448.99	3595.06
449.17	3527.19
449.36	3339.94
449.54	3557.61
449.73	3623.15
449.91	3679.32
450.10	3634.85
450.28	3749.54
450.46	3765.92
450.65	3789.33
450.83	3684.00
451.02	3768.26
451.20	3817.41
451.39	3691.02
451.57	3740.18
451.76	3784.65
451.94	3749.54
452.13	3719.11
452.31	3810.39
452.49	3644.21
452.68	3822.09
452.86	3831.46
453.05	3805.71
453.23	3864.22
453.42	3911.04
453.60	3906.35
453.78	3908.69
453.97	3894.65
454.15	3901.67
454.34	3836.14
454.52	3833.80
454.70	3995.29
454.89	3960.19
455.07	3957.85
455.26	4126.36
455.44	4102.96
455.62	4112.32
455.81	4084.23
455.99	4021.04
456.17	4004.66
456.36	3962.53
456.54	4219.99
456.73	4208.28
456.91	4175.52
457.09	4203.60
457.28	4325.31
457.46	4365.10
457.64	4360.42
457.83	4311.27
458.01	4315.95
458.19	4332.33
458.38	4259.78
458.56	4388.50
458.74	4402.55
458.93	4383.82
459.11	4278.50
459.29	4322.97
459.48	4535.96
459.66	4383.82
459.84	4479.79
460.03	4456.38
460.21	4545.32
460.39	4528.94
460.57	4507.87
460.76	4542.98
460.94	4636.60
461.12	4554.68
461.31	4638.94
461.49	4655.33
461.67	4610.86
461.85	4542.98
462.04	4760.65
462.22	4655.33
462.40	4702.14
462.59	4713.84
462.77	4718.52
462.95	4636.60
463.13	4737.24
463.32	4777.03
463.50	4854.27
463.68	4908.10
463.86	4844.91
464.05	4645.96
464.23	4880.02
464.41	4903.42
464.59	4779.37
464.78	4882.36
464.96	4798.10
465.14	4816.82
465.32	4980.66
465.50	4868.31
465.69	4798.10
465.87	4830.87
466.05	4889.38
466.23	4840.23
466.41	5001.72
466.60	5158.54
466.78	4987.68
466.96	4947.89
467.14	5015.77
467.32	5172.58
467.51	5018.11
467.69	4999.38
467.87	5238.12
468.05	5060.24
468.23	5109.39
468.41	5123.43
468.60	5259.18
468.78	5350.46
468.96	5139.82
469.14	5310.68
469.32	5217.05
469.50	5193.65
469.69	5294.29
469.87	5387.91
470.05	5329.40
470.23	5448.77
470.41	5437.06
470.59	5425.36
470.77	5210.03
470.95	5486.22
471.14	5593.88
471.32	5453.45
471.50	5617.29
471.68	5544.73
471.86	5600.90
472.04	5561.11
472.22	5762.40
472.40	5348.12
472.58	5551.75
472.77	5650.05
472.95	5865.38
473.13	5809.21
473.31	5727.29
473.49	6003.47
473.67	5687.50
473.85	5856.02
474.03	6019.86
474.21	5867.72
474.39	6115.82
474.57	6052.63
474.75	6026.88
474.93	6047.94
475.12	6202.42
475.30	6087.73
475.48	5940.28
475.66	6010.50
475.84	6246.89
476.02	6270.30
476.20	6263.27
476.38	6267.95
476.56	6387.32
476.74	6516.05
476.92	6506.69
477.10	6513.71
477.28	6677.55
477.46	6663.51
477.64	6637.76
477.82	6696.27
478.00	6752.45
478.18	6717.34
478.36	6803.94
478.54	6974.80
478.72	7073.10
478.90	7026.29
479.08	7101.19
479.26	7185.44
479.44	7204.17
479.62	7440.56
479.80	7344.60
479.98	7541.21
480.16	7557.59
480.34	7531.84
480.52	7466.31
480.70	7625.47
480.88	7494.40
481.06	7679.30
481.24	7501.42
481.41	7786.96
481.59	7878.24
481.77	7889.95
481.95	7981.23
482.13	8023.36
482.31	8013.99
482.49	8215.28
482.67	8098.25
482.85	8430.61
483.03	8236.35
483.21	8386.14
483.39	8524.23
483.57	8568.70
483.74	8414.23
483.92	8627.21
484.10	8645.94
484.28	8823.82
484.46	8940.85
484.64	9053.19
484.82	8964.25
485.00	8861.27
485.18	9231.07
485.35	9247.46
485.53	9329.38
485.71	9692.16
485.89	9579.81
486.07	9338.74
486.25	9369.16
486.43	9713.22
486.61	9476.83
486.78	9743.65
486.96	9870.04
487.14	9879.40
487.32	10047.92
487.50	10087.71
487.68	10052.60
487.85	10293.68
488.03	10293.68
488.21	10672.84
488.39	10546.45
488.57	10399.00
488.75	10672.84
488.92	10768.80
489.10	10642.42
489.28	10740.72
489.46	10785.19
489.64	11124.57
489.81	11159.67
489.99	11215.85
490.17	11002.86
490.35	11506.07
490.53	11375.00
490.70	11492.03
490.88	11634.80
491.06	11763.53
491.24	11499.05
491.41	11595.01
491.59	11812.68
491.77	11817.36
491.95	11873.54
492.13	12159.08
492.30	11915.67
492.48	12304.20
492.66	12226.96
492.84	12184.83
493.01	12322.92
493.19	12496.12
493.37	12634.21
493.54	12601.44
493.72	12699.75
493.90	12575.70
494.08	12664.64
494.25	12931.46
494.43	13064.87
494.61	13055.51
494.79	13282.54
494.96	13149.13
495.14	13439.36
495.32	13217.01
495.49	13586.81
495.67	13521.27
495.85	13652.34
496.02	13757.67
496.20	13729.58
496.38	13832.57
496.55	14193.01
496.73	14237.48
496.91	13872.36
497.09	14113.43
497.26	13970.66
497.44	14113.43
497.62	14401.32
497.79	14384.93
497.97	14279.61
498.14	14490.26
498.32	14469.19
498.50	14747.72
498.67	14670.48
498.85	14941.98
499.03	14958.36
499.20	15000.49
499.38	14796.87
499.56	15119.86
499.73	15147.95
499.91	15152.63
500.08	15204.12
500.26	15103.48
500.44	15185.40
500.61	15257.95
500.79	15241.57
500.97	15564.56
501.14	15543.50
501.32	15730.74
501.49	15506.05
501.67	15367.96
501.84	15978.84
502.02	15831.38
502.20	15583.29
502.37	15983.52
502.55	15927.35
502.72	16081.82
502.90	16088.84
503.07	16081.82
503.25	16128.63
503.43	16271.40
503.60	16262.04
503.78	16318.22
503.95	16439.92
504.13	16500.78
504.30	16339.28
504.48	16390.77
504.65	16379.07
504.83	16765.26
505.01	16975.91
505.18	16573.33
505.36	17179.53
505.53	16985.27
505.71	16886.97
505.88	16851.86
506.06	16826.11
506.23	17088.25
506.41	17226.34
506.58	17247.41
506.76	17160.81
506.93	17406.56
507.11	17324.65
507.28	17184.21
507.46	17769.35
507.63	17626.57
507.81	17266.13
507.98	17350.39
508.16	17813.82
508.33	17556.36
508.50	17916.80
508.68	17886.37
508.85	18164.90
509.03	17888.71
509.20	17848.93
509.38	18033.83
509.55	18061.91
509.73	18155.54
509.90	18003.40
510.08	18317.03
510.25	18223.41
510.42	18441.08
510.60	18647.05
510.77	18677.48
510.95	18707.90
511.12	18277.24
511.30	18506.62
511.47	18607.26
511.64	18384.91
511.82	18651.73
511.99	18862.38
512.17	18700.88
512.34	18916.21
512.51	19211.12
512.69	19049.62
512.86	18958.34
513.04	18925.57
513.21	19016.85
513.38	19323.46
513.56	19253.25
513.73	19555.18
513.90	19386.66
514.08	19351.55
514.25	19711.99
514.43	19618.37
514.60	19850.08
514.77	19606.67
514.95	19477.94
515.12	19590.28
515.29	19583.26
515.47	19620.71
515.64	19838.38
515.81	19786.89
515.99	20006.90
516.16	20133.29
516.33	20264.36
516.51	20205.84
516.68	20072.43
516.85	20039.67
517.03	20271.38
517.20	20341.60
517.37	20269.04
517.54	20484.37
517.72	20322.87
517.89	20381.38
518.06	20332.23
518.24	20563.95
518.41	20603.74
518.58	20489.05
518.75	20645.87
518.93	20762.89
519.10	20379.04
519.27	20638.84
519.45	20727.78
519.62	20886.94
519.79	20842.47
519.96	20851.83
520.14	20975.88
520.31	21053.12
520.48	21137.38
520.65	20961.84
520.83	21069.50
521.00	21153.76
521.17	21120.99
521.34	21303.56
521.52	21425.26
521.69	21252.06
521.86	21844.22
522.03	21228.66
522.20	21823.16
522.38	21525.91
522.55	21542.29
522.72	21703.79
522.89	21741.24
523.07	21865.28
523.24	21982.31
523.41	22169.55
523.58	22171.89
523.75	21624.21
523.92	21963.59
524.10	22080.61
524.27	21979.97
524.44	22317.01
524.61	22228.07
524.78	22214.02
524.96	22265.52
525.13	22342.75
525.30	22288.92
525.47	22427.01
525.64	22352.12
525.81	22649.36
525.98	22281.90
526.16	22354.46
526.33	22546.38
526.50	22632.98
526.67	22632.98
526.84	22885.76
527.01	22616.60
527.18	22909.16
527.36	22822.56
527.53	22712.56
527.70	23047.26
527.87	23288.33
528.04	22925.55
528.21	22953.63
528.38	22532.34
528.55	22860.01
528.72	23241.52
528.89	23117.47
529.07	23145.56
529.24	23318.76
529.41	23332.80
529.58	23302.37
529.75	23318.76
529.92	23190.03
530.09	23094.07
530.26	23396.00
530.43	23297.69
530.60	23360.89
530.77	23318.76
530.94	23592.60
531.11	23548.13
531.28	23868.78
531.46	23580.90
531.63	23681.54
531.80	23721.33
531.97	23709.63
532.14	24032.62
532.31	23721.33
532.48	23372.59
532.65	23630.05
532.82	23487.28
532.99	23939.00
533.16	23737.71
533.33	24053.69
533.50	24444.56
533.67	24065.39
533.84	23892.19
534.01	24318.17
534.18	23768.14
534.35	24156.67
534.52	24233.91
534.69	24465.62
534.86	24416.47
535.03	24215.18
535.20	24482.00
535.37	24559.24
535.54	24561.58
535.71	24479.66
535.88	24643.50
536.05	24561.58
536.22	24629.46
536.38	24833.08
536.55	24601.37
536.72	24849.47
536.89	24797.98
537.06	24467.96
537.23	24648.18
537.40	25020.33
537.57	24840.11
537.74	25230.98
537.91	25057.78
538.08	25034.37
538.25	24783.93
538.42	24636.48
538.59	25142.03
538.75	24893.94
538.92	24842.45
539.09	25022.67
539.26	25174.80
539.43	25434.60
539.60	25465.03
539.77	25502.48
539.94	25443.96
540.11	25319.92
540.28	24943.09
540.44	25277.79
540.61	25287.15
540.78	25277.79
540.95	25551.63
541.12	25589.08
541.29	25406.52
541.46	25582.06
541.62	25652.27
541.79	25486.09
541.96	25151.40
542.13	25413.54
542.30	25706.10
542.47	25745.89
542.63	25656.95
542.80	25982.29
542.97	26089.95
543.14	26188.25
543.31	25876.96
543.48	25743.55
543.64	25940.16
543.81	26403.58
543.98	26286.56
544.15	26045.48
544.32	26225.70
544.48	26405.92
544.65	26274.85
544.82	26256.13
544.99	25928.45
545.16	26511.25
545.32	26246.77
545.49	26663.38
545.66	26511.25
545.83	26424.65
546.00	26771.05
546.16	26654.02
546.33	26302.94
546.50	25874.62
546.67	26352.09
546.83	26314.64
547.00	26642.32
547.17	26487.84
547.34	26782.75
547.50	26520.61
547.67	27028.51
547.84	27187.66
548.00	26698.49
548.17	26632.96
548.34	26806.16
548.51	27236.81
548.67	27072.98
548.84	26890.41
549.01	27199.37
549.18	27051.91
549.34	26993.40
549.51	26661.04
549.68	26974.67
549.84	26471.46
550.01	27166.60
550.18	27138.51
550.34	26899.78
550.51	27112.77
550.68	27475.55
550.84	26916.16
551.01	27424.06
551.18	27087.02
551.34	26647.00
551.51	27105.74
551.68	27318.73
551.84	27267.24
552.01	27295.33
552.18	27424.06
552.34	27147.87
552.51	27358.52
552.68	27557.47
552.84	27304.69
553.01	27807.90
553.18	27449.80
553.34	27674.49
553.51	27505.98
553.67	27800.88
553.84	27924.93
554.01	27606.62
554.17	28081.75
554.34	27852.38
554.51	27555.13
554.67	27838.33
554.84	27728.33
555.00	27637.05
555.17	27707.26
555.33	27742.37
555.50	27931.95
555.67	27880.46
555.83	27922.59
556.00	27910.89
556.16	28175.37
556.33	27896.85
556.50	27878.12
556.66	28238.56
556.83	28161.33
556.99	28133.24
557.16	28109.83
557.32	28524.11
557.49	28559.22
557.65	27538.74
557.82	27896.85
557.98	28072.39
558.15	28163.67
558.32	28481.98
558.48	28278.35
558.65	28222.18
558.81	28276.01
558.98	28666.88
559.14	28156.64
559.31	28308.78
559.47	28250.27
559.64	28542.83
559.80	28552.20
559.97	28428.15
560.13	28474.96
560.30	28224.52
560.46	28449.21
560.63	28631.77
560.79	28348.57
560.96	28596.67
561.12	28233.88
561.29	28617.73
561.45	28278.35
561.61	28692.63
561.78	28765.18
561.94	28524.11
562.11	28606.03
562.27	28320.48
562.44	28566.24
562.60	28404.74
562.77	28624.75
562.93	28362.61
563.10	28683.27
563.26	28500.70
563.42	28907.96
563.59	28765.18
563.75	28931.36
563.92	28662.20
564.08	28577.94
564.24	28685.61
564.41	28788.59
564.57	28666.88
564.74	28823.70
564.90	28547.51
565.07	28465.60
565.23	28662.20
565.39	28755.82
565.56	28786.25
565.72	28886.89
565.88	28666.88
566.05	28893.91
566.21	28690.29
566.38	28723.05
566.54	28716.03
566.70	28992.22
566.87	29277.76
567.03	29050.73
567.19	29109.24
567.36	29273.08
567.52	28968.81
567.68	28882.21
567.85	28971.15
568.01	29212.23
568.17	28844.76
568.34	28802.63
568.50	28945.41
568.66	29113.92
568.83	29163.08
568.99	29521.18
569.15	29151.37
569.32	28701.99
569.48	29006.26
569.64	29181.80
569.81	29495.43
569.97	28926.68
570.13	29474.37
570.30	29085.84
570.46	28849.44
570.62	29289.46
570.78	29200.52
570.95	28893.91
571.11	29277.76
571.27	28989.88
571.43	28854.12
571.60	29338.62
571.76	28573.26
571.92	29212.23
572.09	29205.20
572.25	29677.99
572.41	29156.05
572.57	29113.92
572.74	29181.80
572.90	28872.85
573.06	29263.72
573.22	29207.55
573.38	29472.03
573.55	29223.93
573.71	29687.36
573.87	29647.57
574.03	29474.37
574.20	29504.79
574.36	29493.09
574.52	29404.15
574.68	29247.33
574.84	29092.86
575.01	29621.82
575.17	29549.26
575.33	29621.82
575.49	29244.99
575.65	29317.55
575.82	29544.58
575.98	29500.11
576.14	29502.45
576.30	29378.40
576.46	29053.07
576.62	29020.30
576.79	29317.55
576.95	29420.53
577.11	29582.03
577.27	29521.18
577.43	29745.87
577.59	29280.10
577.75	29432.24
577.92	29111.58
578.08	29139.67
578.24	29535.22
578.40	29235.63
578.56	29296.49
578.72	29312.87
578.88	29612.46
579.04	29528.20
579.21	29432.24
579.37	29668.63
579.53	29642.88
579.69	29151.37
579.85	29343.30
580.01	29305.85
580.17	29184.14
580.33	29542.24
580.49	29366.70
580.65	29771.61
580.82	29830.13
580.98	29862.90
581.14	29380.74
581.30	29509.47
581.46	29364.36
581.62	29486.07
581.78	29153.71
581.94	29448.62
582.10	29727.14
582.26	29521.18
582.42	29247.33
582.58	29638.20
582.74	29425.22
582.90	29694.38
583.06	29717.78
583.22	29284.78
583.38	29146.69
583.54	29530.54
583.70	29188.82
583.86	29280.10
584.02	29546.92
584.18	29823.11
584.34	29968.22
584.50	29963.54
584.66	29507.13
584.82	29626.50
584.98	29584.37
585.14	30012.69
585.30	29102.22
585.46	29277.76
585.62	29467.34
585.78	29598.41
585.94	29315.21
586.10	29582.03
586.26	29593.73
586.42	29862.90
586.58	29708.42
586.74	29813.74
586.90	29062.43
587.06	29479.05
587.22	29666.29
587.38	29436.92
587.54	29769.27
587.70	29919.07
587.86	29193.50
588.02	29876.94
588.18	29811.40
588.34	29759.91
588.49	29579.69
588.65	29656.93
588.81	29404.15
588.97	29919.07
589.13	29685.01
589.29	29603.10
589.45	29551.60
589.61	29802.04
589.77	30054.82
589.93	29923.75
590.08	30141.42
590.24	30244.40
590.40	30066.52
590.56	29748.21
590.72	29635.86
590.88	30106.31
591.04	29593.73
591.20	30401.22
591.35	29703.74
591.51	30120.35
591.67	30321.64
591.83	30075.88
591.99	30162.48
592.15	30242.06
592.31	29923.75
592.46	29799.70
592.62	30125.04
592.78	29888.64
592.94	29748.21
593.10	29654.59
593.26	30162.48
593.41	29986.94
593.57	29888.64
593.73	30181.21
593.89	30192.91
594.05	29596.07
594.20	30185.89
594.36	30155.46
594.52	29881.62
594.68	30064.18
594.84	29741.19
594.99	30185.89
595.15	30387.18
595.31	30319.30
595.47	29890.98
595.62	29720.12
595.78	30000.99
595.94	29977.58
596.10	30174.19
596.25	29509.47
596.41	30115.67
596.57	29724.80
596.73	29940.13
596.88	29963.54
597.04	30188.23
597.20	30232.70
597.36	29919.07
597.51	30092.27
597.67	29872.26
597.83	30066.52
597.99	30328.66
598.14	29713.10
598.30	30160.14
598.46	30326.32
598.61	30054.82
598.77	30157.80
598.93	30246.74
599.09	30019.71
599.24	30408.24
599.40	30141.42
599.56	29998.65
599.71	30431.65
599.87	30265.47
600.03	30155.46
600.18	30342.70
600.34	29996.31
600.50	29764.59
600.65	29883.96
600.81	30288.87
600.97	30410.58
601.12	30705.49
601.28	30511.22
601.44	30518.25
601.59	30242.06
601.75	29869.92
601.91	30221.00
602.06	30338.02
602.22	30525.27
602.37	29905.02
602.53	30380.15
602.69	30328.66
602.84	30019.71
603.00	30169.51
603.16	30277.17
603.31	30349.73
603.47	30204.61
603.62	29827.79
603.78	30110.99
603.94	29621.82
604.09	29963.54
604.25	29998.65
604.40	30349.73
604.56	30251.42
604.71	30555.69
604.87	30361.43
605.03	30125.04
605.18	30274.83
605.34	30092.27
605.49	30127.38
605.65	30192.91
605.80	30181.21
605.96	30096.95
606.12	30024.39
606.27	30331.00
606.43	30183.55
606.58	30408.24
606.74	29989.28
606.89	30174.19
607.05	30279.51
607.20	30061.84
607.36	29773.95
607.51	30291.21
607.67	30197.59
607.82	29883.96
607.98	29914.39
608.13	29961.20
608.29	30043.12
608.44	29647.57
608.60	30113.33
608.75	30064.18
608.91	30106.31
609.06	29909.71
609.22	29525.86
609.37	29649.91
609.53	30008.01
609.68	29818.42
609.84	29525.86
609.99	29701.40
610.15	29752.89
610.30	29977.58
610.46	29668.63
610.61	30265.47
610.76	29935.45
610.92	29830.13
611.07	29692.04
611.23	29996.31
611.38	29731.83
611.54	29727.14
611.69	29460.32
611.84	29759.91
612.00	29612.46
612.15	29567.99
612.31	29771.61
612.46	29078.82
612.62	29846.51
612.77	29745.87
612.92	30162.48
613.08	29577.35
613.23	29362.02
613.39	29453.30
613.54	29064.77
613.69	29469.69
613.85	29275.42
614.00	29900.34
614.15	29806.72
614.31	29209.89
614.46	29776.30
614.62	29532.88
614.77	29504.79
614.92	29869.92
615.08	29476.71
615.23	29525.86
615.38	29687.36
615.54	29521.18
615.69	29413.51
615.84	29127.97
616.00	29378.40
616.15	29394.79
616.30	29298.83
616.46	29237.97
616.61	29067.11
616.76	29390.11
616.92	29500.11
617.07	29453.30
617.22	29558.63
617.37	29050.73
617.53	29340.96
617.68	29013.28
617.83	29120.95
617.99	29270.74
618.14	29200.52
618.29	29064.77
618.45	29088.18
618.60	29373.72
618.75	29282.44
618.90	28929.02
619.06	28964.13
619.21	29053.07
619.36	28957.11
619.51	28835.40
619.67	28641.14
619.82	28678.58
619.97	28966.47
620.12	28809.65
620.28	28790.93
620.43	28744.12
620.58	28706.67
620.73	29195.84
620.89	28659.86
621.04	28835.40
621.19	29001.58
621.34	29015.62
621.49	28734.76
621.65	28744.12
621.80	28655.18
621.95	28877.53
622.10	28699.65
622.25	28868.17
622.41	28900.94
622.56	28685.61
622.71	28865.83
622.86	28594.32
623.01	28697.31
623.16	28776.89
623.32	28477.30
623.47	28739.44
623.62	28680.92
623.77	28870.51
623.92	28514.75
624.07	28669.22
624.23	28641.14
624.38	28395.38
624.53	28884.55
624.68	28987.53
624.83	28769.86
624.98	28893.91
625.13	28685.61
625.29	28781.57
625.44	28725.39
625.59	28404.74
625.74	28643.48
625.89	28133.24
626.04	28311.12
626.19	28371.97
626.34	28079.41
626.49	28151.96
626.65	28032.60
626.80	28301.76
626.95	28423.47
627.10	28584.96
627.25	28489.00
627.40	27948.34
627.55	27960.04
627.70	28020.89
627.85	28048.98
628.00	27821.95
628.15	27924.93
628.30	27878.12
628.45	28191.75
628.60	27999.83
628.76	28121.54
628.91	28100.47
629.06	28224.52
629.21	28023.23
629.36	28011.53
629.51	27896.85
629.66	28168.35
629.81	27625.34
629.96	27805.56
630.11	27482.57
630.26	27791.52
630.41	27569.17
630.56	27618.32
630.71	27756.41
630.86	28020.89
631.01	27906.21
631.16	28074.73
631.31	27524.70
631.46	27793.86
631.61	27896.85
631.76	27777.48
631.91	27679.18
632.06	27620.66
632.21	27613.64
632.36	27749.39
632.51	27566.83
632.66	27330.44
632.81	27269.58
632.96	27599.60
633.10	27204.05
633.25	27838.33
633.40	27583.21
633.55	27012.12
633.70	27199.37
633.85	27164.26
634.00	27084.68
634.15	27419.38
634.30	27496.61
634.45	26986.38
634.60	27035.53
634.75	27133.83
634.90	27405.33
635.05	27503.64
635.19	27536.40
635.34	27637.05
635.49	27215.75
635.64	27040.21
635.79	27351.50
635.94	27037.87
636.09	27152.55
636.24	26986.38
636.39	26855.31
636.53	26852.97
636.68	26986.38
636.83	27117.45
636.98	27164.26
637.13	26909.14
637.28	26913.82
637.43	27094.04
637.57	27215.75
637.72	26902.12
637.87	27129.15
638.02	26937.23
638.17	26986.38
638.32	26796.79
638.46	26885.73
638.61	26899.78
638.76	26356.77
638.91	26562.74
639.06	26836.58
639.20	26958.29
639.35	26740.62
639.50	26986.38
639.65	26960.63
639.80	27087.02
639.94	26522.95
640.09	26862.33
640.24	26569.76
640.39	26794.45
640.54	26473.80
640.68	26567.42
640.83	26274.85
640.98	26480.82
641.13	26125.06
641.27	26843.60
641.42	26609.55
641.57	26539.33
641.72	26565.08
641.86	26623.59
642.01	26235.06
642.16	26492.52
642.31	26436.35
642.45	26639.98
642.60	26284.22
642.75	26417.63
642.90	26424.65
643.04	26253.79
643.19	26192.94
643.34	26595.51
643.48	26010.37
643.63	26338.05
643.78	26223.36
643.93	26539.33
644.07	26249.11
644.22	26485.50
644.37	26202.30
644.51	26352.09
644.66	26115.70
644.81	25930.80
644.95	26277.19
645.10	26417.63
645.25	25900.37
645.39	26080.59
645.54	26356.77
645.69	26111.02
645.83	26199.96
645.98	26064.21
646.13	26197.62
646.27	26022.08
646.42	26162.51
646.57	25949.52
646.71	25989.31
646.86	26134.42
647.00	25823.13
647.15	26040.80
647.30	26075.91
647.44	25799.73
647.59	25968.24
647.74	25490.77
647.88	25766.96
648.03	25912.07
648.17	26050.16
648.32	26043.14
648.47	26111.02
648.61	25942.50
648.76	26031.44
648.90	25514.18
649.05	25734.19
649.20	25858.24
649.34	25532.90
649.49	25708.44
649.63	25687.38
649.78	25781.00
649.92	25935.48
650.07	25731.85
650.21	25193.53
650.36	25724.83
650.51	25652.27
650.65	25750.57
650.80	25699.08
650.94	25413.54
651.09	25549.29
651.23	25338.64
651.38	25596.10
651.52	25656.95
651.67	25245.02
651.81	25450.99
651.96	25116.29
652.10	25675.68
652.25	25502.48
652.39	25668.66
652.54	25813.77
652.68	25537.59
652.83	25591.42
652.97	25635.89
653.12	25158.42
653.26	25226.29
653.41	25493.12
653.55	25177.14
653.70	25539.93
653.84	25603.12
653.99	25413.54
654.13	25553.97
654.27	25151.40
654.42	25165.44
654.56	25142.03
654.71	25476.73
654.85	25301.19
655.00	25202.89
655.14	25357.36
655.29	24898.62
655.43	24868.19
655.57	25099.90
655.72	24788.61
655.86	24985.22
656.01	24851.81
656.15	24929.05
656.30	24992.24
656.44	24627.12
656.58	24711.38
656.73	24807.34
656.87	24893.94
657.01	24751.17
657.16	24666.91
657.30	25289.49
657.45	24697.33
657.59	24994.58
657.73	24596.69
657.88	24687.97
658.02	24669.25
658.16	24278.38
658.31	24517.11
658.45	24711.38
658.60	24573.28
658.74	24423.49
658.88	24374.34
659.03	24631.80
659.17	24573.28
659.31	24533.50
659.46	24603.71
659.60	24659.88
659.74	24638.82
659.89	24287.74
660.03	24226.89
660.17	24437.53
660.32	24044.32
660.46	24020.92
660.60	24130.92
660.74	24058.37
660.89	23889.85
661.03	23672.18
661.17	23957.72
661.32	23995.17
661.46	24084.11
661.60	23997.51
661.74	24425.83
661.89	24266.67
662.03	24119.22
662.17	24079.43
662.31	23765.80
662.46	24039.64
662.60	24086.45
662.74	24093.47
662.88	23667.50
663.03	23857.08
663.17	23550.47
663.31	23644.09
663.45	23421.74
663.60	23543.45
663.74	23667.50
663.88	23456.85
664.02	23608.98
664.17	23906.23
664.31	23749.42
664.45	23419.40
664.59	23566.85
664.73	23248.54
664.88	23365.57
665.02	23068.32
665.16	23115.13
665.30	23019.17
665.44	22843.63
665.59	23002.78
665.73	23000.44
665.87	22995.76
666.01	22991.08
666.15	23143.22
666.29	23346.84
666.44	23126.83
666.58	23147.90
666.72	22878.74
666.86	22773.41
667.00	23475.57
667.14	22761.71
667.28	22984.06
667.43	22686.81
667.57	22794.48
667.71	22801.50
667.85	22555.74
667.99	22611.92
668.13	22499.57
668.27	22855.33
668.41	22604.89
668.56	22546.38
668.70	22532.34
668.84	22754.69
668.98	22782.77
669.12	22274.88
669.26	22527.66
669.40	22036.14
669.54	22394.25
669.68	22422.33
669.82	21806.77
669.96	22331.05
670.10	21986.99
670.25	22197.64
670.39	22024.44
670.53	22033.80
670.67	21893.37
670.81	22143.81
670.95	22122.74
671.09	21720.17
671.23	21867.63
671.37	21748.26
671.51	21933.16
671.65	21926.14
671.79	21848.90
671.93	21841.88
672.07	21722.51
672.21	21659.32
672.35	21364.41
672.49	21708.47
672.63	21336.32
672.77	21535.27
672.91	21481.44
673.05	21153.76
673.19	21034.39
673.33	21142.06
673.47	21371.43
673.61	21366.75
673.75	21212.28
673.89	21032.05
674.03	21252.06
674.17	20744.17
674.31	21219.30
674.45	20898.64
674.59	21008.65
674.73	21034.39
674.87	20945.45
675.01	21123.33
675.15	20760.55
675.29	20739.49
675.43	20395.43
675.56	20566.29
675.70	20781.62
675.84	20428.20
675.98	20233.93
676.12	20615.44
676.26	20376.70
676.40	20449.26
676.54	20484.37
676.68	20322.87
676.82	19934.34
676.96	20299.47
677.10	19957.75
677.23	20023.28
677.37	19948.39
677.51	19924.98
677.65	19840.72
677.79	19482.62
677.93	19592.62
678.07	19896.89
678.21	19751.78
678.34	19763.48
678.48	19358.57
678.62	19426.45
678.76	19293.04
678.90	19527.09
679.04	19400.70
679.18	19367.93
679.31	19056.64
679.45	19028.56
679.59	18761.73
679.73	18579.17
679.87	18965.36
680.00	18869.40
680.14	18735.99
680.28	18867.06
680.42	18986.43
680.56	18773.44
680.70	18710.24
680.83	18611.94
680.97	18235.11
681.11	18480.87
681.25	18621.30
681.39	18317.03
681.52	18153.20
681.66	18174.26
681.80	17865.31
681.94	18092.34
682.07	18090.00
682.21	18237.45
682.35	18012.76
682.49	17921.48
682.62	17778.71
682.76	17851.27
682.90	17827.86
683.04	17624.23
683.17	17603.17
683.31	17439.33
683.45	17462.74
683.59	17596.15
683.72	17401.88
683.86	17640.62
684.00	17481.46
684.13	17273.15
684.27	17240.39
684.41	17444.01
684.55	16776.96
684.68	17205.28
684.82	16929.09
684.96	17006.33
685.09	16936.12
685.23	16765.26
685.37	16697.38
685.50	16844.84
685.64	16924.41
685.78	16659.93
685.91	16671.64
686.05	16886.97
686.19	16575.67
686.32	16842.50
686.46	16358.00
686.60	15983.52
686.73	16430.56
686.87	16161.40
687.01	16020.97
687.14	16208.21
687.28	15845.43
687.42	15892.24
687.55	15962.45
687.69	16079.48
687.82	15688.61
687.96	15962.45
688.10	15908.62
688.23	15939.05
688.37	15800.96
688.50	15630.10
688.64	15719.04
688.78	15749.46
688.91	15587.97
689.05	15726.06
689.18	15602.01
689.32	14974.75
689.46	15304.76
689.59	15194.76
689.73	15066.03
689.86	15119.86
690.00	15264.97
690.13	15023.90
690.27	14857.72
690.41	14949.00
690.54	14850.70
690.68	14658.78
690.81	14780.48
690.95	14904.53
691.08	14696.22
691.22	14904.53
691.35	14827.29
691.49	14546.43
691.62	14616.65
691.76	14160.24
691.89	14333.44
692.03	14127.47
692.16	14310.04
692.30	13872.36
692.43	14204.71
692.57	14232.80
692.70	14118.11
692.84	13902.78
692.97	14078.32
693.11	13937.89
693.24	13956.61
693.38	13713.20
693.51	13563.40
693.65	13621.92
693.78	13504.89
693.92	13731.92
694.05	13776.39
694.19	13476.80
694.32	13231.05
694.45	13238.07
694.59	13371.48
694.72	12957.21
694.86	13125.72
694.99	12919.76
695.13	12989.97
695.26	12854.22
695.39	12886.99
695.53	13074.23
695.66	12847.20
695.80	12664.64
695.93	13057.85
696.07	12945.50
696.20	12971.25
696.33	12622.51
696.47	12620.17
696.60	12601.44
696.73	12390.80
696.87	12556.97
697.00	12217.60
697.14	12280.79
697.27	12100.57
697.40	12306.54
697.54	11941.41
697.67	11791.62
697.80	12154.40
697.94	11981.20
698.07	11939.07
698.21	11946.09
698.34	11744.81
698.47	12020.99
698.61	11831.41
698.74	11800.98
698.87	11789.28
699.01	11672.25
699.14	11716.72
699.27	11573.95
699.40	11777.58
699.54	11459.26
699.67	11456.92
699.80	11145.63
699.94	11187.76
700.07	11197.12
700.20	11274.36
700.34	11066.05
700.47	11136.27
700.60	11131.59
700.73	10944.34
700.87	10934.98
701.00	11037.97
701.13	10967.75
701.26	11044.99
701.40	11002.86
701.53	10794.55
701.66	10803.91
701.79	10932.64
701.93	10539.43
702.06	10590.92
702.19	10597.95
702.32	10317.08
702.46	10363.89
702.59	10202.40
702.72	10150.90
702.85	10352.19
702.99	10174.31
703.12	10045.58
703.25	10204.74
703.38	9970.68
703.51	10076.01
703.65	10181.33
703.78	10118.14
703.91	10132.18
704.04	10237.50
704.17	10157.92
704.31	9771.74
704.44	9951.96
704.57	9823.23
704.70	9940.26
704.83	9753.01
704.96	9701.52
705.10	9699.18
705.23	9366.82
>>>>>End Processed Spectral Data<<<<<
