SpectraSuite Data File
++++++++++++++++++++++++++++++++++++
Date: Fri Oct 18 13:57:55 GMT-05:00 2013
User: bianchi
Dark Spectrum Present: No
Reference Spectrum Present: No
Number of Sampled Component Spectra: 1
Spectrometers: USB2+H05261
Integration Time (usec): 50000 (USB2+H05261)
Spectra Averaged: 1 (USB2+H05261)
Boxcar Smoothing: 0 (USB2+H05261)
Correct for Electrical Dark: No (USB2+H05261)
Strobe/Lamp Enabled: No (USB2+H05261)
Correct for Detector Non-linearity: No (USB2+H05261)
Correct for Stray Light: No (USB2+H05261)
Number of Pixels in Processed Spectrum: 2048
>>>>>Begin Processed Spectral Data<<<<<
365.73	0.00
365.92	0.00
366.12	0.00
366.32	0.00
366.52	0.00
366.72	0.00
366.91	0.00
367.11	0.00
367.31	0.00
367.51	0.00
367.70	0.00
367.90	0.00
368.10	0.00
368.30	0.00
368.49	0.00
368.69	0.00
368.89	0.00
369.09	0.00
369.28	0.00
369.48	0.00
369.68	0.00
369.87	0.00
370.07	0.00
370.27	0.00
370.47	0.00
370.66	58.51
370.86	119.37
371.06	112.35
371.25	147.45
371.45	189.58
371.65	140.43
371.84	152.13
372.04	140.43
372.24	262.14
372.44	147.45
372.63	271.50
372.83	273.84
373.03	86.60
373.22	180.22
373.42	227.03
373.62	220.01
373.81	250.44
374.01	227.03
374.21	264.48
374.40	294.91
374.60	236.39
374.79	175.54
374.99	212.99
375.19	322.99
375.38	294.91
375.58	248.10
375.78	236.39
375.97	299.59
376.17	327.68
376.37	271.50
376.56	238.73
376.76	201.29
376.95	231.71
377.15	320.65
377.35	250.44
377.54	224.69
377.74	266.82
377.93	234.05
378.13	259.80
378.33	344.06
378.52	315.97
378.72	355.76
378.91	383.85
379.11	255.12
379.31	252.78
379.50	308.95
379.70	351.08
379.89	334.70
380.09	332.36
380.28	205.97
380.48	287.89
380.68	318.31
380.87	351.08
381.07	327.68
381.26	395.55
381.46	327.68
381.65	418.96
381.85	290.23
382.04	320.65
382.24	322.99
382.43	372.15
382.63	341.72
382.83	395.55
383.02	311.29
383.22	292.57
383.41	369.80
383.61	341.72
383.80	416.62
384.00	390.87
384.19	383.85
384.39	365.12
384.58	379.17
384.78	346.40
384.97	454.06
385.17	442.36
385.36	409.59
385.56	447.04
385.75	372.15
385.95	353.42
386.14	470.45
386.34	353.42
386.53	416.62
386.72	372.15
386.92	404.91
387.11	484.49
387.31	472.79
387.50	379.17
387.70	407.25
387.89	390.87
388.09	451.72
388.28	486.83
388.48	484.49
388.67	470.45
388.86	496.19
389.06	435.34
389.25	409.59
389.45	454.06
389.64	442.36
389.84	482.15
390.03	533.64
390.22	458.74
390.42	531.30
390.61	486.83
390.81	512.58
391.00	540.66
391.19	566.41
391.39	580.45
391.58	528.96
391.78	458.74
391.97	557.05
392.16	493.85
392.36	540.66
392.55	500.87
392.75	554.71
392.94	484.49
393.13	564.07
393.33	650.67
393.52	559.39
393.71	585.13
393.91	624.92
394.10	540.66
394.29	601.52
394.49	690.46
394.68	653.01
394.88	660.03
395.07	624.92
395.26	606.20
395.46	608.54
395.65	718.54
395.84	629.60
396.04	688.12
396.23	667.05
396.42	610.88
396.62	650.67
396.81	671.73
397.00	596.84
397.19	713.86
397.39	732.59
397.58	636.63
397.77	716.20
397.97	772.38
398.16	716.20
398.35	711.52
398.55	760.67
398.74	760.67
398.93	772.38
399.12	711.52
399.32	718.54
399.51	683.44
399.70	741.95
399.90	800.46
400.09	739.61
400.28	814.51
400.47	823.87
400.67	847.27
400.86	844.93
401.05	751.31
401.24	873.02
401.44	760.67
401.63	779.40
401.82	910.47
402.01	826.21
402.21	770.04
402.40	812.17
402.59	877.70
402.78	905.79
402.97	896.43
403.17	863.66
403.36	826.21
403.55	884.72
403.74	856.64
403.93	999.41
404.13	866.00
404.32	926.85
404.51	947.92
404.70	1039.20
404.89	917.49
405.09	1015.79
405.28	908.13
405.47	1057.92
405.66	1076.65
405.85	1078.99
406.05	1053.24
406.24	1039.20
406.43	1114.10
406.62	940.90
406.81	1179.63
407.00	1142.18
407.20	1078.99
407.39	1053.24
407.58	1116.44
407.77	1039.20
407.96	1071.97
408.15	1086.01
408.34	1078.99
408.54	1109.41
408.73	1144.52
408.92	1139.84
409.11	1090.69
409.30	1160.91
409.49	1203.04
409.68	1282.61
409.87	1219.42
410.07	1144.52
410.26	1123.46
410.45	1284.95
410.64	1249.85
410.83	1219.42
411.02	1238.14
411.21	1247.51
411.40	1296.66
411.59	1266.23
411.78	1221.76
411.98	1315.38
412.17	1406.66
412.36	1308.36
412.55	1310.70
412.74	1383.26
412.93	1331.76
413.12	1387.94
413.31	1430.07
413.50	1373.89
413.69	1406.66
413.88	1465.18
414.07	1493.26
414.26	1530.71
414.45	1619.65
414.64	1556.46
414.83	1528.37
415.02	1511.99
415.22	1572.84
415.41	1614.97
415.60	1511.99
415.79	1610.29
415.98	1636.03
416.17	1633.69
416.36	1540.07
416.55	1572.84
416.74	1692.21
416.93	1629.01
417.12	1633.69
417.31	1668.80
417.50	1781.15
417.69	1743.70
417.88	1694.55
418.07	1816.26
418.26	1722.63
418.45	1872.43
418.64	1923.92
418.83	1844.34
419.02	1849.02
419.21	1970.73
419.39	1842.00
419.58	1902.86
419.77	1898.17
419.96	1977.75
420.15	1858.39
420.34	1884.13
420.53	1881.79
420.72	1933.28
420.91	1959.03
421.10	1954.35
421.29	2045.63
421.48	1914.56
421.67	2029.24
421.86	1968.39
422.05	1973.07
422.24	1980.09
422.43	1989.46
422.61	2125.21
422.80	2022.22
422.99	2059.67
423.18	2071.37
423.37	2052.65
423.56	2083.08
423.75	2125.21
423.94	2050.31
424.13	1916.90
424.32	1923.92
424.50	2038.61
424.69	2186.06
424.88	2054.99
425.07	2031.58
425.26	2029.24
425.45	2143.93
425.64	2160.31
425.83	2066.69
426.01	2141.59
426.20	2052.65
426.39	2054.99
426.58	2057.33
426.77	2195.42
426.96	2045.63
427.15	2235.21
427.33	2267.98
427.52	2153.29
427.71	2223.51
427.90	2253.94
428.09	2139.25
428.28	2263.30
428.46	2174.36
428.65	2258.62
428.84	2225.85
429.03	2356.92
429.22	2209.47
429.40	2319.47
429.59	2303.09
429.78	2246.91
429.97	2228.19
430.16	2345.22
430.34	2389.69
430.53	2286.70
430.72	2373.30
430.91	2385.01
431.10	2359.26
431.28	2413.09
431.47	2516.08
431.66	2441.18
431.85	2605.02
432.03	2478.63
432.22	2548.84
432.41	2544.16
432.60	2462.24
432.79	2590.97
432.97	2588.63
433.16	2548.84
433.35	2628.42
433.54	2504.37
433.72	2600.34
433.91	2525.44
434.10	2485.65
434.28	2452.88
434.47	2626.08
434.66	2647.15
434.85	2736.09
435.03	2654.17
435.22	2693.96
435.41	2745.45
435.59	2789.92
435.78	2691.62
435.97	2768.85
436.16	2679.91
436.34	2689.28
436.53	2736.09
436.72	2778.22
436.90	2829.71
437.09	2761.83
437.28	2801.62
437.46	2825.03
437.65	2792.26
437.84	2909.29
438.02	2920.99
438.21	2925.67
438.40	2834.39
438.58	2960.78
438.77	2862.48
438.96	3033.33
439.14	3150.36
439.33	3054.40
439.52	3190.15
439.70	2925.67
439.89	3122.27
440.08	3061.42
440.26	3183.13
440.45	3166.74
440.63	3178.45
440.82	3194.83
441.01	3148.02
441.19	3192.49
441.38	3283.77
441.57	3382.07
441.75	3405.48
441.94	3389.10
442.12	3372.71
442.31	3382.07
442.50	3407.82
442.68	3375.05
442.87	3372.71
443.05	3433.57
443.24	3449.95
443.43	3389.10
443.61	3442.93
443.80	3548.25
443.98	3424.20
444.17	3262.71
444.35	3520.17
444.54	3503.78
444.73	3543.57
444.91	3449.95
445.10	3691.02
445.28	3562.30
445.47	3466.33
445.65	3445.27
445.84	3595.06
446.02	3515.48
446.21	3499.10
446.39	3613.79
446.58	3592.72
446.77	3702.73
446.95	3520.17
447.14	3623.15
447.32	3585.70
447.51	3513.14
447.69	3576.34
447.88	3506.12
448.06	3665.28
448.25	3646.55
448.43	3613.79
448.62	3527.19
448.80	3833.80
448.99	3693.37
449.17	3772.94
449.36	3655.92
449.54	3723.79
449.73	3749.54
449.91	3850.18
450.10	3667.62
450.28	3768.26
450.46	3761.24
450.65	3932.10
450.83	3857.20
451.02	3936.78
451.20	3927.42
451.39	3915.72
451.57	3918.06
451.76	3915.72
451.94	3885.29
452.13	3962.53
452.31	3967.21
452.49	3751.88
452.68	3943.80
452.86	3819.75
453.05	4187.22
453.23	4124.02
453.42	3922.74
453.60	3950.82
453.78	4135.73
453.97	4060.83
454.15	4046.79
454.34	4100.62
454.52	4088.92
454.70	4011.68
454.89	4381.48
455.07	4210.62
455.26	4117.00
455.44	4117.00
455.62	4245.73
455.81	4219.99
455.99	4252.75
456.17	4327.65
456.36	4224.67
456.54	4304.25
456.73	4301.90
456.91	4447.02
457.09	4435.32
457.28	4624.90
457.46	4395.53
457.64	4496.17
457.83	4444.68
458.01	4416.59
458.19	4564.04
458.38	4550.00
458.56	4533.62
458.74	4664.69
458.93	4660.01
459.11	4575.75
459.29	4585.11
459.48	4601.49
459.66	4578.09
459.84	4795.76
460.03	4779.37
460.21	4692.77
460.39	4828.53
460.57	4910.44
460.76	4837.89
460.94	4926.83
461.12	4629.58
461.31	4758.31
461.49	4697.46
461.67	4800.44
461.85	4833.21
462.04	4894.06
462.22	5085.98
462.40	5043.85
462.59	4938.53
462.77	4865.97
462.95	4922.15
463.13	4950.23
463.32	4894.06
463.50	5078.96
463.68	4983.00
463.86	5078.96
464.05	4896.40
464.23	4961.94
464.41	4898.74
464.59	4922.15
464.78	5071.94
464.96	5130.45
465.14	5109.39
465.32	5259.18
465.50	5165.56
465.69	5228.76
465.87	5128.11
466.05	5224.08
466.23	5135.14
466.41	5254.50
466.60	5284.93
466.78	5158.54
466.96	5207.69
467.14	5179.61
467.32	5289.61
467.51	5343.44
467.69	5041.51
467.87	5387.91
468.05	5371.53
468.23	5249.82
468.41	5289.61
468.60	5210.03
468.78	5423.02
468.96	5320.04
469.14	5551.75
469.32	5479.19
469.50	5259.18
469.69	5533.03
469.87	5535.37
470.05	5673.46
470.23	5680.48
470.41	5645.37
470.59	5549.41
470.77	5509.62
470.95	5579.84
471.14	5710.91
471.32	5682.82
471.50	5806.87
471.68	5849.00
471.86	5825.59
472.04	5860.70
472.22	5891.13
472.40	5760.06
472.58	6127.52
472.77	5975.39
472.95	6132.20
473.13	6150.93
473.31	5940.28
473.49	6076.03
473.67	5982.41
473.85	6146.25
474.03	6092.41
474.21	6162.63
474.39	6092.41
474.57	6324.13
474.75	6282.00
474.93	6389.66
475.12	6307.74
475.30	6471.58
475.48	6310.08
475.66	6429.45
475.84	6499.67
476.02	6544.14
476.20	6693.93
476.38	6764.15
476.56	6757.13
476.74	6691.59
476.92	6740.74
477.10	6740.74
477.28	6710.32
477.46	6920.96
477.64	7028.63
477.82	6958.41
478.00	7187.79
478.18	7208.85
478.36	7358.64
478.54	7208.85
478.72	7337.58
478.90	7339.92
479.08	7428.86
479.26	7583.34
479.44	7555.25
479.62	7590.36
479.80	7496.74
479.98	7691.00
480.16	7742.49
480.34	7810.37
480.52	7833.77
480.70	7784.62
480.88	7765.90
481.06	7990.59
481.24	8067.83
481.41	8091.23
481.59	8215.28
481.77	8285.50
481.95	8184.85
482.13	8456.36
482.31	8428.27
482.49	8407.20
482.67	8517.21
482.85	8713.81
483.03	8875.31
483.21	8910.42
483.39	8758.28
483.57	8842.54
483.74	8795.73
483.92	9146.81
484.10	8959.57
484.28	9226.39
484.46	9348.10
484.64	9425.34
484.82	9380.87
485.00	9348.10
485.18	9717.90
485.35	9717.90
485.53	9659.39
485.71	9692.16
485.89	9998.77
486.07	9989.41
486.25	9909.83
486.43	9980.04
486.61	9933.23
486.78	10251.55
486.96	10244.52
487.14	10387.30
487.32	10661.14
487.50	10415.38
487.68	10480.92
487.85	10537.09
488.03	10771.15
488.21	10991.16
488.39	10932.64
488.57	10881.15
488.75	11208.83
488.92	11309.47
489.10	11066.05
489.28	11503.73
489.46	11269.68
489.64	11667.57
489.81	11609.06
489.99	11707.36
490.17	11548.20
490.35	11955.46
490.53	11768.21
490.70	12219.94
490.88	12138.02
491.06	12112.27
491.24	12327.60
491.41	12123.98
491.59	12428.24
491.77	12353.35
491.95	12348.67
492.13	12559.31
492.30	12713.79
492.48	12711.45
492.66	12713.79
492.84	12779.32
493.01	13207.64
493.19	13137.43
493.37	13118.70
493.54	13362.12
493.72	13357.44
493.90	13453.40
494.08	13310.63
494.25	13961.30
494.43	13668.73
494.61	13767.03
494.79	13823.20
494.96	13767.03
495.14	13895.76
495.32	14157.90
495.49	13968.32
495.67	14045.55
495.85	14129.81
496.02	14501.96
496.20	14415.36
496.38	14492.60
496.55	14384.93
496.73	14686.86
496.91	14490.26
497.09	14637.71
497.26	14843.68
497.44	14597.92
497.62	14855.38
497.79	14941.98
497.97	14984.11
498.14	15105.82
498.32	15295.40
498.50	15243.91
498.67	15648.82
498.85	15489.67
499.03	15496.69
499.20	15431.15
499.38	15737.76
499.56	15859.47
499.73	15796.28
499.91	15847.77
500.08	16079.48
500.26	15763.51
500.44	15929.69
500.61	15822.02
500.79	16081.82
500.97	16123.95
501.14	16355.66
501.32	16128.63
501.49	16507.80
501.67	16257.36
501.84	16353.32
502.02	16533.54
502.20	16697.38
502.37	16786.32
502.55	16603.76
502.72	16734.83
502.90	16781.64
503.07	17008.67
503.25	16861.22
503.43	16863.56
503.60	16973.56
503.78	17266.13
503.95	16833.13
504.13	17177.19
504.30	17287.20
504.48	17287.20
504.65	17420.61
504.83	17504.87
505.01	17603.17
505.18	17769.35
505.36	17664.02
505.53	17642.96
505.71	17776.37
505.88	17561.04
506.06	17610.19
506.23	17916.80
506.41	17858.29
506.58	18019.78
506.76	18033.83
506.93	18111.07
507.11	18066.60
507.28	18242.14
507.46	18052.55
507.63	18398.95
507.81	18438.74
507.98	18122.77
508.16	18471.51
508.33	18717.26
508.50	18466.83
508.68	18696.20
508.85	18869.40
509.03	18885.78
509.20	19112.81
509.38	19040.26
509.55	19117.50
509.73	18735.99
509.90	19147.92
510.08	19098.77
510.25	18888.12
510.42	18948.98
510.60	19433.47
510.77	19459.21
510.95	19339.85
511.12	19232.18
511.30	19332.82
511.47	19524.75
511.64	19470.92
511.82	19445.17
511.99	19744.76
512.17	19676.88
512.34	19417.08
512.51	19990.52
512.69	19922.64
512.86	20114.56
513.04	19873.49
513.21	20079.46
513.38	20121.59
513.56	19955.41
513.73	20264.36
513.90	19962.43
514.08	20114.56
514.25	20287.76
514.43	20365.00
514.60	20519.48
514.77	20587.35
514.95	20453.94
515.12	20437.56
515.29	20680.97
515.47	20629.48
515.64	20671.61
515.81	20734.81
515.99	20884.60
516.16	21296.53
516.33	21008.65
516.51	21209.93
516.68	20849.49
516.85	20652.89
517.03	21294.19
517.20	21312.92
517.37	21202.91
517.54	21022.69
517.72	21502.50
517.89	21275.47
518.06	21811.45
518.24	21621.87
518.41	21343.35
518.58	21216.96
518.75	21958.91
518.93	21972.95
519.10	21685.06
519.27	21605.49
519.45	21874.65
519.62	21692.08
519.79	22150.83
519.96	21633.57
520.14	22101.68
520.31	22026.78
520.48	22202.32
520.65	22150.83
520.83	22333.39
521.00	22216.36
521.17	22047.85
521.34	22242.11
521.52	22157.85
521.69	22377.86
521.86	22525.32
522.03	22604.89
522.20	22466.80
522.38	22621.28
522.55	22890.44
522.72	22838.95
522.89	22796.82
523.07	22883.42
523.24	22647.02
523.41	23218.11
523.58	22878.74
523.75	22948.95
523.92	22759.37
524.10	23030.87
524.27	22927.89
524.44	23447.49
524.61	23220.45
524.78	23384.29
524.96	23190.03
525.13	23358.55
525.30	23517.70
525.47	23477.91
525.64	23204.07
525.81	23693.24
525.98	23686.22
526.16	23496.64
526.33	23601.96
526.50	23660.48
526.67	23580.90
526.84	23559.83
527.01	23463.87
527.18	24114.54
527.36	23948.36
527.53	24313.48
527.70	24264.33
527.87	23960.06
528.04	24116.88
528.21	24100.50
528.38	24175.39
528.55	24224.54
528.72	24044.32
528.89	23885.17
529.07	24264.33
529.24	24238.59
529.41	24273.70
529.58	24238.59
529.75	24374.34
529.92	24648.18
530.09	24622.44
530.26	24311.14
530.43	24690.31
530.60	24786.27
530.77	24386.04
530.94	24720.74
531.11	24474.98
531.28	24446.90
531.46	24577.97
531.63	24936.07
531.80	25069.48
531.97	25125.65
532.14	25053.09
532.31	25069.48
532.48	24713.72
532.65	25036.71
532.82	25057.78
532.99	24994.58
533.16	25106.93
533.33	24992.24
533.50	25490.77
533.67	25167.78
533.84	25287.15
534.01	25230.98
534.18	25123.31
534.35	25591.42
534.52	25188.85
534.69	25668.66
534.86	25153.74
535.03	25458.01
535.20	25579.71
535.37	25544.61
535.54	25928.45
535.71	25303.53
535.88	25678.02
536.05	25219.27
536.22	25975.27
536.38	25958.88
536.55	25710.78
536.72	26068.89
536.89	25907.39
537.06	26148.46
537.23	26178.89
537.40	26106.34
537.57	26008.03
537.74	26356.77
537.91	26321.66
538.08	26157.83
538.25	26214.00
538.42	26391.88
538.59	26281.88
538.75	26087.61
538.92	26284.22
539.09	26403.58
539.26	26073.57
539.43	26328.69
539.60	26630.62
539.77	26583.80
539.94	26600.19
540.11	26661.04
540.28	26607.21
540.44	26586.15
540.61	26630.62
540.78	26600.19
540.95	26639.98
541.12	26211.66
541.29	26953.61
541.46	26773.39
541.62	26693.81
541.79	26719.56
541.96	26382.52
542.13	26808.50
542.30	27080.00
542.47	26717.22
542.63	27152.55
542.80	27021.48
542.97	27339.80
543.14	27754.07
543.31	27386.61
543.48	27550.45
543.64	27395.97
543.81	27892.16
543.98	27438.10
544.15	27473.21
544.32	27487.25
544.48	28016.21
544.65	27775.14
544.82	27840.67
544.99	27304.69
545.16	27590.24
545.32	27307.03
545.49	27873.44
545.66	27964.72
545.83	27775.14
546.00	27999.83
546.16	27440.44
546.33	27707.26
546.50	27651.09
546.67	28135.58
546.83	27871.10
547.00	28140.26
547.17	27962.38
547.34	27964.72
547.50	28170.69
547.67	28074.73
547.84	28093.45
548.00	28168.35
548.17	28444.53
548.34	28472.62
548.51	28276.01
548.67	28196.43
548.84	28460.91
549.01	27901.53
549.18	28023.23
549.34	28393.04
549.51	27941.32
549.68	28231.54
549.84	28107.49
550.01	28594.32
550.18	28601.35
550.34	28634.11
550.51	28737.10
550.68	28652.84
550.84	28662.20
551.01	28435.17
551.18	28264.31
551.34	28554.54
551.51	28699.65
551.68	28746.46
551.84	29003.92
552.01	28772.21
552.18	28872.85
552.34	28776.89
552.51	28821.36
552.68	28465.60
552.84	28968.81
553.01	29057.75
553.18	28800.29
553.34	28886.89
553.51	28978.17
553.67	29511.81
553.84	29507.13
554.01	29575.01
554.17	29092.86
554.34	29378.40
554.51	28978.17
554.67	29233.29
554.84	29151.37
555.00	29338.62
555.17	29160.73
555.33	29305.85
555.50	29184.14
555.67	29371.38
555.83	29467.34
556.00	29287.12
556.16	29401.81
556.33	29516.50
556.50	29254.36
556.66	29378.40
556.83	29488.41
556.99	29806.72
557.16	29706.08
557.32	29811.40
557.49	29692.04
557.65	29511.81
557.82	29139.67
557.98	29474.37
558.15	29862.90
558.32	29523.52
558.48	29818.42
558.65	29769.27
558.81	29434.58
558.98	30061.84
559.14	29921.41
559.31	29619.48
559.47	29729.48
559.64	29788.00
559.80	30015.03
559.97	29598.41
560.13	29642.88
560.30	29858.21
560.46	30113.33
560.63	29998.65
560.79	29907.37
560.96	30188.23
561.12	29823.11
561.29	30089.93
561.45	30092.27
561.61	30157.80
561.78	29809.06
561.94	30167.16
562.11	30073.54
562.27	29977.58
562.44	30361.43
562.60	29764.59
562.77	30057.16
562.93	29991.62
563.10	30059.50
563.26	30040.78
563.42	30305.26
563.59	29977.58
563.75	30319.30
563.92	30211.64
564.08	30295.89
564.24	30391.86
564.41	30382.49
564.57	30302.92
564.74	30450.37
564.90	30534.63
565.07	30352.07
565.23	30401.22
565.39	30462.07
565.56	30813.15
565.72	30274.83
565.88	30321.64
566.05	30560.37
566.21	30139.08
566.38	30312.28
566.54	30345.05
566.70	30698.47
566.87	30534.63
567.03	30431.65
567.19	30806.13
567.36	31044.87
567.52	30471.43
567.68	30679.74
567.85	30118.01
568.01	30948.90
568.17	30649.32
568.34	30852.94
568.50	30719.53
568.66	30543.99
568.83	30855.28
568.99	30824.86
569.15	30321.64
569.32	30251.42
569.48	30663.36
569.64	30581.44
569.81	30796.77
569.97	30799.11
570.13	30801.45
570.30	30782.73
570.46	30466.75
570.62	30593.14
570.78	30897.41
570.95	30771.02
571.11	30785.07
571.27	30560.37
571.43	30691.44
571.60	30621.23
571.76	30675.06
571.92	30569.74
572.09	30960.61
572.25	31016.78
572.41	30829.54
572.57	31194.66
572.74	30955.93
572.90	31012.10
573.06	30888.05
573.22	30906.77
573.38	30962.95
573.55	30670.38
573.71	31115.08
573.87	31133.81
574.03	31096.36
574.20	31122.10
574.36	31033.16
574.52	30831.88
574.68	30412.92
574.84	30923.16
575.01	31007.42
575.17	31145.51
575.33	30885.71
575.49	31056.57
575.65	30986.35
575.82	30871.67
575.98	31157.21
576.14	31002.74
576.30	30984.01
576.46	31115.08
576.62	31023.80
576.79	31042.53
576.95	30951.24
577.11	31037.84
577.27	31356.16
577.43	31199.34
577.59	30836.56
577.75	30934.86
577.92	30628.25
578.08	30881.03
578.24	31222.75
578.40	31140.83
578.56	31222.75
578.72	31302.32
578.88	31353.82
579.04	31512.97
579.21	31173.60
579.37	31412.33
579.53	31332.75
579.69	30881.03
579.85	30665.70
580.01	31161.89
580.17	30850.60
580.33	31452.12
580.49	31377.22
580.65	31459.14
580.82	31016.78
580.98	31021.46
581.14	31000.40
581.30	31098.70
581.46	31213.38
581.62	30621.23
581.78	31070.61
581.94	31384.24
582.10	31110.40
582.26	31398.29
582.42	31023.80
582.58	31484.89
582.74	31246.15
582.90	31421.69
583.06	31480.21
583.22	30927.84
583.38	30911.46
583.54	31122.10
583.70	31182.96
583.86	31122.10
584.02	31187.64
584.18	31292.96
584.34	31267.22
584.50	31587.87
584.66	31007.42
584.82	31009.76
584.98	31140.83
585.14	31316.37
585.30	30611.87
585.46	31274.24
585.62	31098.70
585.78	31311.69
585.94	31342.11
586.10	31232.11
586.26	31498.93
586.42	31498.93
586.58	31248.49
586.74	31089.34
586.90	31358.50
587.06	31124.44
587.22	31166.57
587.38	31454.46
587.54	31239.13
587.70	31672.13
587.86	31353.82
588.02	31782.13
588.18	31669.79
588.34	31290.62
588.49	31564.46
588.65	31292.96
588.81	31213.38
588.97	31367.86
589.13	31400.63
589.29	31707.24
589.45	31597.23
589.61	31445.10
589.77	31494.25
589.93	31529.36
590.08	31718.94
590.24	31651.06
590.40	31709.58
590.56	31749.37
590.72	31154.87
590.88	31388.92
591.04	31723.62
591.20	31573.83
591.35	31967.04
591.51	31676.81
591.67	31835.97
591.83	32217.47
591.99	31583.19
592.15	31702.56
592.31	31793.84
592.46	31538.72
592.62	31501.27
592.78	31566.81
592.94	31641.70
593.10	31370.20
593.26	31559.78
593.41	31997.46
593.57	31676.81
593.73	31669.79
593.89	31536.38
594.05	31665.11
594.20	31456.80
594.36	31370.20
594.52	31718.94
594.68	31803.20
594.84	31576.17
594.99	32194.07
595.15	31580.85
595.31	32025.55
595.47	32229.18
595.62	31718.94
595.78	31997.46
595.94	31791.50
596.10	31967.04
596.25	31887.46
596.41	31477.86
596.57	31761.07
596.73	31576.17
596.88	31405.31
597.04	31597.23
597.20	31765.75
597.36	31847.67
597.51	32009.17
597.67	31711.92
597.83	31562.12
597.99	32067.68
598.14	31831.29
598.30	31983.42
598.46	31913.20
598.61	31718.94
598.77	31344.45
598.93	31938.95
599.09	32168.32
599.24	32334.50
599.40	32140.24
599.56	32252.58
599.71	32140.24
599.87	31922.57
600.03	31782.13
600.18	31857.03
600.34	31889.80
600.50	31758.73
600.65	31807.88
600.81	32048.96
600.97	32268.97
601.12	32018.53
601.28	31917.89
601.44	32030.23
601.59	31899.16
601.75	31948.31
601.91	32201.09
602.06	31543.40
602.22	31772.77
602.37	31615.96
602.53	32128.53
602.69	31997.46
602.84	32247.90
603.00	32283.01
603.16	32107.47
603.31	32184.71
603.47	31786.82
603.62	31667.45
603.78	31950.65
603.94	31524.68
604.09	31840.65
604.25	31662.77
604.40	31742.35
604.56	31674.47
604.71	32044.27
604.87	32034.91
605.03	31981.08
605.18	31885.12
605.34	31793.84
605.49	31615.96
605.65	31491.91
605.80	31934.27
605.96	31606.59
606.12	31608.93
606.27	31622.98
606.43	31693.19
606.58	31690.85
606.74	31983.42
606.89	32339.18
607.05	31721.28
607.20	32390.67
607.36	31821.92
607.51	31761.07
607.67	32020.87
607.82	31564.46
607.98	31622.98
608.13	31424.03
608.29	31438.08
608.44	31833.63
608.60	32011.51
608.75	32144.92
608.91	31660.43
609.06	31283.60
609.22	31754.05
609.37	31522.34
609.53	31503.61
609.68	31630.00
609.84	31725.96
609.99	31686.17
610.15	31332.75
610.30	31775.11
610.46	31740.00
610.61	31721.28
610.76	31583.19
610.92	32182.37
611.07	31276.58
611.23	31604.25
611.38	31587.87
611.54	31732.98
611.69	31292.96
611.84	31597.23
612.00	31154.87
612.15	31522.34
612.31	31512.97
612.46	31768.09
612.62	31779.79
612.77	31592.55
612.92	31585.53
613.08	31381.90
613.23	31962.36
613.39	31339.77
613.54	31814.90
613.69	31225.09
613.85	31325.73
614.00	31367.86
614.15	31686.17
614.31	31391.26
614.46	31674.47
614.62	31192.32
614.77	31564.46
614.92	31234.45
615.08	31182.96
615.23	30979.33
615.38	31587.87
615.54	31332.75
615.69	30934.86
615.84	31187.64
616.00	31026.14
616.15	31143.17
616.30	31253.17
616.46	30993.37
616.61	31379.56
616.76	31323.39
616.92	31393.61
617.07	31391.26
617.22	31002.74
617.37	30925.50
617.53	31089.34
617.68	31023.80
617.83	30780.39
617.99	31051.89
618.14	31222.75
618.29	30932.52
618.45	30962.95
618.60	30960.61
618.75	30749.96
618.90	30892.73
619.06	31072.95
619.21	31138.49
619.36	30824.86
619.51	30562.72
619.67	30590.80
619.82	30340.36
619.97	30803.79
620.12	30864.64
620.28	30558.03
620.43	30838.90
620.58	30859.96
620.73	30780.39
620.89	30986.35
621.04	30869.33
621.19	31007.42
621.34	30883.37
621.49	30562.72
621.65	30459.73
621.80	31072.95
621.95	30377.81
622.10	30457.39
622.25	30490.16
622.41	30623.57
622.56	30827.20
622.71	31033.16
622.86	30569.74
623.01	30391.86
623.16	30462.07
623.32	30534.63
623.47	30373.13
623.62	30188.23
623.77	30429.30
623.92	30621.23
624.07	30319.30
624.23	30424.62
624.38	30359.09
624.53	30389.52
624.68	30309.94
624.83	30831.88
624.98	30569.74
625.13	30249.08
625.29	30551.01
625.44	30195.25
625.59	29954.18
625.74	30394.20
625.89	29841.83
626.04	30099.29
626.19	29893.32
626.34	29848.85
626.49	29862.90
626.65	30099.29
626.80	29780.98
626.95	30134.40
627.10	30155.46
627.25	29930.77
627.40	29788.00
627.55	29844.17
627.70	29956.52
627.85	30010.35
628.00	30054.82
628.15	29680.33
628.30	29703.74
628.45	30075.88
628.60	29860.55
628.76	30040.78
628.91	29914.39
629.06	29862.90
629.21	30015.03
629.36	29713.10
629.51	29628.84
629.66	29659.27
629.81	29535.22
629.96	29546.92
630.11	29563.31
630.26	29865.24
630.41	29457.98
630.56	29383.09
630.71	29722.46
630.86	29699.06
631.01	29668.63
631.16	29785.66
631.31	29635.86
631.46	29200.52
631.61	29654.59
631.76	29270.74
631.91	29511.81
632.06	29165.42
632.21	29179.46
632.36	29465.00
632.51	29502.45
632.66	29371.38
632.81	29612.46
632.96	29069.45
633.10	29336.27
633.25	29509.47
633.40	29425.22
633.55	29113.92
633.70	29048.39
633.85	29120.95
634.00	28802.63
634.15	29015.62
634.30	28863.49
634.45	29001.58
634.60	28823.70
634.75	28989.88
634.90	28795.61
635.05	29362.02
635.19	29062.43
635.34	29413.51
635.49	28896.25
635.64	29146.69
635.79	28989.88
635.94	28687.95
636.09	29441.60
636.24	28959.45
636.39	28884.55
636.53	28868.17
636.68	28713.69
636.83	28779.23
636.98	28795.61
637.13	28835.40
637.28	28964.13
637.43	28821.36
637.57	28987.53
637.72	28673.90
637.87	28929.02
638.02	29127.97
638.17	28919.66
638.32	28411.76
638.46	28460.91
638.61	28526.45
638.76	28285.37
638.91	28346.23
639.06	28374.31
639.20	28458.57
639.35	28514.75
639.50	28709.01
639.65	28762.84
639.80	28554.54
639.94	28287.71
640.09	28589.64
640.24	28397.72
640.39	28032.60
640.54	28320.48
640.68	28374.31
640.83	28348.57
640.98	28161.33
641.13	28046.64
641.27	28500.70
641.42	28379.00
641.57	28521.77
641.72	28386.02
641.86	27718.96
642.01	27770.46
642.16	28100.47
642.31	28194.09
642.45	27976.42
642.60	27770.46
642.75	27824.29
642.90	28088.77
643.04	27962.38
643.19	28114.52
643.34	28009.19
643.48	27910.89
643.63	28388.36
643.78	28006.85
643.93	28163.67
644.07	28065.36
644.22	28119.20
644.37	28233.88
644.51	27962.38
644.66	27854.72
644.81	27871.10
644.95	27782.16
645.10	27812.59
645.25	27903.87
645.39	27903.87
645.54	27917.91
645.69	27601.94
645.83	27754.07
645.98	27725.99
646.13	27938.97
646.27	27765.78
646.42	27599.60
646.57	27601.94
646.71	27555.13
646.86	27538.74
647.00	27711.94
647.15	27491.93
647.30	27648.75
647.44	27552.79
647.59	27618.32
647.74	27627.68
647.88	27239.15
648.03	27615.98
648.17	27754.07
648.32	27779.82
648.47	27894.50
648.61	27248.52
648.76	27669.81
648.90	27601.94
649.05	27292.99
649.20	27145.53
649.34	27304.69
649.49	27407.67
649.63	27009.78
649.78	27117.45
649.92	27070.64
650.07	27335.12
650.21	26995.74
650.36	27080.00
650.51	27096.38
650.65	27452.14
650.80	27494.27
650.94	26988.72
651.09	27225.11
651.23	26691.47
651.38	27014.46
651.52	27051.91
651.67	27325.75
651.81	27101.06
651.96	26995.74
652.10	26925.52
652.25	27044.89
652.39	26906.80
652.54	26986.38
652.68	27337.46
652.83	27147.87
652.97	27208.73
653.12	26932.54
653.26	26806.16
653.41	26827.22
653.55	26974.67
653.70	26691.47
653.84	26892.76
653.99	26600.19
654.13	26822.54
654.27	26878.71
654.42	26913.82
654.56	26693.81
654.71	26948.93
654.85	26902.12
655.00	26539.33
655.14	26689.13
655.29	26829.56
655.43	26508.91
655.57	26813.18
655.72	26764.03
655.86	26703.17
656.01	26824.88
656.15	26291.24
656.30	26527.63
656.44	26548.70
656.58	26398.90
656.73	26480.82
656.87	26459.76
657.01	26483.16
657.16	26438.69
657.30	26672.74
657.45	26462.10
657.59	26429.33
657.73	26192.94
657.88	26401.24
658.02	26029.10
658.16	26389.54
658.31	26361.45
658.45	26043.14
658.60	25804.41
658.74	26120.38
658.88	26256.13
659.03	26096.97
659.17	26328.69
659.31	26108.68
659.46	26120.38
659.60	26190.59
659.74	25755.26
659.89	25766.96
660.03	25804.41
660.17	25891.01
660.32	25898.03
660.46	26106.34
660.60	25568.01
660.74	25862.92
660.89	25659.29
661.03	25603.12
661.17	25757.60
661.32	25778.66
661.46	25944.84
661.60	25853.56
661.74	25970.58
661.89	25858.24
662.03	25645.25
662.17	25689.72
662.31	25340.98
662.46	25776.32
662.60	25329.28
662.74	25373.75
662.88	25238.00
663.03	25270.76
663.17	25025.01
663.31	24924.36
663.45	24903.30
663.60	25146.72
663.74	24987.56
663.88	25233.32
664.02	25132.67
664.17	25235.66
664.31	24933.73
664.45	24865.85
664.59	25207.57
664.73	25439.28
664.88	24884.58
665.02	24748.82
665.16	24617.75
665.30	24299.44
665.44	24964.15
665.59	24608.39
665.73	24812.02
665.87	24535.84
666.01	24559.24
666.15	24355.61
666.29	24779.25
666.44	24732.44
666.58	24397.74
666.72	24500.73
666.86	24423.49
667.00	24493.71
667.14	24404.77
667.28	24402.43
667.43	24350.93
667.57	24334.55
667.71	24280.72
667.85	23971.77
667.99	23896.87
668.13	24140.29
668.27	24217.52
668.41	24137.94
668.56	24182.42
668.70	24025.60
668.84	24098.16
668.98	23948.36
669.12	23892.19
669.26	24095.82
669.40	23927.30
669.54	23704.95
669.68	23770.48
669.82	23721.33
669.96	23309.40
670.10	23449.83
670.25	23524.72
670.39	23482.59
670.53	23297.69
670.67	23276.63
670.81	23714.31
670.95	23330.46
671.09	23332.80
671.23	23672.18
671.37	23520.04
671.51	23496.64
671.65	23487.28
671.79	23475.57
671.93	23271.95
672.07	23070.66
672.21	23180.67
672.35	22705.54
672.49	22431.69
672.63	23241.52
672.77	22654.05
672.91	22487.87
673.05	23105.77
673.19	22923.21
673.33	22644.68
673.47	22663.41
673.61	22654.05
673.75	22616.60
673.89	22665.75
674.03	22583.83
674.17	22080.61
674.31	22649.36
674.45	22267.86
674.59	22164.87
674.73	22272.54
674.87	22314.67
675.01	22178.92
675.15	22036.14
675.29	22279.56
675.43	21769.32
675.56	21862.94
675.70	21916.78
675.84	21928.48
675.98	21387.82
676.12	21713.15
676.26	22068.91
676.40	21944.86
676.54	21975.29
676.68	21586.76
676.82	21336.32
676.96	21462.71
677.10	21490.80
677.23	21317.60
677.37	21261.43
677.51	21048.44
677.65	21088.23
677.79	20854.17
677.93	20823.75
678.07	20816.72
678.21	21113.97
678.34	20835.45
678.48	20851.83
678.62	20776.94
678.76	20629.48
678.90	20388.41
679.04	20790.98
679.18	20727.78
679.31	20400.11
679.45	20269.04
679.59	19995.20
679.73	20121.59
679.87	20173.08
680.00	20133.29
680.14	20262.02
680.28	19854.76
680.42	19868.81
680.56	20196.48
680.70	19934.34
680.83	20086.48
680.97	20203.50
681.11	19910.94
681.25	19782.21
681.39	19800.93
681.52	19517.73
681.66	19274.31
681.80	19204.10
681.94	19400.70
682.07	19463.90
682.21	19332.82
682.35	19243.88
682.49	18948.98
682.62	18881.10
682.76	18761.73
682.90	19056.64
683.04	18841.31
683.17	19073.03
683.31	18787.48
683.45	19108.13
683.59	18616.62
683.72	18728.97
683.86	18691.52
684.00	18883.44
684.13	18272.56
684.27	18328.74
684.41	18410.65
684.55	18157.88
684.68	18015.10
684.82	18010.42
684.96	17921.48
685.09	18181.28
685.23	18118.09
685.37	18143.83
685.50	18082.98
685.64	18200.01
685.78	17799.77
685.91	18211.71
686.05	17949.57
686.19	18104.04
686.32	17717.86
686.46	17610.19
686.60	17165.49
686.73	17448.69
686.87	17214.64
687.01	17092.93
687.14	17137.40
687.28	17029.74
687.42	17060.16
687.55	17263.79
687.69	17118.68
687.82	17294.22
687.96	16943.14
688.10	16945.48
688.23	16947.82
688.37	16917.39
688.50	16821.43
688.64	16769.94
688.78	16528.86
688.91	16730.15
689.05	16287.79
689.18	16479.71
689.32	16032.67
689.46	16219.91
689.59	16266.72
689.73	15850.11
689.86	16128.63
690.00	16327.58
690.13	16063.10
690.27	15676.91
690.41	16070.12
690.54	16044.37
690.68	15812.66
690.81	15934.37
690.95	16053.73
691.08	15637.12
691.22	15758.83
691.35	15407.75
691.49	15597.33
691.62	15587.97
691.76	15634.78
691.89	15222.84
692.03	15183.06
692.16	15103.48
692.30	15215.82
692.43	14803.89
692.57	14792.19
692.70	14941.98
692.84	14881.13
692.97	14874.10
693.11	15035.60
693.24	14869.42
693.38	14757.08
693.51	14977.09
693.65	14710.27
693.78	14618.99
693.92	14839.00
694.05	14527.71
694.19	14595.58
694.32	14492.60
694.45	14443.45
694.59	14239.82
694.72	13970.66
694.86	14019.81
694.99	13736.60
695.13	13970.66
695.26	13640.64
695.39	13996.40
695.53	13956.61
695.66	13701.50
695.80	13965.98
695.93	13802.14
696.07	13706.18
696.20	13722.56
696.33	13647.66
696.47	13486.17
696.60	13577.45
696.73	13308.29
696.87	13488.51
697.00	13109.34
697.14	13022.74
697.27	13366.80
697.40	13392.55
697.54	13191.26
697.67	12791.03
697.80	12989.97
697.94	12833.16
698.07	12945.50
698.21	12620.17
698.34	12898.69
698.47	12730.17
698.61	12858.90
698.74	12872.95
698.87	12711.45
699.01	12685.70
699.14	12561.66
699.27	12601.44
699.40	12353.35
699.54	12121.63
699.67	12170.79
699.80	12348.67
699.94	12203.55
700.07	12049.08
700.20	11936.73
700.34	11747.15
700.47	11962.48
700.60	12049.08
700.73	11772.89
700.87	11957.80
701.00	11789.28
701.13	11733.11
701.26	11838.43
701.40	12035.03
701.53	11482.67
701.66	11770.55
701.79	11541.18
701.93	11197.12
702.06	11255.64
702.19	11131.59
702.32	11351.60
702.46	11169.04
702.59	11075.42
702.72	11199.46
702.85	11091.80
702.99	11098.82
703.12	10986.47
703.25	10867.11
703.38	11037.97
703.51	10885.83
703.65	10750.08
703.78	10822.64
703.91	10644.76
704.04	10703.27
704.17	10846.04
704.31	10471.56
704.44	10352.19
704.57	10286.65
704.70	10293.68
704.83	10319.42
704.96	10258.57
705.10	10157.92
705.23	10387.30
>>>>>End Processed Spectral Data<<<<<
