SpectraSuite Data File
++++++++++++++++++++++++++++++++++++
Date: Fri Oct 18 13:58:16 GMT-05:00 2013
User: bianchi
Dark Spectrum Present: No
Reference Spectrum Present: No
Number of Sampled Component Spectra: 1
Spectrometers: USB2+H05261
Integration Time (usec): 50000 (USB2+H05261)
Spectra Averaged: 1 (USB2+H05261)
Boxcar Smoothing: 0 (USB2+H05261)
Correct for Electrical Dark: No (USB2+H05261)
Strobe/Lamp Enabled: No (USB2+H05261)
Correct for Detector Non-linearity: No (USB2+H05261)
Correct for Stray Light: No (USB2+H05261)
Number of Pixels in Processed Spectrum: 2048
>>>>>Begin Processed Spectral Data<<<<<
365.73	0.00
365.92	0.00
366.12	0.00
366.32	0.00
366.52	0.00
366.72	0.00
366.91	0.00
367.11	0.00
367.31	0.00
367.51	0.00
367.70	0.00
367.90	0.00
368.10	0.00
368.30	0.00
368.49	0.00
368.69	0.00
368.89	0.00
369.09	0.00
369.28	0.00
369.48	0.00
369.68	0.00
369.87	0.00
370.07	0.00
370.27	0.00
370.47	0.00
370.66	114.69
370.86	65.54
371.06	112.35
371.25	95.96
371.45	173.20
371.65	98.30
371.84	163.84
372.04	124.05
372.24	154.48
372.44	170.86
372.63	191.92
372.83	210.65
373.03	217.67
373.22	212.99
373.42	191.92
373.62	231.71
373.81	156.82
374.01	294.91
374.21	306.61
374.40	238.73
374.60	184.90
374.79	210.65
374.99	208.31
375.19	229.37
375.38	262.14
375.58	215.33
375.78	367.46
375.97	283.20
376.17	269.16
376.37	271.50
376.56	196.60
376.76	220.01
376.95	262.14
377.15	236.39
377.35	269.16
377.54	276.18
377.74	184.90
377.93	299.59
378.13	397.89
378.33	337.04
378.52	306.61
378.72	285.55
378.91	250.44
379.11	273.84
379.31	301.93
379.50	191.92
379.70	313.63
379.89	308.95
380.09	292.57
380.28	220.01
380.48	325.33
380.68	210.65
380.87	290.23
381.07	252.78
381.26	290.23
381.46	404.91
381.65	337.04
381.85	262.14
382.04	360.44
382.24	278.52
382.43	308.95
382.63	320.65
382.83	346.40
383.02	344.06
383.22	322.99
383.41	276.18
383.61	330.02
383.80	381.51
384.00	297.25
384.19	315.97
384.39	433.00
384.58	358.10
384.78	428.32
384.97	444.70
385.17	437.68
385.36	376.83
385.56	344.06
385.75	332.36
385.95	367.46
386.14	411.93
386.34	358.10
386.53	414.27
386.72	411.93
386.92	411.93
387.11	376.83
387.31	440.02
387.50	449.38
387.70	435.34
387.89	451.72
388.09	458.74
388.28	482.15
388.48	454.06
388.67	456.40
388.86	402.57
389.06	456.40
389.25	456.40
389.45	428.32
389.64	461.09
389.84	507.90
390.03	533.64
390.22	470.45
390.42	456.40
390.61	433.00
390.81	449.38
391.00	465.77
391.19	561.73
391.39	435.34
391.58	557.05
391.78	468.11
391.97	510.24
392.16	540.66
392.36	585.13
392.55	519.60
392.75	498.53
392.94	503.22
393.13	496.19
393.33	575.77
393.52	568.75
393.71	681.10
393.91	636.63
394.10	517.26
394.29	580.45
394.49	552.37
394.68	517.26
394.88	575.77
395.07	606.20
395.26	561.73
395.46	655.35
395.65	613.22
395.84	725.57
396.04	615.56
396.23	557.05
396.42	610.88
396.62	716.20
396.81	727.91
397.00	685.78
397.19	676.41
397.39	671.73
397.58	645.99
397.77	690.46
397.97	730.25
398.16	732.59
398.35	739.61
398.55	620.24
398.74	727.91
398.93	727.91
399.12	692.80
399.32	699.82
399.51	730.25
399.70	758.33
399.90	812.17
400.09	777.06
400.28	760.67
400.47	800.46
400.67	840.25
400.86	664.71
401.05	802.80
401.24	844.93
401.44	821.53
401.63	793.44
401.82	840.25
402.01	781.74
402.21	875.36
402.40	819.19
402.59	863.66
402.78	821.53
402.97	851.96
403.17	940.90
403.36	896.43
403.55	851.96
403.74	842.59
403.93	856.64
404.13	896.43
404.32	884.72
404.51	926.85
404.70	961.96
404.89	936.21
405.09	964.30
405.28	985.37
405.47	912.81
405.66	959.62
405.85	945.58
406.05	957.28
406.24	924.51
406.43	931.53
406.62	1025.15
406.81	1039.20
407.00	1025.15
407.20	1036.86
407.39	994.73
407.58	978.34
407.77	1046.22
407.96	1039.20
408.15	1062.60
408.34	1083.67
408.54	1050.90
408.73	1039.20
408.92	1186.65
409.11	1029.84
409.30	1093.03
409.49	1062.60
409.68	1156.22
409.87	1102.39
410.07	1135.16
410.26	1170.27
410.45	1191.33
410.64	1156.22
410.83	1270.91
411.02	1179.63
411.21	1259.21
411.40	1231.12
411.59	1306.02
411.78	1212.40
411.98	1284.95
412.17	1334.11
412.36	1366.87
412.55	1336.45
412.74	1289.64
412.93	1306.02
413.12	1317.72
413.31	1434.75
413.50	1327.08
413.69	1493.26
413.88	1451.13
414.07	1439.43
414.26	1483.90
414.45	1523.69
414.64	1397.30
414.83	1458.15
415.02	1453.47
415.22	1462.83
415.41	1547.09
415.60	1577.52
415.79	1526.03
415.98	1544.75
416.17	1544.75
416.36	1607.95
416.55	1570.50
416.74	1680.50
416.93	1610.29
417.12	1753.06
417.31	1621.99
417.50	1722.63
417.69	1694.55
417.88	1710.93
418.07	1774.13
418.26	1727.32
418.45	1664.12
418.64	1842.00
418.83	1736.68
419.02	1755.40
419.21	1799.87
419.39	1853.70
419.58	1820.94
419.77	1776.47
419.96	1830.30
420.15	1895.83
420.34	1895.83
420.53	1846.68
420.72	1839.66
420.91	1898.17
421.10	1849.02
421.29	1928.60
421.48	1928.60
421.67	1902.86
421.86	1944.99
422.05	1919.24
422.24	1919.24
422.43	1970.73
422.61	1940.30
422.80	2059.67
422.99	1959.03
423.18	2125.21
423.37	2031.58
423.56	1975.41
423.75	1959.03
423.94	2050.31
424.13	1741.36
424.32	2033.93
424.50	2036.27
424.69	2139.25
424.88	2017.54
425.07	2001.16
425.26	1949.67
425.45	2073.71
425.64	1966.05
425.83	2036.27
426.01	2143.93
426.20	1996.48
426.39	2054.99
426.58	2085.42
426.77	2003.50
426.96	2073.71
427.15	2024.56
427.33	2127.55
427.52	2106.48
427.71	2127.55
427.90	2127.55
428.09	2160.31
428.28	2139.25
428.46	2202.44
428.65	2115.84
428.84	2186.06
429.03	2340.54
429.22	2186.06
429.40	2188.40
429.59	2275.00
429.78	2052.65
429.97	2069.03
430.16	2122.87
430.34	2258.62
430.53	2394.37
430.72	2260.96
430.91	2291.38
431.10	2258.62
431.28	2356.92
431.47	2373.30
431.66	2436.50
431.85	2300.75
432.03	2396.71
432.22	2434.16
432.41	2464.58
432.60	2424.80
432.79	2518.42
432.97	2424.80
433.16	2478.63
433.35	2497.35
433.54	2399.05
433.72	2429.48
433.91	2499.69
434.10	2588.63
434.28	2492.67
434.47	2609.70
434.66	2574.59
434.85	2677.57
435.03	2544.16
435.22	2553.52
435.41	2785.24
435.59	2647.15
435.78	2583.95
435.97	2560.55
436.16	2630.76
436.34	2724.38
436.53	2654.17
436.72	2785.24
436.90	2626.08
437.09	2712.68
437.28	2621.40
437.46	2719.70
437.65	2813.32
437.84	2757.15
438.02	2672.89
438.21	2843.75
438.40	2747.79
438.58	2853.11
438.77	2773.53
438.96	2878.86
439.14	3063.76
439.33	2972.48
439.52	3009.93
439.70	2899.92
439.89	2981.84
440.08	2977.16
440.26	3049.72
440.45	3021.63
440.63	3035.67
440.82	3061.42
441.01	3145.68
441.19	3180.79
441.38	3180.79
441.57	3251.00
441.75	3269.73
441.94	3199.51
442.12	3152.70
442.31	3358.67
442.50	3269.73
442.68	3316.54
442.87	3288.45
443.05	3208.87
443.24	3391.44
443.43	3342.28
443.61	3330.58
443.80	3330.58
443.98	3295.47
444.17	3152.70
444.35	3508.46
444.54	3529.53
444.73	3407.82
444.91	3496.76
445.10	3382.07
445.28	3375.05
445.47	3400.80
445.65	3496.76
445.84	3461.65
446.02	3410.16
446.21	3461.65
446.39	3478.04
446.58	3503.78
446.77	3386.76
446.95	3463.99
447.14	3597.40
447.32	3595.06
447.51	3452.29
447.69	3473.36
447.88	3637.19
448.06	3510.80
448.25	3384.41
448.43	3426.54
448.62	3440.59
448.80	3562.30
448.99	3707.41
449.17	3620.81
449.36	3531.87
449.54	3651.24
449.73	3620.81
449.91	3761.24
450.10	3742.52
450.28	3747.20
450.46	3882.95
450.65	3646.55
450.83	3789.33
451.02	3681.66
451.20	3761.24
451.39	3749.54
451.57	3695.71
451.76	3831.46
451.94	3845.50
452.13	3819.75
452.31	3805.71
452.49	3667.62
452.68	3733.15
452.86	3983.59
453.05	3749.54
453.23	4007.00
453.42	3864.22
453.60	3878.27
453.78	3950.82
453.97	3946.14
454.15	3967.21
454.34	4053.81
454.52	3974.23
454.70	3880.61
454.89	4002.32
455.07	3992.95
455.26	4128.70
455.44	4037.42
455.62	4152.11
455.81	4119.34
455.99	4060.83
456.17	4058.49
456.36	4198.92
456.54	4191.90
456.73	4217.65
456.91	4285.52
457.09	4322.97
457.28	4353.40
457.46	4166.15
457.64	4393.19
457.83	4313.61
458.01	4159.13
458.19	4315.95
458.38	4259.78
458.56	4308.93
458.74	4353.40
458.93	4255.09
459.11	4486.81
459.29	4414.25
459.48	4503.19
459.66	4447.02
459.84	4683.41
460.03	4507.87
460.21	4514.89
460.39	4505.53
460.57	4620.22
460.76	4458.72
460.94	4601.49
461.12	4608.51
461.31	4643.62
461.49	4641.28
461.67	4585.11
461.85	4617.88
462.04	4652.98
462.22	4947.89
462.40	4819.16
462.59	4667.03
462.77	4882.36
462.95	4767.67
463.13	4943.21
463.32	4795.76
463.50	4786.40
463.68	4861.29
463.86	4954.91
464.05	4716.18
464.23	4755.97
464.41	4990.02
464.59	4744.27
464.78	4938.53
464.96	4861.29
465.14	4828.53
465.32	4975.98
465.50	4929.17
465.69	5097.69
465.87	5053.22
466.05	5041.51
466.23	4987.68
466.41	4945.55
466.60	5224.08
466.78	4975.98
466.96	4994.70
467.14	4961.94
467.32	5179.61
467.51	5313.02
467.69	5039.17
467.87	5071.94
468.05	5497.92
468.23	5100.03
468.41	4947.89
468.60	5191.31
468.78	5193.65
468.96	5256.84
469.14	5467.49
469.32	5259.18
469.50	5224.08
469.69	5383.23
469.87	5509.62
470.05	5397.28
470.23	5310.68
470.41	5509.62
470.59	5476.85
470.77	5425.36
470.95	5504.94
471.14	5446.43
471.32	5558.77
471.50	5486.22
471.68	5465.15
471.86	5659.42
472.04	5453.45
472.22	5650.05
472.40	5678.14
472.58	5647.71
472.77	5802.19
472.95	5888.79
473.13	6066.67
473.31	5914.53
473.49	5839.64
473.67	5818.57
473.85	5900.49
474.03	6033.90
474.21	5994.11
474.39	5980.07
474.57	5944.96
474.75	6005.81
474.93	6157.95
475.12	6010.50
475.30	6120.50
475.48	6022.20
475.66	6291.36
475.84	6300.72
476.02	6246.89
476.20	6431.79
476.38	6377.96
476.56	6640.10
476.74	6700.95
476.92	6663.51
477.10	6583.93
477.28	6693.93
477.46	6656.48
477.64	6651.80
477.82	6633.08
478.00	6853.09
478.18	6923.30
478.36	6991.18
478.54	7133.95
478.72	7005.22
478.90	7000.54
479.08	7084.80
479.26	7164.38
479.44	7061.40
479.62	7316.51
479.80	7417.16
479.98	7372.69
480.16	7442.90
480.34	7550.57
480.52	7480.35
480.70	7669.94
480.88	7489.71
481.06	7679.30
481.24	7597.38
481.41	7803.35
481.59	7803.35
481.77	8105.28
481.95	8086.55
482.13	7981.23
482.31	8072.51
482.49	8149.75
482.67	8212.94
482.85	8264.43
483.03	8456.36
483.21	8503.17
483.39	8489.12
483.57	8645.94
483.74	8610.83
483.92	8800.41
484.10	8702.11
484.28	9107.02
484.46	9001.70
484.64	9076.60
484.82	8931.48
485.00	8985.32
485.18	9305.97
485.35	9280.22
485.53	9310.65
485.71	9324.69
485.89	9598.54
486.07	9717.90
486.25	9373.85
486.43	9743.65
486.61	9715.56
486.78	10012.81
486.96	9797.48
487.14	10092.39
487.32	9940.26
487.50	9940.26
487.68	10099.41
487.85	10317.08
488.03	10544.11
488.21	10565.18
488.39	10497.30
488.57	10637.73
488.75	10614.33
488.92	10658.80
489.10	10691.57
489.28	10934.98
489.46	10988.82
489.64	11037.97
489.81	11183.08
489.99	11215.85
490.17	11435.86
490.35	11454.58
490.53	11489.69
490.70	11559.91
490.88	11566.93
491.06	11754.17
491.24	11674.59
491.41	11751.83
491.59	11920.35
491.77	11990.56
491.95	12107.59
492.13	12166.10
492.30	12266.75
492.48	12346.33
492.66	12215.26
492.84	12116.95
493.01	12418.88
493.19	12334.62
493.37	12758.26
493.54	12676.34
493.72	12886.99
493.90	12884.65
494.08	12982.95
494.25	13174.88
494.43	13252.11
494.61	13158.49
494.79	13284.88
494.96	13261.48
495.14	13284.88
495.32	13448.72
495.49	13507.23
495.67	13511.91
495.85	13523.62
496.02	13891.08
496.20	14003.43
496.38	13708.52
496.55	13839.59
496.73	14141.52
496.91	14258.54
497.09	14122.79
497.26	14408.34
497.44	14373.23
497.62	14363.87
497.79	14537.07
497.97	14611.96
498.14	14855.38
498.32	14883.47
498.50	14860.06
498.67	14834.32
498.85	14834.32
499.03	15169.01
499.20	15274.34
499.38	15054.33
499.56	15487.32
499.73	15274.34
499.91	15433.49
500.08	15393.70
500.26	15396.04
500.44	15606.69
500.61	15690.95
500.79	15510.73
500.97	15482.64
501.14	15747.12
501.32	16025.65
501.49	15976.50
501.67	15637.12
501.84	15974.16
502.02	15950.75
502.20	16152.04
502.37	16355.66
502.55	16081.82
502.72	16046.71
502.90	16259.70
503.07	16152.04
503.25	16341.62
503.43	16468.01
503.60	16521.84
503.78	16493.76
503.95	16732.49
504.13	16606.10
504.30	16418.86
504.48	16538.23
504.65	16645.89
504.83	17219.32
505.01	16620.14
505.18	16938.46
505.36	17296.56
505.53	16695.04
505.71	16912.71
505.88	17083.57
506.06	16821.43
506.23	17170.17
506.41	17507.21
506.58	17202.94
506.76	17062.51
506.93	17418.27
507.11	17397.20
507.28	17640.62
507.46	17668.70
507.63	17830.20
507.81	17958.93
507.98	17671.04
508.16	17727.22
508.33	17586.79
508.50	17724.88
508.68	17818.50
508.85	17982.34
509.03	18146.17
509.20	18249.16
509.38	18141.49
509.55	18253.84
509.73	18398.95
509.90	18115.75
510.08	18356.82
510.25	18225.75
510.42	18286.61
510.60	18677.48
510.77	18757.05
510.95	18586.19
511.12	18827.27
511.30	18918.55
511.47	19101.11
511.64	18974.72
511.82	19033.24
511.99	18878.76
512.17	19035.58
512.34	19044.94
512.51	19033.24
512.69	18995.79
512.86	19377.30
513.04	19323.46
513.21	19559.86
513.38	19470.92
513.56	19627.73
513.73	19410.06
513.90	19548.15
514.08	19290.70
514.25	19494.32
514.43	19829.02
514.60	19700.29
514.77	19569.22
514.95	19854.76
515.12	19723.69
515.29	19873.49
515.47	19903.92
515.64	20072.43
515.81	20262.02
515.99	20327.55
516.16	20156.69
516.33	20332.23
516.51	20596.71
516.68	20304.15
516.85	19999.88
517.03	20217.55
517.20	20688.00
517.37	20402.45
517.54	20835.45
517.72	20739.49
517.89	20538.20
518.06	20676.29
518.24	20437.56
518.41	20320.53
518.58	20982.90
518.75	20816.72
518.93	21057.80
519.10	20840.13
519.27	20877.58
519.45	21135.04
519.62	21186.53
519.79	21085.89
519.96	21153.76
520.14	21212.28
520.31	21186.53
520.48	21205.25
520.65	21373.77
520.83	21355.05
521.00	21214.62
521.17	21542.29
521.34	20968.86
521.52	21448.67
521.69	21451.01
521.86	21509.52
522.03	21792.73
522.20	21619.53
522.38	21656.98
522.55	21731.87
522.72	21766.98
522.89	22043.17
523.07	22309.99
523.24	21970.61
523.41	22178.92
523.58	22050.19
523.75	22251.47
523.92	21652.30
524.10	22181.26
524.27	22295.94
524.44	22232.75
524.61	22326.37
524.78	22476.16
524.96	22267.86
525.13	22174.24
525.30	22419.99
525.47	22450.42
525.64	22417.65
525.81	22607.23
525.98	22757.03
526.16	22703.20
526.33	22778.09
526.50	23089.38
526.67	22719.58
526.84	22855.33
527.01	22583.83
527.18	22794.48
527.36	23005.13
527.53	23269.61
527.70	23442.81
527.87	23442.81
528.04	23014.49
528.21	23133.86
528.38	23129.17
528.55	23377.27
528.72	23115.13
528.89	23613.66
529.07	23410.04
529.24	23285.99
529.41	23480.25
529.58	23620.69
529.75	23452.17
529.92	23648.77
530.09	23683.88
530.26	23730.69
530.43	23648.77
530.60	23379.61
530.77	23805.59
530.94	24027.94
531.11	23730.69
531.28	23840.70
531.46	23304.71
531.63	23704.95
531.80	23934.32
531.97	23976.45
532.14	23885.17
532.31	24159.01
532.48	24056.03
532.65	24156.67
532.82	23929.64
532.99	24009.22
533.16	24067.73
533.33	24435.19
533.50	24601.37
533.67	24477.32
533.84	24114.54
534.01	24540.52
534.18	24477.32
534.35	24650.52
534.52	24416.47
534.69	24577.97
534.86	24702.01
535.03	24208.16
535.20	24720.74
535.37	24739.46
535.54	24774.57
535.71	24702.01
535.88	24823.72
536.05	24577.97
536.22	25053.09
536.38	25118.63
536.55	24959.47
536.72	25130.33
536.89	25015.65
537.06	24861.17
537.23	24964.15
537.40	24779.25
537.57	25174.80
537.74	25156.08
537.91	25366.73
538.08	25076.50
538.25	25027.35
538.42	25165.44
538.59	25214.59
538.75	24943.09
538.92	25137.35
539.09	25422.90
539.26	25380.77
539.43	25479.07
539.60	25844.20
539.77	25717.81
539.94	25752.91
540.11	25546.95
540.28	25958.88
540.44	25661.63
540.61	25530.56
540.78	25467.37
540.95	25247.36
541.12	25495.46
541.29	25462.69
541.46	25961.22
541.62	25752.91
541.79	25743.55
541.96	25832.49
542.13	25881.64
542.30	25600.78
542.47	26080.59
542.63	25862.92
542.80	26230.38
542.97	26129.74
543.14	26616.57
543.31	26160.17
543.48	26417.63
543.64	26253.79
543.81	26375.50
543.98	26541.68
544.15	26611.89
544.32	26551.04
544.48	26520.61
544.65	26567.42
544.82	26639.98
544.99	26169.53
545.16	26513.59
545.32	26422.31
545.49	26602.53
545.66	26749.98
545.83	27084.68
546.00	27201.71
546.16	26710.19
546.33	26684.45
546.50	26469.12
546.67	26721.90
546.83	26242.09
547.00	26885.73
547.17	26934.88
547.34	27119.79
547.50	26972.33
547.67	27056.59
547.84	27016.80
548.00	27496.61
548.17	27269.58
548.34	27260.22
548.51	27475.55
548.67	26998.08
548.84	27246.18
549.01	27199.37
549.18	26932.54
549.34	27192.34
549.51	27424.06
549.68	26986.38
549.84	27496.61
550.01	27590.24
550.18	27115.11
550.34	27527.04
550.51	27929.61
550.68	27672.15
550.84	27470.87
551.01	27658.11
551.18	27536.40
551.34	27552.79
551.51	27243.84
551.68	27728.33
551.84	27597.26
552.01	27985.79
552.18	27630.02
552.34	27857.06
552.51	27674.49
552.68	27292.99
552.84	27948.34
553.01	27751.73
553.18	27620.66
553.34	28166.01
553.51	28060.68
553.67	27974.08
553.84	28627.09
554.01	27885.14
554.17	28114.52
554.34	28285.37
554.51	27831.31
554.67	28205.80
554.84	27765.78
555.00	28072.39
555.17	28048.98
555.33	28465.60
555.50	28072.39
555.67	28233.88
555.83	28229.20
556.00	27999.83
556.16	28486.66
556.33	28013.87
556.50	28112.17
556.66	28250.27
556.83	28203.46
556.99	28299.42
557.16	28231.54
557.32	28219.84
557.49	28126.22
557.65	28114.52
557.82	28355.59
557.98	28503.04
558.15	28327.50
558.32	28858.81
558.48	28474.96
558.65	28797.95
558.81	28315.80
558.98	28926.68
559.14	28746.46
559.31	28540.49
559.47	28790.93
559.64	28643.48
559.80	28821.36
559.97	28959.45
560.13	28624.75
560.30	28507.72
560.46	29022.64
560.63	28725.39
560.79	28746.46
560.96	28690.29
561.12	28531.13
561.29	28655.18
561.45	28954.77
561.61	29109.24
561.78	28662.20
561.94	28886.89
562.11	29191.16
562.27	28807.31
562.44	28907.96
562.60	28657.52
562.77	29083.50
562.93	28912.64
563.10	29507.13
563.26	28865.83
563.42	29263.72
563.59	28900.94
563.75	28936.04
563.92	28924.34
564.08	28645.82
564.24	28858.81
564.41	28830.72
564.57	29104.56
564.74	29287.12
564.90	29357.34
565.07	29120.95
565.23	29188.82
565.39	28952.43
565.56	29343.30
565.72	29198.18
565.88	29418.19
566.05	28896.25
566.21	28826.04
566.38	29270.74
566.54	29158.39
566.70	29549.26
566.87	29448.62
567.03	29167.76
567.19	29427.56
567.36	29472.03
567.52	28985.19
567.68	29017.96
567.85	29198.18
568.01	29305.85
568.17	29118.60
568.34	29729.48
568.50	29408.83
568.66	29481.39
568.83	29493.09
568.99	29738.85
569.15	29542.24
569.32	29177.12
569.48	29158.39
569.64	29392.45
569.81	29652.25
569.97	29352.66
570.13	29350.32
570.30	29479.05
570.46	29549.26
570.62	29516.50
570.78	29474.37
570.95	29212.23
571.11	29472.03
571.27	29411.17
571.43	29322.23
571.60	29656.93
571.76	29759.91
571.92	29537.56
572.09	29567.99
572.25	29699.06
572.41	29743.53
572.57	29589.05
572.74	29710.76
572.90	29565.65
573.06	29551.60
573.22	28823.70
573.38	29460.32
573.55	29699.06
573.71	29944.81
573.87	29560.97
574.03	29783.32
574.20	29465.00
574.36	29256.70
574.52	29186.48
574.68	29376.06
574.84	29940.13
575.01	29575.01
575.17	29598.41
575.33	29699.06
575.49	29525.86
575.65	29750.55
575.82	29596.07
575.98	29493.09
576.14	29731.83
576.30	29635.86
576.46	29874.60
576.62	29677.99
576.79	29778.64
576.95	29521.18
577.11	29951.84
577.27	29881.62
577.43	29834.81
577.59	29542.24
577.75	29635.86
577.92	29703.74
578.08	29806.72
578.24	29820.77
578.40	29467.34
578.56	29715.44
578.72	29514.16
578.88	29900.34
579.04	30103.97
579.21	29848.85
579.37	29778.64
579.53	30211.64
579.69	29820.77
579.85	30148.44
580.01	29490.75
580.17	29582.03
580.33	29933.11
580.49	29874.60
580.65	29841.83
580.82	29497.77
580.98	29827.79
581.14	29905.02
581.30	29811.40
581.46	29694.38
581.62	29762.25
581.78	29544.58
581.94	29830.13
582.10	29912.05
582.26	29788.00
582.42	30022.05
582.58	29872.26
582.74	29799.70
582.90	30000.99
583.06	30190.57
583.22	30309.94
583.38	29706.08
583.54	29567.99
583.70	29673.31
583.86	29743.53
584.02	29762.25
584.18	30284.19
584.34	30087.59
584.50	30359.09
584.66	30036.09
584.82	29881.62
584.98	29839.49
585.14	29930.77
585.30	29455.64
585.46	29329.25
585.62	29661.61
585.78	30047.80
585.94	29495.43
586.10	29853.53
586.26	30010.35
586.42	29832.47
586.58	29982.26
586.74	29745.87
586.90	29509.47
587.06	29741.19
587.22	29720.12
587.38	29624.16
587.54	30497.18
587.70	30302.92
587.86	29984.60
588.02	30452.71
588.18	30366.11
588.34	30251.42
588.49	29827.79
588.65	29757.57
588.81	30342.70
588.97	29984.60
589.13	29926.09
589.29	29738.85
589.45	30258.45
589.61	30316.96
589.77	30733.57
589.93	30279.51
590.08	30242.06
590.24	30747.62
590.40	30436.33
590.56	30410.58
590.72	30066.52
590.88	30195.25
591.04	30183.55
591.20	30199.93
591.35	30473.78
591.51	30373.13
591.67	30239.72
591.83	30473.78
591.99	30590.80
592.15	30321.64
592.31	30525.27
592.46	30410.58
592.62	30127.38
592.78	30197.59
592.94	30522.93
593.10	30251.42
593.26	30249.08
593.41	30160.14
593.57	30305.26
593.73	30740.60
593.89	30726.55
594.05	30672.72
594.20	30033.75
594.36	30047.80
594.52	30478.46
594.68	30192.91
594.84	30525.27
594.99	30529.95
595.15	30675.06
595.31	30494.84
595.47	30541.65
595.62	30417.60
595.78	30714.85
595.94	30146.10
596.10	30543.99
596.25	30075.88
596.41	30188.23
596.57	30223.34
596.73	30560.37
596.88	30176.53
597.04	30239.72
597.20	30845.92
597.36	30586.12
597.51	30717.19
597.67	30309.94
597.83	30522.93
597.99	30602.50
598.14	30583.78
598.30	30536.97
598.46	30115.67
598.61	30932.52
598.77	30654.00
598.93	30583.78
599.09	30745.28
599.24	30850.60
599.40	30352.07
599.56	30433.99
599.71	30286.53
599.87	30471.43
600.03	30314.62
600.18	30543.99
600.34	30199.93
600.50	30721.87
600.65	30253.76
600.81	30817.83
600.97	30735.92
601.12	30719.53
601.28	30335.68
601.44	30799.11
601.59	30848.26
601.75	30160.14
601.91	30476.12
602.06	30480.80
602.22	30906.77
602.37	30443.35
602.53	30618.89
602.69	30548.67
602.84	30651.66
603.00	30583.78
603.16	30466.75
603.31	30356.75
603.47	31075.29
603.62	30892.73
603.78	30492.50
603.94	30174.19
604.09	30630.59
604.25	30422.28
604.40	30436.33
604.56	30312.28
604.71	30864.64
604.87	30593.14
605.03	30497.18
605.18	30948.90
605.34	31044.87
605.49	30167.16
605.65	30244.40
605.80	30232.70
605.96	30686.76
606.12	30302.92
606.27	30237.38
606.43	30632.93
606.58	30686.76
606.74	30499.52
606.89	30565.06
607.05	30567.40
607.20	30808.47
607.36	30735.92
607.51	30632.93
607.67	30448.03
607.82	30328.66
607.98	30546.33
608.13	30611.87
608.29	29977.58
608.44	30555.69
608.60	30260.79
608.75	30639.95
608.91	30342.70
609.06	30274.83
609.22	30651.66
609.37	30176.53
609.53	30113.33
609.68	30352.07
609.84	30309.94
609.99	30513.56
610.15	30424.62
610.30	30057.16
610.46	30356.75
610.61	30333.34
610.76	30244.40
610.92	30326.32
611.07	30391.86
611.23	30436.33
611.38	30263.13
611.54	30129.72
611.69	30197.59
611.84	30033.75
612.00	30066.52
612.15	30071.20
612.31	30415.26
612.46	30251.42
612.62	30085.25
612.77	30342.70
612.92	30443.35
613.08	30080.56
613.23	30260.79
613.39	29724.80
613.54	29914.39
613.69	29986.94
613.85	29626.50
614.00	30118.01
614.15	30195.25
614.31	29820.77
614.46	30164.82
614.62	30139.08
614.77	30415.26
614.92	29731.83
615.08	30029.07
615.23	30150.78
615.38	29773.95
615.54	29518.84
615.69	29827.79
615.84	29610.12
616.00	29715.44
616.15	29558.63
616.30	29795.02
616.46	29762.25
616.61	29813.74
616.76	29979.92
616.92	29514.16
617.07	29745.87
617.22	30115.67
617.37	29649.91
617.53	29923.75
617.68	29284.78
617.83	29867.58
617.99	29429.90
618.14	29394.79
618.29	29436.92
618.45	29575.01
618.60	29575.01
618.75	29661.61
618.90	29713.10
619.06	29572.67
619.21	29397.13
619.36	29853.53
619.51	29362.02
619.67	29528.20
619.82	29214.57
619.97	29418.19
620.12	29247.33
620.28	29158.39
620.43	29249.67
620.58	29436.92
620.73	29685.01
620.89	29404.15
621.04	29757.57
621.19	29589.05
621.34	29315.21
621.49	29179.46
621.65	29170.10
621.80	29305.85
621.95	29310.53
622.10	29111.58
622.25	28903.28
622.41	29123.29
622.56	29223.93
622.71	29336.27
622.86	29362.02
623.01	29160.73
623.16	29373.72
623.32	29006.26
623.47	28870.51
623.62	29003.92
623.77	29034.35
623.92	28577.94
624.07	28933.70
624.23	29305.85
624.38	29104.56
624.53	29017.96
624.68	29350.32
624.83	29369.04
624.98	29282.44
625.13	29130.31
625.29	28727.74
625.44	29237.97
625.59	28858.81
625.74	28346.23
625.89	28533.47
626.04	28631.77
626.19	28671.56
626.34	28774.55
626.49	28453.89
626.65	28905.62
626.80	28671.56
626.95	28627.09
627.10	28599.01
627.25	28474.96
627.40	28641.14
627.55	28205.80
627.70	28332.18
627.85	28254.95
628.00	28386.02
628.15	28704.33
628.30	28180.05
628.45	28472.62
628.60	28524.11
628.76	28346.23
628.91	28147.28
629.06	28561.56
629.21	28203.46
629.36	28636.45
629.51	28472.62
629.66	28177.71
629.81	28205.80
629.96	28034.94
630.11	28060.68
630.26	28245.58
630.41	27864.08
630.56	27700.24
630.71	28041.96
630.86	27824.29
631.01	28620.07
631.16	28320.48
631.31	28428.15
631.46	27812.59
631.61	28240.90
631.76	28252.61
631.91	28189.41
632.06	27847.69
632.21	27513.00
632.36	28304.10
632.51	27637.05
632.66	27885.14
632.81	27793.86
632.96	28023.23
633.10	28212.82
633.25	28187.07
633.40	28128.56
633.55	28137.92
633.70	27613.64
633.85	27718.96
634.00	27608.96
634.15	27548.11
634.30	27470.87
634.45	27372.57
634.60	27908.55
634.75	27819.61
634.90	27564.49
635.05	27520.02
635.19	27875.78
635.34	27988.13
635.49	27718.96
635.64	27927.27
635.79	27807.90
635.94	27641.73
636.09	27805.56
636.24	27328.10
636.39	27520.02
636.53	27730.67
636.68	27585.55
636.83	27480.23
636.98	27686.20
637.13	27414.69
637.28	27632.36
637.43	27927.27
637.57	27316.39
637.72	27524.70
637.87	27496.61
638.02	27515.34
638.17	27096.38
638.32	27204.05
638.46	27168.94
638.61	27508.32
638.76	27002.76
638.91	26953.61
639.06	27250.86
639.20	27143.19
639.35	27386.61
639.50	27005.10
639.65	27421.72
639.80	27513.00
639.94	27395.97
640.09	27161.92
640.24	27386.61
640.39	27014.46
640.54	26977.01
640.68	26991.06
640.83	26639.98
640.98	26583.80
641.13	26607.21
641.27	27101.06
641.42	26642.32
641.57	27061.27
641.72	27072.98
641.86	26815.52
642.01	26813.18
642.16	26941.91
642.31	26632.96
642.45	27028.51
642.60	26529.97
642.75	26546.36
642.90	26728.92
643.04	26572.10
643.19	26817.86
643.34	26717.22
643.48	26565.08
643.63	26707.85
643.78	26319.32
643.93	26836.58
644.07	26698.49
644.22	26597.85
644.37	26675.09
644.51	26462.10
644.66	26597.85
644.81	26118.04
644.95	26412.95
645.10	26354.43
645.25	26267.83
645.39	26745.30
645.54	26813.18
645.69	26593.17
645.83	26457.42
645.98	26410.60
646.13	26492.52
646.27	26845.94
646.42	26359.11
646.57	26349.75
646.71	26408.26
646.86	26326.35
647.00	26419.97
647.15	26010.37
647.30	26324.01
647.44	26366.13
647.59	26253.79
647.74	26019.74
647.88	26242.09
648.03	26015.05
648.17	26188.25
648.32	26693.81
648.47	26628.27
648.61	26368.48
648.76	26305.28
648.90	26490.18
649.05	25996.33
649.20	25923.77
649.34	26157.83
649.49	25593.76
649.63	25502.48
649.78	26391.88
649.92	26068.89
650.07	26108.68
650.21	25874.62
650.36	25951.86
650.51	25778.66
650.65	25961.22
650.80	25830.15
650.94	25961.22
651.09	25432.26
651.23	25549.29
651.38	25771.64
651.52	26181.23
651.67	25701.42
651.81	26057.18
651.96	26005.69
652.10	25472.05
652.25	25668.66
652.39	26064.21
652.54	25832.49
652.68	25837.17
652.83	25741.21
652.97	26171.87
653.12	25933.14
653.26	25542.27
653.41	25685.04
653.55	25490.77
653.70	25790.36
653.84	25839.51
653.99	25764.62
654.13	25656.95
654.27	25612.48
654.42	25380.77
654.56	25305.87
654.71	25319.92
654.85	25673.34
655.00	25743.55
655.14	25642.91
655.29	25493.12
655.43	25465.03
655.57	25476.73
655.72	25273.10
655.86	25039.05
656.01	25256.72
656.15	25177.14
656.30	25132.67
656.44	25160.76
656.58	24992.24
656.73	25317.57
656.87	25127.99
657.01	25359.70
657.16	25392.47
657.30	25315.23
657.45	25102.25
657.59	25226.29
657.73	25146.72
657.88	24987.56
658.02	25001.60
658.16	25092.88
658.31	25041.39
658.45	24971.18
658.60	24680.95
658.74	24606.05
658.88	24610.73
659.03	24868.19
659.17	24671.59
659.31	25097.56
659.46	25069.48
659.60	24922.02
659.74	24781.59
659.89	24699.67
660.03	24926.71
660.17	24545.20
660.32	24563.92
660.46	24264.33
660.60	24425.83
660.74	24367.32
660.89	24446.90
661.03	24556.90
661.17	24421.15
661.32	24247.95
661.46	24505.41
661.60	24596.69
661.74	24482.00
661.89	24439.87
662.03	24407.11
662.17	24116.88
662.31	24329.87
662.46	24063.05
662.60	24393.06
662.74	23983.47
662.88	24023.26
663.03	23756.44
663.17	24088.79
663.31	23632.39
663.45	23857.08
663.60	23655.79
663.74	23873.46
663.88	24112.20
664.02	23899.21
664.17	23910.91
664.31	23810.27
664.45	23913.25
664.59	23939.00
664.73	23899.21
664.88	23777.50
665.02	23412.38
665.16	23679.20
665.30	23676.86
665.44	23431.10
665.59	23555.15
665.73	23604.30
665.87	23229.82
666.01	23611.32
666.15	23594.94
666.29	23150.24
666.44	23372.59
666.58	23396.00
666.72	23250.88
666.86	23274.29
667.00	23314.08
667.14	23084.70
667.28	23253.22
667.43	22993.42
667.57	23218.11
667.71	22963.00
667.85	23215.77
667.99	22845.97
668.13	23065.98
668.27	22747.67
668.41	22930.23
668.56	23016.83
668.70	23000.44
668.84	22810.86
668.98	22829.59
669.12	23009.81
669.26	22677.45
669.40	22459.78
669.54	22553.40
669.68	22834.27
669.82	22389.56
669.96	22246.79
670.10	22487.87
670.25	22487.87
670.39	22279.56
670.53	22281.90
670.67	21986.99
670.81	22207.00
670.95	22279.56
671.09	22401.27
671.23	22038.48
671.37	22270.20
671.51	22118.06
671.65	22228.07
671.79	21968.27
671.93	22267.86
672.07	22085.30
672.21	22043.17
672.35	21895.71
672.49	21479.10
672.63	21551.65
672.77	21769.32
672.91	21790.39
673.05	21666.34
673.19	21731.87
673.33	21261.43
673.47	21741.24
673.61	21078.86
673.75	21284.83
673.89	21598.46
674.03	21263.77
674.17	21296.53
674.31	21277.81
674.45	21504.84
674.59	21209.93
674.73	21322.28
674.87	21385.47
675.01	21102.27
675.15	20556.93
675.29	20950.14
675.43	20959.50
675.56	21092.91
675.70	20765.23
675.84	21111.63
675.98	20582.67
676.12	20779.28
676.26	20896.30
676.40	20711.40
676.54	20720.76
676.68	20753.53
676.82	20201.16
676.96	20175.42
677.10	20393.09
677.23	20603.74
677.37	20161.37
677.51	20217.55
677.65	20341.60
677.79	19878.17
677.93	19913.28
678.07	19885.19
678.21	19599.65
678.34	19571.56
678.48	19775.19
678.62	19704.97
678.76	19800.93
678.90	19894.55
679.04	19538.79
679.18	19522.41
679.31	19058.98
679.45	19541.13
679.59	19370.27
679.73	19297.72
679.87	19058.98
680.00	19234.52
680.14	19098.77
680.28	18948.98
680.42	19332.82
680.56	18874.08
680.70	19028.56
680.83	18965.36
680.97	18974.72
681.11	18768.76
681.25	18860.04
681.39	18864.72
681.52	18864.72
681.66	18494.91
681.80	18291.29
681.94	18225.75
682.07	18630.66
682.21	18075.96
682.35	18026.81
682.49	18202.35
682.62	17909.78
682.76	18178.94
682.90	18143.83
683.04	17991.70
683.17	18157.88
683.31	18047.87
683.45	17923.82
683.59	17813.82
683.72	17769.35
683.86	17720.20
684.00	17963.61
684.13	17554.02
684.27	17694.45
684.41	17355.07
684.55	17202.94
684.68	17598.49
684.82	17099.95
684.96	17067.19
685.09	17202.94
685.23	17062.51
685.37	17025.06
685.50	17081.23
685.64	17118.68
685.78	16877.60
685.91	17280.18
686.05	16882.28
686.19	16833.13
686.32	16987.61
686.46	16744.19
686.60	16505.46
686.73	16517.16
686.87	16285.45
687.01	16210.55
687.14	16236.30
687.28	16287.79
687.42	16156.72
687.55	16280.77
687.69	16313.53
687.82	16170.76
687.96	16093.52
688.10	16044.37
688.23	15946.07
688.37	16042.03
688.50	15941.39
688.64	15723.72
688.78	15981.18
688.91	15611.37
689.05	15882.88
689.18	15676.91
689.32	15346.89
689.46	15293.06
689.59	15403.07
689.73	15400.72
689.86	15447.54
690.00	15363.28
690.13	15257.95
690.27	15187.74
690.41	15372.64
690.54	15051.99
690.68	15021.56
690.81	15047.30
690.95	14986.45
691.08	14895.17
691.22	14843.68
691.35	14815.59
691.49	14972.41
691.62	14775.80
691.76	14576.86
691.89	14698.56
692.03	14403.66
692.16	14394.29
692.30	14387.27
692.43	14284.29
692.57	14197.69
692.70	14459.83
692.84	14239.82
692.97	14211.73
693.11	14111.09
693.24	14017.47
693.38	14141.52
693.51	13987.04
693.65	14040.87
693.78	13752.99
693.92	13909.80
694.05	13797.46
694.19	13357.44
694.32	13642.98
694.45	13582.13
694.59	13249.77
694.72	13357.44
694.86	13114.02
694.99	13231.05
695.13	13228.71
695.26	13444.04
695.39	13053.17
695.53	13149.13
695.66	12978.27
695.80	12971.25
695.93	13209.98
696.07	12919.76
696.20	13270.84
696.33	13001.68
696.47	12840.18
696.60	12844.86
696.73	12830.82
696.87	12812.09
697.00	12606.13
697.14	12720.81
697.27	12479.74
697.40	12248.02
697.54	12372.07
697.67	12315.90
697.80	12292.49
697.94	12217.60
698.07	12262.07
698.21	11838.43
698.34	12154.40
698.47	12140.36
698.61	12088.87
698.74	11922.69
698.87	12074.82
699.01	11513.10
699.14	11775.24
699.27	11779.92
699.40	11857.15
699.54	11698.00
699.67	11714.38
699.80	11564.59
699.94	11300.11
700.07	11527.14
700.20	11105.84
700.34	11187.76
700.47	11250.96
700.60	10890.51
700.73	11389.05
700.87	11159.67
701.00	11206.48
701.13	11215.85
701.26	11236.91
701.40	11190.10
701.53	11187.76
701.66	11007.54
701.79	11005.20
701.93	10932.64
702.06	10792.21
702.19	10553.48
702.32	10843.70
702.46	10506.66
702.59	10494.96
702.72	10520.71
702.85	10541.77
702.99	10558.16
703.12	10361.55
703.25	10581.56
703.38	10216.44
703.51	10513.69
703.65	10391.98
703.78	10195.37
703.91	10214.10
704.04	10085.37
704.17	9973.02
704.31	10078.35
704.44	10066.64
704.57	9994.09
704.70	9764.72
704.83	9799.82
704.96	9813.87
705.10	9635.99
705.23	9525.98
>>>>>End Processed Spectral Data<<<<<
