SpectraSuite Data File
++++++++++++++++++++++++++++++++++++
Date: Fri Oct 18 13:57:58 GMT-05:00 2013
User: bianchi
Dark Spectrum Present: No
Reference Spectrum Present: No
Number of Sampled Component Spectra: 1
Spectrometers: USB2+H05261
Integration Time (usec): 50000 (USB2+H05261)
Spectra Averaged: 1 (USB2+H05261)
Boxcar Smoothing: 0 (USB2+H05261)
Correct for Electrical Dark: No (USB2+H05261)
Strobe/Lamp Enabled: No (USB2+H05261)
Correct for Detector Non-linearity: No (USB2+H05261)
Correct for Stray Light: No (USB2+H05261)
Number of Pixels in Processed Spectrum: 2048
>>>>>Begin Processed Spectral Data<<<<<
365.73	0.00
365.92	0.00
366.12	0.00
366.32	0.00
366.52	0.00
366.72	0.00
366.91	0.00
367.11	0.00
367.31	0.00
367.51	0.00
367.70	0.00
367.90	0.00
368.10	0.00
368.30	0.00
368.49	0.00
368.69	0.00
368.89	0.00
369.09	0.00
369.28	0.00
369.48	0.00
369.68	0.00
369.87	0.00
370.07	0.00
370.27	0.00
370.47	0.00
370.66	163.84
370.86	201.29
371.06	110.01
371.25	149.79
371.45	182.56
371.65	131.07
371.84	170.86
372.04	152.13
372.24	194.26
372.44	163.84
372.63	170.86
372.83	287.89
373.03	234.05
373.22	177.88
373.42	243.42
373.62	250.44
373.81	170.86
374.01	196.60
374.21	250.44
374.40	173.20
374.60	210.65
374.79	304.27
374.99	264.48
375.19	266.82
375.38	175.54
375.58	250.44
375.78	238.73
375.97	229.37
376.17	266.82
376.37	327.68
376.56	215.33
376.76	227.03
376.95	273.84
377.15	374.49
377.35	269.16
377.54	287.89
377.74	201.29
377.93	292.57
378.13	238.73
378.33	351.08
378.52	278.52
378.72	269.16
378.91	346.40
379.11	315.97
379.31	278.52
379.50	224.69
379.70	266.82
379.89	386.19
380.09	318.31
380.28	318.31
380.48	229.37
380.68	210.65
380.87	266.82
381.07	433.00
381.26	325.33
381.46	341.72
381.65	379.17
381.85	320.65
382.04	236.39
382.24	430.66
382.43	334.70
382.63	299.59
382.83	407.25
383.02	430.66
383.22	421.30
383.41	423.64
383.61	390.87
383.80	395.55
384.00	390.87
384.19	313.63
384.39	322.99
384.58	360.44
384.78	313.63
384.97	414.27
385.17	411.93
385.36	407.25
385.56	475.13
385.75	395.55
385.95	402.57
386.14	390.87
386.34	423.64
386.53	344.06
386.72	428.32
386.92	433.00
387.11	449.38
387.31	486.83
387.50	407.25
387.70	470.45
387.89	468.11
388.09	433.00
388.28	397.89
388.48	528.96
388.67	470.45
388.86	465.77
389.06	479.81
389.25	465.77
389.45	418.96
389.64	561.73
389.84	566.41
390.03	496.19
390.22	484.49
390.42	599.18
390.61	514.92
390.81	470.45
391.00	489.17
391.19	512.58
391.39	526.62
391.58	557.05
391.78	468.11
391.97	533.64
392.16	559.39
392.36	507.90
392.55	617.90
392.75	594.50
392.94	524.28
393.13	561.73
393.33	617.90
393.52	589.82
393.71	507.90
393.91	566.41
394.10	526.62
394.29	550.03
394.49	517.26
394.68	580.45
394.88	641.31
395.07	645.99
395.26	725.57
395.46	648.33
395.65	662.37
395.84	627.26
396.04	650.67
396.23	561.73
396.42	692.80
396.62	662.37
396.81	645.99
397.00	751.31
397.19	603.86
397.39	685.78
397.58	643.65
397.77	636.63
397.97	709.18
398.16	805.14
398.35	692.80
398.55	711.52
398.74	781.74
398.93	739.61
399.12	786.42
399.32	781.74
399.51	748.97
399.70	835.57
399.90	774.72
400.09	793.44
400.28	788.76
400.47	814.51
400.67	767.70
400.86	758.33
401.05	875.36
401.24	791.10
401.44	849.61
401.63	844.93
401.82	940.90
402.01	903.45
402.21	788.76
402.40	826.21
402.59	880.04
402.78	938.55
402.97	840.25
403.17	849.61
403.36	854.30
403.55	840.25
403.74	798.12
403.93	926.85
404.13	997.07
404.32	1018.13
404.51	1025.15
404.70	990.05
404.89	999.41
405.09	978.34
405.28	964.30
405.47	1001.75
405.66	1006.43
405.85	1004.09
406.05	952.60
406.24	997.07
406.43	1036.86
406.62	1032.18
406.81	1107.07
407.00	987.71
407.20	1027.50
407.39	976.00
407.58	1048.56
407.77	1036.86
407.96	1053.24
408.15	1055.58
408.34	1076.65
408.54	1130.48
408.73	1167.93
408.92	1128.14
409.11	1196.01
409.30	1151.54
409.49	1301.34
409.68	1186.65
409.87	1088.35
410.07	1179.63
410.26	1191.33
410.45	1191.33
410.64	1313.04
410.83	1144.52
411.02	1273.25
411.21	1303.68
411.40	1212.40
411.59	1380.92
411.78	1364.53
411.98	1275.59
412.17	1252.19
412.36	1324.74
412.55	1413.68
412.74	1320.06
412.93	1418.36
413.12	1409.00
413.31	1425.39
413.50	1348.15
413.69	1383.26
413.88	1439.43
414.07	1437.09
414.26	1507.30
414.45	1488.58
414.64	1411.34
414.83	1474.54
415.02	1612.63
415.22	1638.38
415.41	1638.38
415.60	1621.99
415.79	1692.21
415.98	1582.20
416.17	1495.60
416.36	1614.97
416.55	1659.44
416.74	1713.27
416.93	1696.89
417.12	1671.14
417.31	1687.53
417.50	1717.95
417.69	1792.85
417.88	1713.27
418.07	1792.85
418.26	1703.91
418.45	1860.73
418.64	1795.19
418.83	1865.41
419.02	1825.62
419.21	1825.62
419.39	1832.64
419.58	1881.79
419.77	1851.36
419.96	1912.22
420.15	1820.94
420.34	1879.45
420.53	1982.43
420.72	1966.05
420.91	1909.88
421.10	2017.54
421.29	2069.03
421.48	2022.22
421.67	1935.62
421.86	1959.03
422.05	1980.09
422.24	2106.48
422.43	2022.22
422.61	2120.53
422.80	2038.61
422.99	2066.69
423.18	1984.77
423.37	1975.41
423.56	2012.86
423.75	2003.50
423.94	1961.37
424.13	1902.86
424.32	1977.75
424.50	2181.38
424.69	2120.53
424.88	2136.91
425.07	1940.30
425.26	2080.74
425.45	2111.16
425.64	1961.37
425.83	2090.10
426.01	2162.66
426.20	2059.67
426.39	2129.89
426.58	2165.00
426.77	2190.74
426.96	2157.97
427.15	2172.02
427.33	2193.08
427.52	2069.03
427.71	2087.76
427.90	2141.59
428.09	2246.91
428.28	2244.57
428.46	2277.34
428.65	2230.53
428.84	2146.27
429.03	2333.51
429.22	2211.81
429.40	2312.45
429.59	2232.87
429.78	2202.44
429.97	2265.64
430.16	2328.83
430.34	2349.90
430.53	2562.89
430.72	2373.30
430.91	2370.96
431.10	2305.43
431.28	2443.52
431.47	2527.78
431.66	2539.48
431.85	2457.56
432.03	2581.61
432.22	2612.04
432.41	2509.05
432.60	2574.59
432.79	2455.22
432.97	2476.29
433.16	2612.04
433.35	2619.06
433.54	2558.21
433.72	2616.72
433.91	2565.23
434.10	2497.35
434.28	2682.25
434.47	2696.30
434.66	2588.63
434.85	2539.48
435.03	2729.06
435.22	2626.08
435.41	2754.81
435.59	2590.97
435.78	2672.89
435.97	2876.52
436.16	2787.58
436.34	2696.30
436.53	2764.17
436.72	2778.22
436.90	2810.98
437.09	2752.47
437.28	2785.24
437.46	2729.06
437.65	2904.60
437.84	2839.07
438.02	2787.58
438.21	2925.67
438.40	2857.79
438.58	2909.29
438.77	2899.92
438.96	2869.50
439.14	3066.10
439.33	2942.05
439.52	3035.67
439.70	3082.49
439.89	3157.38
440.08	3073.12
440.26	3126.96
440.45	3145.68
440.63	3232.28
440.82	3150.36
441.01	3094.19
441.19	3201.85
441.38	3239.30
441.57	3314.20
441.75	3328.24
441.94	3428.88
442.12	3295.47
442.31	3449.95
442.50	3506.12
442.68	3503.78
442.87	3426.54
443.05	3487.40
443.24	3492.08
443.43	3332.92
443.61	3407.82
443.80	3386.76
443.98	3410.16
444.17	3302.50
444.35	3482.72
444.54	3506.12
444.73	3602.08
444.91	3536.55
445.10	3513.14
445.28	3552.93
445.47	3517.83
445.65	3569.32
445.84	3644.21
446.02	3599.74
446.21	3506.12
446.39	3545.91
446.58	3522.51
446.77	3651.24
446.95	3473.36
447.14	3597.40
447.32	3702.73
447.51	3524.85
447.69	3625.49
447.88	3590.38
448.06	3562.30
448.25	3566.98
448.43	3564.64
448.62	3637.19
448.80	3555.27
448.99	3611.45
449.17	3667.62
449.36	3623.15
449.54	3719.11
449.73	3698.05
449.91	3775.28
450.10	3686.34
450.28	3847.84
450.46	3960.19
450.65	3878.27
450.83	3791.67
451.02	3953.16
451.20	3922.74
451.39	3908.69
451.57	3889.97
451.76	3995.29
451.94	3882.95
452.13	3932.10
452.31	4007.00
452.49	3810.39
452.68	3983.59
452.86	3999.98
453.05	3997.64
453.23	3918.06
453.42	3904.01
453.60	3810.39
453.78	3974.23
453.97	3911.04
454.15	4051.47
454.34	3904.01
454.52	4173.18
454.70	4065.51
454.89	4149.77
455.07	4119.34
455.26	4053.81
455.44	4325.31
455.62	4175.52
455.81	4196.58
455.99	4257.43
456.17	4271.48
456.36	4112.32
456.54	4348.72
456.73	4423.61
456.91	4383.82
457.09	4386.16
457.28	4587.45
457.46	4318.29
457.64	4477.44
457.83	4372.12
458.01	4507.87
458.19	4610.86
458.38	4404.89
458.56	4606.17
458.74	4531.28
458.93	4491.49
459.11	4575.75
459.29	4566.39
459.48	4655.33
459.66	4812.14
459.84	4599.15
460.03	4737.24
460.21	4638.94
460.39	4596.81
460.57	4634.26
460.76	4823.84
460.94	4772.35
461.12	4777.03
461.31	4657.67
461.49	4681.07
461.67	4791.08
461.85	4952.57
462.04	4816.82
462.22	5116.41
462.40	4795.76
462.59	4882.36
462.77	4950.23
462.95	4931.51
463.13	4959.60
463.32	4964.28
463.50	4938.53
463.68	4901.08
463.86	5085.98
464.05	4994.70
464.23	4805.12
464.41	5252.16
464.59	4994.70
464.78	5146.84
464.96	5013.43
465.14	4863.63
465.32	4999.38
465.50	5186.63
465.69	5121.09
465.87	5128.11
466.05	5130.45
466.23	5060.24
466.41	5203.01
466.60	5322.38
466.78	5233.44
466.96	5252.16
467.14	5238.12
467.32	5210.03
467.51	5303.65
467.69	5067.26
467.87	5425.36
468.05	5359.83
468.23	5217.05
468.41	5385.57
468.60	5446.43
468.78	5406.64
468.96	5364.51
469.14	5444.09
469.32	5423.02
469.50	5266.21
469.69	5535.37
469.87	5619.63
470.05	5479.19
470.23	5551.75
470.41	5547.07
470.59	5600.90
470.77	5596.22
470.95	5619.63
471.14	5666.44
471.32	5619.63
471.50	5797.51
471.68	5776.44
471.86	5837.30
472.04	5891.13
472.22	6001.13
472.40	5717.93
472.58	5900.49
472.77	5923.90
472.95	5891.13
473.13	6176.67
473.31	5912.19
473.49	5933.26
473.67	6010.50
473.85	6087.73
474.03	6167.31
474.21	6162.63
474.39	6284.34
474.57	6370.94
474.75	6263.27
474.93	6293.70
475.12	6328.81
475.30	6413.07
475.48	6354.55
475.66	6413.07
475.84	6492.65
476.02	6700.95
476.20	6504.35
476.38	6637.76
476.56	6754.79
476.74	6761.81
476.92	6712.66
477.10	6937.35
477.28	6874.15
477.46	6780.53
477.64	6881.18
477.82	7026.29
478.00	7040.33
478.18	7007.56
478.36	7227.57
478.54	7091.82
478.72	7302.47
478.90	7276.73
479.08	7433.54
479.26	7342.26
479.44	7461.63
479.62	7602.06
479.80	7531.84
479.98	7529.50
480.16	7625.47
480.34	7536.52
480.52	7866.54
480.70	7887.61
480.88	7925.05
481.06	7892.29
481.24	7936.76
481.41	7964.84
481.59	8269.11
481.77	8224.64
481.95	8336.99
482.13	8393.16
482.31	8411.89
482.49	8585.08
482.67	8510.19
482.85	8631.90
483.03	8737.22
483.21	9057.87
483.39	8922.12
483.57	8812.12
483.74	8798.07
483.92	8994.68
484.10	8781.69
484.28	8952.55
484.46	9268.52
484.64	9516.62
484.82	9184.26
485.00	9401.93
485.18	9549.39
485.35	9643.01
485.53	9584.49
485.71	9755.35
485.89	9853.66
486.07	9867.70
486.25	9858.34
486.43	9731.95
486.61	9851.31
486.78	9909.83
486.96	10501.98
487.14	10457.51
487.32	10298.36
487.50	10373.25
487.68	10628.37
487.85	10684.55
488.03	10832.00
488.21	10848.38
488.39	10958.39
488.57	10958.39
488.75	10874.13
488.92	11000.52
489.10	11101.16
489.28	11204.14
489.46	11297.77
489.64	11304.79
489.81	11527.14
489.99	11850.13
490.17	11695.66
490.35	11751.83
490.53	11960.14
490.70	11899.28
490.88	11920.35
491.06	12009.29
491.24	11887.58
491.41	12432.93
491.59	12299.52
491.77	12287.81
491.95	12685.70
492.13	12795.71
492.30	12622.51
492.48	12692.73
492.66	12746.56
492.84	12769.96
493.01	13104.66
493.19	12760.60
493.37	13137.43
493.54	12870.61
493.72	13282.54
493.90	13104.66
494.08	13160.83
494.25	13441.70
494.43	13444.04
494.61	13795.12
494.79	13771.71
494.96	13738.94
495.14	13853.63
495.32	13891.08
495.49	13870.01
495.67	14286.63
495.85	14319.40
496.02	14476.21
496.20	14391.95
496.38	14256.20
496.55	14345.14
496.73	14593.24
496.91	14616.65
497.09	14623.67
497.26	14850.70
497.44	14714.95
497.62	14941.98
497.79	14953.68
497.97	15049.64
498.14	15161.99
498.32	15279.02
498.50	15356.25
498.67	15674.57
498.85	15288.38
499.03	15304.76
499.20	15513.07
499.38	15669.89
499.56	15363.28
499.73	15721.38
499.91	16051.39
500.08	16248.00
500.26	15594.99
500.44	15803.30
500.61	16016.29
500.79	16196.51
500.97	16255.02
501.14	16065.44
501.32	16599.08
501.49	16451.63
501.67	16004.58
501.84	16374.39
502.02	16430.56
502.20	16322.90
502.37	16835.47
502.55	16554.61
502.72	16833.13
502.90	16692.70
503.07	16641.21
503.25	17055.48
503.43	16996.97
503.60	17013.35
503.78	17224.00
503.95	17057.82
504.13	16961.86
504.30	17247.41
504.48	17083.57
504.65	17378.48
504.83	17649.98
505.01	17617.21
505.18	17680.41
505.36	17600.83
505.53	17413.59
505.71	17479.12
505.88	17350.39
506.06	17488.48
506.23	17769.35
506.41	17846.58
506.58	17954.25
506.76	18024.47
506.93	18036.17
507.11	18068.94
507.28	18281.92
507.46	18178.94
507.63	18258.52
507.81	18375.55
507.98	18317.03
508.16	18127.45
508.33	18331.08
508.50	18417.68
508.68	18473.85
508.85	18937.27
509.03	18307.67
509.20	18885.78
509.38	18796.84
509.55	18834.29
509.73	18881.10
509.90	18930.25
510.08	18820.25
510.25	18860.04
510.42	19040.26
510.60	19225.16
510.77	19599.65
510.95	19470.92
511.12	19082.39
511.30	19168.99
511.47	19370.27
511.64	19386.66
511.82	19641.78
511.99	19599.65
512.17	19599.65
512.34	19559.86
512.51	19562.20
512.69	20140.31
512.86	19829.02
513.04	20238.61
513.21	20180.10
513.38	20016.26
513.56	20306.49
513.73	20039.67
513.90	20189.46
514.08	20198.82
514.25	20137.97
514.43	20353.30
514.60	20348.62
514.77	20528.84
514.95	20430.54
515.12	20074.77
515.29	20369.68
515.47	20638.84
515.64	20702.04
515.81	20449.26
515.99	20905.66
516.16	21010.99
516.33	20765.23
516.51	20982.90
516.68	21120.99
516.85	20821.41
517.03	21050.78
517.20	20924.39
517.37	21303.56
517.54	21385.47
517.72	21252.06
517.89	21092.91
518.06	21216.96
518.24	21277.81
518.41	21216.96
518.58	21387.82
518.75	21214.62
518.93	21865.28
519.10	21200.57
519.27	21862.94
519.45	21785.71
519.62	21610.17
519.79	21708.47
519.96	21544.63
520.14	22258.49
520.31	21891.03
520.48	21947.20
520.65	21778.68
520.83	22057.21
521.00	22244.45
521.17	21893.37
521.34	22398.93
521.52	22499.57
521.69	22295.94
521.86	22522.98
522.03	22452.76
522.20	22429.35
522.38	22640.00
522.55	22396.59
522.72	22307.65
522.89	22808.52
523.07	23002.78
523.24	22785.12
523.41	23236.84
523.58	22703.20
523.75	23119.81
523.92	22965.34
524.10	22899.80
524.27	22988.74
524.44	23175.98
524.61	23206.41
524.78	23410.04
524.96	23054.28
525.13	23192.37
525.30	23445.15
525.47	23665.16
525.64	22958.31
525.81	23452.17
525.98	23885.17
526.16	23541.11
526.33	23632.39
526.50	23674.52
526.67	23264.92
526.84	23314.08
527.01	23208.75
527.18	23903.89
527.36	23908.57
527.53	23503.66
527.70	24086.45
527.87	23889.85
528.04	23960.06
528.21	24184.76
528.38	24039.64
528.55	23983.47
528.72	24002.19
528.89	24091.13
529.07	24011.56
529.24	24170.71
529.41	24245.61
529.58	24226.89
529.75	24173.05
529.92	24100.50
530.09	24077.09
530.26	24456.26
530.43	24535.84
530.60	23985.81
530.77	24264.33
530.94	24535.84
531.11	24643.50
531.28	24264.33
531.46	24655.20
531.63	24360.30
531.80	24877.55
531.97	25057.78
532.14	25027.35
532.31	24882.24
532.48	25116.29
532.65	24924.36
532.82	24542.86
532.99	24863.51
533.16	24669.25
533.33	24973.52
533.50	24884.58
533.67	25343.32
533.84	24819.04
534.01	24975.86
534.18	25032.03
534.35	25240.34
534.52	25373.75
534.69	25607.80
534.86	25827.81
535.03	25392.47
535.20	25422.90
535.37	25308.21
535.54	25486.09
535.71	25268.42
535.88	25603.12
536.05	25598.44
536.22	25773.98
536.38	25762.28
536.55	25907.39
536.72	25951.86
536.89	25993.99
537.06	25825.47
537.23	25851.22
537.40	25666.31
537.57	25905.05
537.74	26204.64
537.91	26209.32
538.08	26281.88
538.25	25888.67
538.42	25694.40
538.59	26316.98
538.75	25830.15
538.92	26464.44
539.09	26326.35
539.26	26338.05
539.43	26312.30
539.60	26324.01
539.77	26293.58
539.94	26419.97
540.11	26483.16
540.28	26590.83
540.44	26412.95
540.61	26616.57
540.78	26628.27
540.95	26740.62
541.12	26693.81
541.29	26438.69
541.46	26764.03
541.62	26075.91
541.79	26593.17
541.96	26258.47
542.13	26733.60
542.30	26850.63
542.47	26429.33
542.63	26972.33
542.80	27105.74
542.97	27482.57
543.14	27105.74
543.31	27419.38
543.48	27194.68
543.64	27150.21
543.81	27494.27
543.98	27229.79
544.15	27412.35
544.32	27618.32
544.48	27548.11
544.65	27206.39
544.82	27417.04
544.99	26991.06
545.16	27473.21
545.32	27190.00
545.49	27992.81
545.66	28142.60
545.83	27779.82
546.00	27735.35
546.16	27639.39
546.33	27449.80
546.50	27330.44
546.67	27697.90
546.83	27660.45
547.00	27576.19
547.17	27896.85
547.34	28058.34
547.50	27906.21
547.67	28250.27
547.84	27978.76
548.00	28030.26
548.17	27838.33
548.34	28133.24
548.51	28161.33
548.67	28158.99
548.84	28493.68
549.01	27957.70
549.18	28353.25
549.34	28243.24
549.51	27985.79
549.68	28622.41
549.84	28191.75
550.01	28264.31
550.18	28215.16
550.34	28821.36
550.51	28594.32
550.68	28395.38
550.84	28119.20
551.01	28278.35
551.18	28479.64
551.34	28613.05
551.51	28425.81
551.68	28465.60
551.84	28826.04
552.01	28776.89
552.18	28662.20
552.34	28732.42
552.51	28416.44
552.68	28542.83
552.84	28865.83
553.01	28680.92
553.18	28786.25
553.34	28512.41
553.51	29022.64
553.67	29130.31
553.84	29181.80
554.01	28837.74
554.17	28891.57
554.34	29069.45
554.51	29219.25
554.67	28912.64
554.84	28725.39
555.00	28875.19
555.17	29099.88
555.33	29074.13
555.50	28786.25
555.67	28985.19
555.83	29120.95
556.00	29064.77
556.16	29277.76
556.33	29149.03
556.50	29612.46
556.66	29090.52
556.83	29340.96
556.99	29373.72
557.16	29656.93
557.32	29287.12
557.49	30043.12
557.65	29207.55
557.82	29064.77
557.98	29284.78
558.15	29362.02
558.32	29720.12
558.48	29631.18
558.65	29355.00
558.81	30050.14
558.98	29661.61
559.14	29434.58
559.31	29619.48
559.47	29591.39
559.64	29898.00
559.80	29748.21
559.97	29628.84
560.13	29820.77
560.30	30087.59
560.46	29467.34
560.63	29762.25
560.79	29839.49
560.96	30043.12
561.12	29881.62
561.29	29631.18
561.45	29818.42
561.61	29717.78
561.78	29825.45
561.94	29963.54
562.11	30157.80
562.27	29965.88
562.44	29818.42
562.60	29797.36
562.77	29598.41
562.93	29989.28
563.10	30209.29
563.26	30087.59
563.42	30377.81
563.59	29895.66
563.75	29734.17
563.92	29755.23
564.08	29914.39
564.24	30157.80
564.41	30010.35
564.57	30029.07
564.74	30335.68
564.90	30139.08
565.07	30328.66
565.23	30031.41
565.39	30335.68
565.56	30150.78
565.72	30476.12
565.88	30703.15
566.05	30110.99
566.21	30242.06
566.38	30153.12
566.54	30426.96
566.70	30415.26
566.87	30614.21
567.03	30286.53
567.19	30602.50
567.36	30218.66
567.52	30342.70
567.68	30197.59
567.85	30249.08
568.01	30471.43
568.17	30043.12
568.34	30228.02
568.50	30450.37
568.66	30567.40
568.83	30806.13
568.99	30218.66
569.15	30593.14
569.32	30569.74
569.48	30125.04
569.64	30710.17
569.81	30536.97
569.97	30349.73
570.13	30850.60
570.30	30480.80
570.46	30384.83
570.62	30122.69
570.78	30216.32
570.95	30518.25
571.11	30693.79
571.27	30071.20
571.43	30319.30
571.60	30754.64
571.76	30759.32
571.92	30817.83
572.09	30817.83
572.25	30464.41
572.41	30590.80
572.57	31037.84
572.74	30862.30
572.90	30534.63
573.06	30658.68
573.22	30668.04
573.38	30600.16
573.55	30572.08
573.71	30906.77
573.87	30855.28
574.03	30843.58
574.20	30586.12
574.36	30663.36
574.52	30719.53
574.68	30366.11
574.84	30993.37
575.01	30593.14
575.17	30752.30
575.33	30485.48
575.49	30541.65
575.65	30747.62
575.82	30665.70
575.98	30696.13
576.14	30642.29
576.30	30806.13
576.46	30745.28
576.62	30291.21
576.79	30581.44
576.95	30646.97
577.11	31101.04
577.27	31007.42
577.43	30965.29
577.59	30555.69
577.75	30775.70
577.92	30735.92
578.08	30307.60
578.24	30541.65
578.40	30782.73
578.56	30981.67
578.72	31068.27
578.88	31033.16
579.04	30932.52
579.21	30761.66
579.37	31026.14
579.53	31344.45
579.69	30663.36
579.85	30719.53
580.01	30756.98
580.17	30852.94
580.33	30689.10
580.49	31028.48
580.65	31035.50
580.82	31075.29
580.98	31098.70
581.14	30918.48
581.30	30976.99
581.46	30726.55
581.62	30635.27
581.78	30536.97
581.94	30661.02
582.10	30679.74
582.26	30967.63
582.42	30745.28
582.58	30888.05
582.74	31344.45
582.90	30991.03
583.06	30820.17
583.22	30831.88
583.38	30717.19
583.54	31037.84
583.70	30764.00
583.86	31129.12
584.02	30843.58
584.18	31248.49
584.34	31105.72
584.50	30768.68
584.66	30925.50
584.82	30785.07
584.98	31115.08
585.14	31094.02
585.30	31023.80
585.46	31201.68
585.62	31005.08
585.78	31470.84
585.94	30789.75
586.10	31096.36
586.26	31150.19
586.42	31185.30
586.58	31138.49
586.74	31220.41
586.90	30927.84
587.06	30960.61
587.22	31077.63
587.38	30902.09
587.54	31243.81
587.70	30796.77
587.86	31398.29
588.02	31143.17
588.18	31318.71
588.34	31171.25
588.49	31531.70
588.65	30441.01
588.81	31068.27
588.97	31199.34
589.13	31014.44
589.29	31307.01
589.45	31353.82
589.61	31686.17
589.77	31475.52
589.93	31330.41
590.08	31770.43
590.24	31702.56
590.40	31524.68
590.56	31515.31
590.72	31356.16
590.88	30946.56
591.04	31152.53
591.20	31529.36
591.35	31826.60
591.51	31817.24
591.67	31487.23
591.83	31604.25
591.99	31512.97
592.15	31548.08
592.31	31531.70
592.46	31136.15
592.62	31314.03
592.78	31344.45
592.94	31192.32
593.10	31222.75
593.26	31494.25
593.41	31548.08
593.57	31388.92
593.73	31601.91
593.89	31620.64
594.05	31627.66
594.20	31578.51
594.36	31625.32
594.52	31192.32
594.68	31421.69
594.84	31040.18
594.99	31550.42
595.15	31660.43
595.31	31931.93
595.47	31700.22
595.62	31737.66
595.78	31297.64
595.94	32081.72
596.10	31515.31
596.25	31489.57
596.41	31454.46
596.57	31637.02
596.73	31639.36
596.88	31321.05
597.04	31882.78
597.20	31639.36
597.36	31482.55
597.51	31679.15
597.67	31246.15
597.83	31454.46
597.99	31758.73
598.14	31417.01
598.30	31461.48
598.46	31414.67
598.61	31637.02
598.77	31756.39
598.93	31634.68
599.09	31807.88
599.24	31763.41
599.40	31913.20
599.56	32348.54
599.71	31931.93
599.87	31653.40
600.03	31985.76
600.18	31562.12
600.34	31480.21
600.50	32004.49
600.65	31632.34
600.81	32037.25
600.97	31742.35
601.12	32222.16
601.28	31754.05
601.44	31522.34
601.59	31723.62
601.75	31922.57
601.91	31859.37
602.06	31498.93
602.22	31637.02
602.37	31400.63
602.53	31658.09
602.69	31889.80
602.84	31606.59
603.00	31777.45
603.16	31901.50
603.31	31903.84
603.47	31952.99
603.62	31569.15
603.78	31648.72
603.94	31508.29
604.09	31821.92
604.25	31580.85
604.40	31538.72
604.56	31527.02
604.71	31894.48
604.87	31566.81
605.03	31964.70
605.18	31702.56
605.34	31686.17
605.49	31838.31
605.65	31529.36
605.80	31569.15
605.96	31615.96
606.12	31831.29
606.27	31786.82
606.43	31552.76
606.58	31711.92
606.74	31583.19
606.89	31468.50
607.05	31910.86
607.20	31864.05
607.36	31384.24
607.51	31260.20
607.67	31454.46
607.82	31732.98
607.98	31442.76
608.13	31639.36
608.29	31548.08
608.44	30937.20
608.60	31695.53
608.75	31707.24
608.91	31505.95
609.06	31241.47
609.22	31498.93
609.37	31211.04
609.53	31330.41
609.68	31447.44
609.84	31527.02
609.99	31061.25
610.15	31346.79
610.30	31435.74
610.46	31386.58
610.61	31681.49
610.76	31735.32
610.92	31512.97
611.07	31562.12
611.23	31222.75
611.38	31058.91
611.54	31351.48
611.69	30881.03
611.84	31208.70
612.00	31112.74
612.15	31400.63
612.31	31257.85
612.46	31257.85
612.62	31185.30
612.77	31110.40
612.92	31683.83
613.08	31452.12
613.23	31234.45
613.39	31328.07
613.54	31138.49
613.69	31105.72
613.85	31082.31
614.00	31262.54
614.15	31026.14
614.31	31112.74
614.46	31283.60
614.62	31220.41
614.77	31159.55
614.92	31182.96
615.08	31283.60
615.23	30843.58
615.38	31150.19
615.54	30899.75
615.69	31115.08
615.84	30937.20
616.00	31370.20
616.15	31117.42
616.30	31143.17
616.46	30682.08
616.61	30951.24
616.76	31283.60
616.92	30820.17
617.07	31131.47
617.22	30316.96
617.37	30796.77
617.53	31297.64
617.68	30670.38
617.83	30506.54
617.99	30855.28
618.14	30904.43
618.29	30967.63
618.45	30609.53
618.60	30663.36
618.75	30740.60
618.90	31014.44
619.06	30675.06
619.21	31049.55
619.36	30621.23
619.51	30139.08
619.67	30195.25
619.82	30532.29
619.97	30160.14
620.12	30422.28
620.28	30192.91
620.43	30988.69
620.58	30572.08
620.73	30600.16
620.89	30639.95
621.04	30941.88
621.19	30581.44
621.34	30558.03
621.49	30333.34
621.65	30398.88
621.80	30586.12
621.95	30457.39
622.10	30242.06
622.25	30003.33
622.41	30333.34
622.56	30593.14
622.71	30300.58
622.86	30263.13
623.01	30450.37
623.16	30064.18
623.32	30022.05
623.47	30132.06
623.62	30136.74
623.77	30092.27
623.92	29818.42
624.07	29940.13
624.23	30436.33
624.38	30129.72
624.53	30162.48
624.68	29961.20
624.83	30249.08
624.98	30181.21
625.13	30150.78
625.29	30209.29
625.44	30338.02
625.59	29926.09
625.74	29701.40
625.89	29855.87
626.04	29991.62
626.19	29734.17
626.34	29619.48
626.49	29516.50
626.65	29954.18
626.80	30054.82
626.95	30019.71
627.10	29905.02
627.25	29865.24
627.40	29734.17
627.55	29874.60
627.70	29301.17
627.85	29570.33
628.00	29479.05
628.15	29525.86
628.30	29347.98
628.45	29799.70
628.60	29282.44
628.76	29502.45
628.91	29855.87
629.06	29500.11
629.21	29528.20
629.36	29584.37
629.51	29717.78
629.66	29207.55
629.81	29048.39
629.96	29165.42
630.11	29411.17
630.26	29392.45
630.41	29315.21
630.56	29280.10
630.71	29465.00
630.86	29495.43
631.01	29228.61
631.16	29631.18
631.31	29212.23
631.46	29240.31
631.61	29390.11
631.76	29069.45
631.91	29081.16
632.06	29259.04
632.21	28989.88
632.36	29350.32
632.51	28554.54
632.66	28952.43
632.81	28987.53
632.96	29216.91
633.10	28795.61
633.25	29125.63
633.40	29046.05
633.55	28804.97
633.70	28760.50
633.85	28931.36
634.00	28636.45
634.15	28474.96
634.30	28802.63
634.45	28943.06
634.60	28395.38
634.75	28704.33
634.90	29017.96
635.05	28680.92
635.19	28709.01
635.34	29081.16
635.49	28657.52
635.64	28795.61
635.79	28648.16
635.94	28821.36
636.09	28622.41
636.24	28620.07
636.39	28547.51
636.53	28453.89
636.68	28350.91
636.83	28666.88
636.98	29188.82
637.13	28671.56
637.28	28458.57
637.43	28591.98
637.57	28287.71
637.72	28477.30
637.87	28718.37
638.02	28322.82
638.17	28388.36
638.32	27793.86
638.46	28350.91
638.61	28170.69
638.76	28023.23
638.91	28079.41
639.06	28390.70
639.20	28559.22
639.35	28465.60
639.50	28341.55
639.65	28582.62
639.80	28451.55
639.94	28432.83
640.09	28538.15
640.24	28369.63
640.39	28070.04
640.54	27938.97
640.68	28130.90
640.83	28203.46
640.98	27786.84
641.13	28037.28
641.27	28278.35
641.42	27868.76
641.57	28364.95
641.72	28126.22
641.86	28027.92
642.01	27852.38
642.16	28297.08
642.31	27929.61
642.45	27901.53
642.60	28030.26
642.75	27796.20
642.90	27569.17
643.04	27545.76
643.19	27833.65
643.34	27821.95
643.48	27751.73
643.63	27854.72
643.78	27974.08
643.93	27594.92
644.07	27845.35
644.22	28067.70
644.37	27484.91
644.51	27756.41
644.66	27463.85
644.81	27641.73
644.95	27452.14
645.10	27541.08
645.25	27459.16
645.39	27239.15
645.54	27702.58
645.69	27363.20
645.83	27281.28
645.98	27826.63
646.13	27573.85
646.27	27395.97
646.42	27751.73
646.57	27461.51
646.71	27660.45
646.86	27377.25
647.00	27906.21
647.15	27505.98
647.30	27459.16
647.44	27316.39
647.59	27236.81
647.74	27014.46
647.88	27264.90
648.03	27466.19
648.17	27545.76
648.32	27372.57
648.47	27520.02
648.61	27311.71
648.76	27307.03
648.90	27386.61
649.05	27063.61
649.20	27204.05
649.34	27213.41
649.49	26932.54
649.63	26864.67
649.78	26604.87
649.92	27204.05
650.07	27091.70
650.21	27035.53
650.36	27056.59
650.51	26869.35
650.65	27051.91
650.80	27328.10
650.94	27136.17
651.09	26885.73
651.23	26820.20
651.38	26878.71
651.52	26876.37
651.67	26787.43
651.81	27044.89
651.96	26658.70
652.10	27068.30
652.25	26740.62
652.39	26789.77
652.54	26977.01
652.68	26820.20
652.83	26782.75
652.97	27159.58
653.12	26836.58
653.26	26532.31
653.41	26265.49
653.55	26855.31
653.70	26450.39
653.84	26586.15
653.99	26684.45
654.13	26415.29
654.27	26511.25
654.42	26333.37
654.56	26639.98
654.71	26871.69
654.85	26757.00
655.00	26422.31
655.14	26822.54
655.29	26356.77
655.43	26164.85
655.57	26094.63
655.72	26195.28
655.86	26256.13
656.01	26476.14
656.15	26136.76
656.30	26394.22
656.44	26267.83
656.58	26190.59
656.73	26359.11
656.87	26302.94
657.01	26267.83
657.16	26490.18
657.30	26614.23
657.45	26312.30
657.59	26293.58
657.73	25748.23
657.88	26459.76
658.02	25869.94
658.16	25970.58
658.31	26033.78
658.45	25701.42
658.60	25909.73
658.74	25844.20
658.88	25715.47
659.03	25773.98
659.17	25647.59
659.31	25902.71
659.46	25703.76
659.60	26478.48
659.74	25979.95
659.89	25968.24
660.03	25731.85
660.17	25469.71
660.32	25879.30
660.46	25411.20
660.60	25390.13
660.74	25701.42
660.89	25886.32
661.03	25273.10
661.17	25413.54
661.32	25497.80
661.46	25708.44
661.60	25364.39
661.74	25369.07
661.89	25514.18
662.03	25617.16
662.17	25696.74
662.31	25221.61
662.46	25352.68
662.60	24980.54
662.74	24996.92
662.88	25191.19
663.03	24720.74
663.17	25160.76
663.31	24694.99
663.45	24870.53
663.60	25331.62
663.74	24629.46
663.88	24870.53
664.02	25057.78
664.17	25247.36
664.31	24987.56
664.45	24706.70
664.59	24807.34
664.73	24886.92
664.88	24725.42
665.02	24184.76
665.16	24596.69
665.30	24716.06
665.44	24435.19
665.59	24341.57
665.73	24318.17
665.87	24166.03
666.01	24266.67
666.15	24554.56
666.29	24407.11
666.44	24559.24
666.58	24278.38
666.72	24002.19
666.86	24266.67
667.00	24318.17
667.14	24173.05
667.28	24032.62
667.43	23726.01
667.57	24226.89
667.71	23931.98
667.85	23824.31
667.99	23833.68
668.13	23854.74
668.27	23868.78
668.41	23896.87
668.56	23718.99
668.70	24016.24
668.84	24133.26
668.98	23728.35
669.12	23737.71
669.26	24077.09
669.40	23449.83
669.54	23611.32
669.68	23793.89
669.82	23445.15
669.96	23363.23
670.10	23314.08
670.25	23489.62
670.39	23328.12
670.53	23065.98
670.67	22895.12
670.81	23199.39
670.95	23161.94
671.09	23309.40
671.23	23194.71
671.37	23271.95
671.51	23157.26
671.65	23187.69
671.79	22988.74
671.93	22778.09
672.07	23150.24
672.21	22796.82
672.35	22871.72
672.49	22855.33
672.63	22640.00
672.77	22883.42
672.91	22691.49
673.05	22721.92
673.19	22604.89
673.33	22815.54
673.47	22270.20
673.61	22455.10
673.75	22380.20
673.89	22515.95
674.03	22530.00
674.17	22209.34
674.31	21984.65
674.45	22314.67
674.59	22146.15
674.73	22192.96
674.87	22101.68
675.01	21839.54
675.15	22139.13
675.29	21834.86
675.43	21736.56
675.56	22064.23
675.70	21642.93
675.84	21792.73
675.98	21018.01
676.12	21886.35
676.26	21783.37
676.40	22005.72
676.54	21453.35
676.68	21261.43
676.82	21254.40
676.96	21228.66
677.10	21294.19
677.23	21039.08
677.37	20788.64
677.51	20912.69
677.65	20793.32
677.79	20917.37
677.93	20844.81
678.07	20919.71
678.21	20510.11
678.34	20526.50
678.48	20596.71
678.62	20458.62
678.76	20627.14
678.90	20212.87
679.04	20538.20
679.18	20493.73
679.31	20252.66
679.45	20072.43
679.59	20046.69
679.73	19854.76
679.87	19882.85
680.00	19960.09
680.14	19777.53
680.28	19655.82
680.42	19861.79
680.56	19857.10
680.70	19803.27
680.83	19756.46
680.97	19758.80
681.11	19407.72
681.25	19606.67
681.39	19166.65
681.52	19042.60
681.66	19456.87
681.80	19524.75
681.94	19374.95
682.07	19365.59
682.21	18838.97
682.35	19080.05
682.49	18712.58
682.62	18801.52
682.76	18993.45
682.90	18778.12
683.04	18789.82
683.17	18937.27
683.31	19058.98
683.45	18661.09
683.59	18644.71
683.72	18579.17
683.86	18817.91
684.00	18345.12
684.13	18420.02
684.27	18263.20
684.41	18097.02
684.55	17965.95
684.68	17657.00
684.82	17884.03
684.96	17869.99
685.09	18214.05
685.23	17706.15
685.37	17607.85
685.50	17715.51
685.64	17703.81
685.78	18003.40
685.91	17970.63
686.05	17624.23
686.19	17479.12
686.32	17713.17
686.46	17415.93
686.60	17282.52
686.73	17064.85
686.87	17074.21
687.01	17252.09
687.14	16945.48
687.28	16903.35
687.42	16683.34
687.55	16886.97
687.69	16901.01
687.82	16826.11
687.96	16893.99
688.10	16781.64
688.23	16823.77
688.37	16828.45
688.50	16716.11
688.64	16379.07
688.78	16629.51
688.91	16531.20
689.05	16435.24
689.18	16105.23
689.32	15978.84
689.46	15932.03
689.59	15939.05
689.73	15981.18
689.86	15941.39
690.00	15971.82
690.13	16044.37
690.27	16095.86
690.41	15627.76
690.54	15901.60
690.68	15838.41
690.81	15765.85
690.95	15623.08
691.08	15342.21
691.22	15651.16
691.35	15503.71
691.49	15620.74
691.62	15618.39
691.76	15227.53
691.89	15323.49
692.03	14895.17
692.16	15136.24
692.30	14789.85
692.43	14876.44
692.57	15047.30
692.70	14684.52
692.84	14846.02
692.97	14523.02
693.11	14897.51
693.24	14747.72
693.38	14808.57
693.51	14384.93
693.65	14228.12
693.78	14450.47
693.92	14281.95
694.05	14214.07
694.19	14305.35
694.32	14375.57
694.45	14094.71
694.59	13862.99
694.72	13912.14
694.86	14003.43
694.99	13895.76
695.13	13577.45
695.26	13738.94
695.39	13748.31
695.53	13764.69
695.66	13614.90
695.80	13678.09
695.93	13565.74
696.07	13881.72
696.20	13429.99
696.33	13687.45
696.47	13446.38
696.60	13415.95
696.73	13329.35
696.87	13378.50
697.00	12936.14
697.14	13156.15
697.27	12896.35
697.40	12809.75
697.54	12868.27
697.67	12727.83
697.80	13114.02
697.94	12451.65
698.07	12617.83
698.21	12547.61
698.34	12774.64
698.47	12816.77
698.61	12774.64
698.74	12521.87
698.87	12369.73
699.01	12409.52
699.14	12512.50
699.27	12128.66
699.40	12290.15
699.54	12210.57
699.67	12023.33
699.80	12276.11
699.94	12074.82
700.07	12088.87
700.20	11779.92
700.34	11918.01
700.47	11655.87
700.60	11665.23
700.73	11941.41
700.87	11566.93
701.00	11618.42
701.13	11634.80
701.26	11798.64
701.40	11730.76
701.53	11337.56
701.66	11639.48
701.79	11442.88
701.93	11410.11
702.06	11178.40
702.19	11150.31
702.32	11360.96
702.46	11014.56
702.59	11075.42
702.72	10829.66
702.85	10892.85
702.99	10855.40
703.12	10860.09
703.25	10785.19
703.38	10789.87
703.51	10785.19
703.65	10682.20
703.78	10733.70
703.91	10396.66
704.04	10569.86
704.17	10689.23
704.31	10333.47
704.44	10326.44
704.57	10328.78
704.70	10326.44
704.83	10136.86
704.96	10267.93
705.10	10104.09
705.23	10218.78
>>>>>End Processed Spectral Data<<<<<
