SpectraSuite Data File
++++++++++++++++++++++++++++++++++++
Date: Fri Oct 18 13:57:54 GMT-05:00 2013
User: bianchi
Dark Spectrum Present: No
Reference Spectrum Present: No
Number of Sampled Component Spectra: 1
Spectrometers: USB2+H05261
Integration Time (usec): 50000 (USB2+H05261)
Spectra Averaged: 1 (USB2+H05261)
Boxcar Smoothing: 0 (USB2+H05261)
Correct for Electrical Dark: No (USB2+H05261)
Strobe/Lamp Enabled: No (USB2+H05261)
Correct for Detector Non-linearity: No (USB2+H05261)
Correct for Stray Light: No (USB2+H05261)
Number of Pixels in Processed Spectrum: 2048
>>>>>Begin Processed Spectral Data<<<<<
365.73	0.00
365.92	0.00
366.12	0.00
366.32	0.00
366.52	0.00
366.72	0.00
366.91	0.00
367.11	0.00
367.31	0.00
367.51	0.00
367.70	0.00
367.90	0.00
368.10	0.00
368.30	0.00
368.49	0.00
368.69	0.00
368.89	0.00
369.09	0.00
369.28	0.00
369.48	0.00
369.68	0.00
369.87	0.00
370.07	0.00
370.27	0.00
370.47	0.00
370.66	163.84
370.86	114.69
371.06	126.39
371.25	88.94
371.45	112.35
371.65	168.52
371.84	168.52
372.04	117.03
372.24	205.97
372.44	238.73
372.63	212.99
372.83	196.60
373.03	212.99
373.22	163.84
373.42	203.63
373.62	166.18
373.81	182.56
374.01	245.76
374.21	269.16
374.40	231.71
374.60	306.61
374.79	187.24
374.99	252.78
375.19	285.55
375.38	196.60
375.58	208.31
375.78	264.48
375.97	290.23
376.17	264.48
376.37	245.76
376.56	227.03
376.76	287.89
376.95	238.73
377.15	313.63
377.35	287.89
377.54	287.89
377.74	315.97
377.93	353.42
378.13	273.84
378.33	304.27
378.52	292.57
378.72	318.31
378.91	287.89
379.11	245.76
379.31	315.97
379.50	318.31
379.70	290.23
379.89	311.29
380.09	348.74
380.28	320.65
380.48	330.02
380.68	348.74
380.87	297.25
381.07	229.37
381.26	308.95
381.46	332.36
381.65	386.19
381.85	287.89
382.04	393.21
382.24	311.29
382.43	360.44
382.63	322.99
382.83	339.38
383.02	346.40
383.22	344.06
383.41	341.72
383.61	325.33
383.80	383.85
384.00	327.68
384.19	383.85
384.39	365.12
384.58	390.87
384.78	388.53
384.97	388.53
385.17	397.89
385.36	360.44
385.56	444.70
385.75	421.30
385.95	414.27
386.14	374.49
386.34	348.74
386.53	383.85
386.72	400.23
386.92	465.77
387.11	468.11
387.31	451.72
387.50	447.04
387.70	482.15
387.89	386.19
388.09	409.59
388.28	486.83
388.48	465.77
388.67	435.34
388.86	491.51
389.06	468.11
389.25	479.81
389.45	528.96
389.64	505.56
389.84	451.72
390.03	538.32
390.22	498.53
390.42	512.58
390.61	550.03
390.81	484.49
391.00	454.06
391.19	535.98
391.39	498.53
391.58	507.90
391.78	514.92
391.97	545.34
392.16	540.66
392.36	596.84
392.55	533.64
392.75	566.41
392.94	615.56
393.13	575.77
393.33	638.97
393.52	517.26
393.71	657.69
393.91	547.69
394.10	638.97
394.29	620.24
394.49	613.22
394.68	629.60
394.88	596.84
395.07	669.39
395.26	641.31
395.46	627.26
395.65	683.44
395.84	638.97
396.04	674.07
396.23	711.52
396.42	653.01
396.62	711.52
396.81	629.60
397.00	638.97
397.19	643.65
397.39	629.60
397.58	643.65
397.77	779.40
397.97	650.67
398.16	695.14
398.35	636.63
398.55	648.33
398.74	706.84
398.93	765.36
399.12	788.76
399.32	800.46
399.51	835.57
399.70	758.33
399.90	681.10
400.09	800.46
400.28	847.27
400.47	737.27
400.67	866.00
400.86	858.98
401.05	802.80
401.24	751.31
401.44	858.98
401.63	814.51
401.82	828.55
402.01	840.25
402.21	800.46
402.40	800.46
402.59	821.53
402.78	847.27
402.97	905.79
403.17	849.61
403.36	882.38
403.55	938.55
403.74	830.89
403.93	887.06
404.13	976.00
404.32	896.43
404.51	889.40
404.70	994.73
404.89	978.34
405.09	966.64
405.28	1008.77
405.47	903.45
405.66	964.30
405.85	1018.13
406.05	961.96
406.24	1018.13
406.43	1032.18
406.62	1071.97
406.81	1071.97
407.00	1034.52
407.20	976.00
407.39	1001.75
407.58	1210.06
407.77	1116.44
407.96	1062.60
408.15	1074.31
408.34	1074.31
408.54	1008.77
408.73	1039.20
408.92	1207.72
409.11	1114.10
409.30	1188.99
409.49	1135.16
409.68	1184.31
409.87	1172.61
410.07	1235.80
410.26	1224.10
410.45	1174.95
410.64	1221.76
410.83	1350.49
411.02	1268.57
411.21	1219.42
411.40	1291.98
411.59	1275.59
411.78	1331.76
411.98	1270.91
412.17	1329.42
412.36	1350.49
412.55	1294.32
412.74	1357.51
412.93	1394.96
413.12	1392.62
413.31	1528.37
413.50	1462.83
413.69	1362.19
413.88	1465.18
414.07	1460.49
414.26	1434.75
414.45	1474.54
414.64	1582.20
414.83	1509.65
415.02	1556.46
415.22	1551.78
415.41	1626.67
415.60	1603.27
415.79	1530.71
415.98	1685.19
416.17	1514.33
416.36	1640.72
416.55	1650.08
416.74	1706.25
416.93	1692.21
417.12	1774.13
417.31	1734.34
417.50	1673.48
417.69	1790.51
417.88	1804.55
418.07	1799.87
418.26	1851.36
418.45	1790.51
418.64	1863.07
418.83	1708.59
419.02	1849.02
419.21	1849.02
419.39	1954.35
419.58	1928.60
419.77	1856.04
419.96	1921.58
420.15	1900.52
420.34	1919.24
420.53	1949.67
420.72	1963.71
420.91	1930.94
421.10	1937.96
421.29	2010.52
421.48	1846.68
421.67	1930.94
421.86	1998.82
422.05	1928.60
422.24	1935.62
422.43	1909.88
422.61	2033.93
422.80	2008.18
422.99	2090.10
423.18	2054.99
423.37	2113.50
423.56	2157.97
423.75	2045.63
423.94	1968.39
424.13	1930.94
424.32	1987.11
424.50	2101.80
424.69	2099.46
424.88	2207.13
425.07	2083.08
425.26	2092.44
425.45	2094.78
425.64	2143.93
425.83	2017.54
426.01	2118.18
426.20	2146.27
426.39	2012.86
426.58	2087.76
426.77	2181.38
426.96	2188.40
427.15	2160.31
427.33	2183.72
427.52	2197.76
427.71	2141.59
427.90	2193.08
428.09	2211.81
428.28	2319.47
428.46	2136.91
428.65	2305.43
428.84	2204.78
429.03	2249.25
429.22	2282.02
429.40	2340.54
429.59	2331.17
429.78	2232.87
429.97	2272.66
430.16	2345.22
430.34	2279.68
430.53	2331.17
430.72	2408.41
430.91	2331.17
431.10	2333.51
431.28	2359.26
431.47	2429.48
431.66	2399.05
431.85	2401.39
432.03	2431.82
432.22	2532.46
432.41	2410.75
432.60	2485.65
432.79	2523.10
432.97	2626.08
433.16	2530.12
433.35	2579.27
433.54	2621.40
433.72	2509.05
433.91	2558.21
434.10	2476.29
434.28	2471.61
434.47	2609.70
434.66	2595.65
434.85	2719.70
435.03	2766.51
435.22	2682.25
435.41	2715.02
435.59	2684.59
435.78	2766.51
435.97	2862.48
436.16	2637.78
436.34	2698.64
436.53	2689.28
436.72	2829.71
436.90	2684.59
437.09	2874.18
437.28	2684.59
437.46	2775.88
437.65	2855.45
437.84	2918.65
438.02	2888.22
438.21	2867.16
438.40	2848.43
438.58	3019.29
438.77	3016.95
438.96	2860.13
439.14	3091.85
439.33	2984.18
439.52	3119.93
439.70	2986.52
439.89	3159.72
440.08	3176.11
440.26	3054.40
440.45	3066.10
440.63	3176.11
440.82	3353.99
441.01	3129.30
441.19	3253.34
441.38	3267.39
441.57	3267.39
441.75	3255.69
441.94	3328.24
442.12	3382.07
442.31	3419.52
442.50	3468.67
442.68	3478.04
442.87	3403.14
443.05	3346.97
443.24	3475.70
443.43	3466.33
443.61	3480.38
443.80	3517.83
443.98	3543.57
444.17	3363.35
444.35	3386.76
444.54	3510.80
444.73	3471.01
444.91	3461.65
445.10	3531.87
445.28	3531.87
445.47	3489.74
445.65	3576.34
445.84	3627.83
446.02	3627.83
446.21	3494.42
446.39	3634.85
446.58	3574.00
446.77	3609.11
446.95	3492.08
447.14	3548.25
447.32	3576.34
447.51	3609.11
447.69	3520.17
447.88	3578.68
448.06	3691.02
448.25	3672.30
448.43	3756.56
448.62	3667.62
448.80	3698.05
448.99	3555.27
449.17	3529.53
449.36	3798.69
449.54	3754.22
449.73	3810.39
449.91	3962.53
450.10	3772.94
450.28	3894.65
450.46	3817.41
450.65	3861.88
450.83	3857.20
451.02	3859.54
451.20	3927.42
451.39	3997.64
451.57	3824.44
451.76	3819.75
451.94	4016.36
452.13	3992.95
452.31	3815.07
452.49	3899.33
452.68	3997.64
452.86	4023.38
453.05	4154.45
453.23	3983.59
453.42	3843.16
453.60	3918.06
453.78	3948.48
453.97	4009.34
454.15	3971.89
454.34	3960.19
454.52	4032.74
454.70	4255.09
454.89	4280.84
455.07	4140.41
455.26	4264.46
455.44	4177.86
455.62	4182.54
455.81	4072.53
455.99	4304.25
456.17	4133.39
456.36	4376.80
456.54	4484.47
456.73	4360.42
456.91	4379.14
457.09	4418.93
457.28	4409.57
457.46	4456.38
457.64	4594.47
457.83	4428.29
458.01	4315.95
458.19	4461.06
458.38	4561.70
458.56	4648.30
458.74	4470.42
458.93	4587.45
459.11	4571.07
459.29	4718.52
459.48	4669.37
459.66	4627.24
459.84	4760.65
460.03	4781.71
460.21	4643.62
460.39	4594.47
460.57	4641.28
460.76	4739.58
460.94	4650.64
461.12	4826.18
461.31	4788.74
461.49	4807.46
461.67	4741.93
461.85	4915.12
462.04	4903.42
462.22	5200.67
462.40	4844.91
462.59	4983.00
462.77	4880.02
462.95	5076.62
463.13	4910.44
463.32	5004.07
463.50	5039.17
463.68	4961.94
463.86	4945.55
464.05	5050.88
464.23	4964.28
464.41	4985.34
464.59	4926.83
464.78	5153.86
464.96	5083.64
465.14	5055.56
465.32	5116.41
465.50	5334.08
465.69	5130.45
465.87	5282.59
466.05	5095.35
466.23	5149.18
466.41	5144.50
466.60	5343.44
466.78	5256.84
466.96	5053.22
467.14	5287.27
467.32	5245.14
467.51	5313.02
467.69	5039.17
467.87	5268.55
468.05	5371.53
468.23	5284.93
468.41	5303.65
468.60	5387.91
468.78	5504.94
468.96	5317.70
469.14	5481.53
469.32	5586.86
469.50	5418.34
469.69	5451.11
469.87	5467.49
470.05	5617.29
470.23	5577.50
470.41	5753.04
470.59	5600.90
470.77	5453.45
470.95	5647.71
471.14	5584.52
471.32	5589.20
471.50	5722.61
471.68	5865.38
471.86	5949.64
472.04	5785.80
472.22	5874.74
472.40	5832.62
472.58	6008.16
472.77	6008.16
472.95	5823.25
473.13	6167.31
473.31	5895.81
473.49	6108.80
473.67	6017.52
473.85	5909.85
474.03	6282.00
474.21	6155.61
474.39	6340.51
474.57	6260.93
474.75	6293.70
474.93	6380.30
475.12	6183.70
475.30	6464.56
475.48	6237.53
475.66	6553.50
475.84	6324.13
476.02	6359.24
476.20	6363.92
476.38	6700.95
476.56	6733.72
476.74	6789.89
476.92	6651.80
477.10	6843.73
477.28	6958.41
477.46	6895.22
477.64	6906.92
477.82	7101.19
478.00	7164.38
478.18	7171.40
478.36	7150.34
478.54	7222.89
478.72	7213.53
478.90	7412.48
479.08	7194.81
479.26	7372.69
479.44	7475.67
479.62	7470.99
479.80	7623.12
479.98	7698.02
480.16	7868.88
480.34	7878.24
480.52	7728.45
480.70	7929.74
480.88	7754.19
481.06	7918.03
481.24	7971.86
481.41	8095.91
481.59	8138.04
481.77	8285.50
481.95	8224.64
482.13	8421.25
482.31	8189.53
482.49	8615.51
482.67	8507.85
482.85	8849.57
483.03	8681.05
483.21	8835.52
483.39	9027.45
483.57	9008.72
483.74	8966.59
483.92	8887.01
484.10	8929.14
484.28	9132.77
484.46	9289.59
484.64	9315.33
484.82	9322.35
485.00	9305.97
485.18	9516.62
485.35	9570.45
485.53	9745.99
485.71	9760.03
485.89	9870.04
486.07	9853.66
486.25	9818.55
486.43	9865.36
486.61	9909.83
486.78	10148.56
486.96	10260.91
487.14	10534.75
487.32	10373.25
487.50	10504.32
487.68	10567.52
487.85	10452.83
488.03	10724.33
488.21	10768.80
488.39	10611.99
488.57	10850.72
488.75	11005.20
488.92	11234.57
489.10	11215.85
489.28	11255.64
489.46	11489.69
489.64	11396.07
489.81	11489.69
489.99	11569.27
490.17	11754.17
490.35	11843.11
490.53	11723.74
490.70	11847.79
490.88	12121.63
491.06	12287.81
491.24	11995.25
491.41	12262.07
491.59	12400.16
491.77	12535.91
491.95	12575.70
492.13	12741.88
492.30	12760.60
492.48	12718.47
492.66	12603.78
492.84	12491.44
493.01	13217.01
493.19	12882.31
493.37	13074.23
493.54	13284.88
493.72	13380.84
493.90	13099.98
494.08	13460.42
494.25	13455.74
494.43	13699.16
494.61	13757.67
494.79	13860.65
494.96	13846.61
495.14	13818.52
495.32	13928.53
495.49	13982.36
495.67	14005.77
495.85	14094.71
496.02	14001.08
496.20	14499.62
496.38	14258.54
496.55	14270.25
496.73	14647.07
496.91	14293.65
497.09	14806.23
497.26	14785.16
497.44	14944.32
497.62	14743.03
497.79	14937.30
497.97	14801.55
498.14	15398.38
498.32	15115.18
498.50	15571.58
498.67	15412.43
498.85	15501.37
499.03	15477.96
499.20	15412.43
499.38	15648.82
499.56	15517.75
499.73	15798.62
499.91	15896.92
500.08	15817.34
500.26	15922.66
500.44	16065.44
500.61	16116.93
500.79	15829.04
500.97	16140.33
501.14	16493.76
501.32	16320.56
501.49	16140.33
501.67	16194.17
501.84	16346.30
502.02	16327.58
502.20	16751.21
502.37	16915.05
502.55	16641.21
502.72	16886.97
502.90	17085.91
503.07	16863.56
503.25	16676.32
503.43	16744.19
503.60	16788.66
503.78	17336.35
503.95	17294.22
504.13	17055.48
504.30	17015.69
504.48	17064.85
504.65	17434.65
504.83	17619.55
505.01	17607.85
505.18	17502.53
505.36	17476.78
505.53	17537.63
505.71	17596.15
505.88	17736.58
506.06	17584.44
506.23	17783.39
506.41	17855.95
506.58	17898.08
506.76	18050.21
506.93	18232.77
507.11	17921.48
507.28	18197.67
507.46	18169.58
507.63	18260.86
507.81	18743.01
507.98	18305.33
508.16	18597.90
508.33	18347.46
508.50	18363.84
508.68	18728.97
508.85	18754.71
509.03	18513.64
509.20	18876.42
509.38	19037.92
509.55	19049.62
509.73	19000.47
509.90	19005.15
510.08	18981.74
510.25	18829.61
510.42	19173.67
510.60	19641.78
510.77	19178.35
510.95	19190.05
511.12	19150.26
511.30	19339.85
511.47	19503.68
511.64	19470.92
511.82	19414.74
511.99	19751.78
512.17	19861.79
512.34	19634.75
512.51	20229.25
512.69	19658.16
512.86	19894.55
513.04	20063.07
513.21	20123.93
513.38	19988.18
513.56	20098.18
513.73	20156.69
513.90	20109.88
514.08	19924.98
514.25	20507.77
514.43	20367.34
514.60	20608.42
514.77	20456.28
514.95	20503.09
515.12	20573.31
515.29	20706.72
515.47	20603.74
515.64	20706.72
515.81	20725.44
515.99	20400.11
516.16	21172.49
516.33	20924.39
516.51	21247.38
516.68	20790.98
516.85	20851.83
517.03	21235.68
517.20	21078.86
517.37	20947.79
517.54	21181.85
517.72	21280.15
517.89	21235.68
518.06	21446.33
518.24	21394.84
518.41	21209.93
518.58	21565.70
518.75	21525.91
518.93	21916.78
519.10	21404.20
519.27	21902.73
519.45	21575.06
519.62	21734.21
519.79	21818.47
519.96	21612.51
520.14	21891.03
520.31	21956.57
520.48	22190.62
520.65	22099.34
520.83	22160.19
521.00	22139.13
521.17	22082.95
521.34	21970.61
521.52	22293.60
521.69	22546.38
521.86	22375.52
522.03	22508.93
522.20	22494.89
522.38	22647.02
522.55	22405.95
522.72	22789.80
522.89	22464.46
523.07	22841.29
523.24	23068.32
523.41	23211.09
523.58	22710.22
523.75	23173.64
523.92	22998.10
524.10	22888.10
524.27	23328.12
524.44	23300.03
524.61	23351.52
524.78	23293.01
524.96	23398.34
525.13	23309.40
525.30	23360.89
525.47	23435.78
525.64	23246.20
525.81	23541.11
525.98	23697.92
526.16	22939.59
526.33	23744.73
526.50	23756.44
526.67	23969.43
526.84	23449.83
527.01	23529.41
527.18	23349.18
527.36	23625.37
527.53	24163.69
527.70	23833.68
527.87	24320.51
528.04	23995.17
528.21	24161.35
528.38	23988.15
528.55	24194.12
528.72	24100.50
528.89	24418.81
529.07	24285.40
529.24	24140.29
529.41	24341.57
529.58	24306.46
529.75	23997.51
529.92	24620.10
530.09	24205.82
530.26	24470.30
530.43	24617.75
530.60	24327.53
530.77	24493.71
530.94	24470.30
531.11	24276.04
531.28	24538.18
531.46	24765.21
531.63	25057.78
531.80	24683.29
531.97	25008.62
532.14	24987.56
532.31	25085.86
532.48	24535.84
532.65	25036.71
532.82	24769.89
532.99	24634.14
533.16	24910.32
533.33	25263.74
533.50	25516.52
533.67	25181.82
533.84	25245.02
534.01	25139.69
534.18	25170.12
534.35	25458.01
534.52	25376.09
534.69	25750.57
534.86	25993.99
535.03	25436.94
535.20	25142.03
535.37	25951.86
535.54	25355.02
535.71	25390.13
535.88	25631.21
536.05	25734.19
536.22	25750.57
536.38	25970.58
536.55	25731.85
536.72	25731.85
536.89	25919.09
537.06	25895.69
537.23	26054.84
537.40	25734.19
537.57	25961.22
537.74	25869.94
537.91	26534.65
538.08	26335.71
538.25	25998.67
538.42	26176.55
538.59	26057.18
538.75	26054.84
538.92	26206.98
539.09	26223.36
539.26	26410.60
539.43	26705.51
539.60	26235.06
539.77	26221.02
539.94	26499.55
540.11	26536.99
540.28	26267.83
540.44	26705.51
540.61	26824.88
540.78	26518.27
540.95	26553.38
541.12	26824.88
541.29	26668.06
541.46	26450.39
541.62	26316.98
541.79	26632.96
541.96	26600.19
542.13	26754.66
542.30	26796.79
542.47	26969.99
542.63	27229.79
542.80	27185.32
542.97	27250.86
543.14	27194.68
543.31	26843.60
543.48	27030.85
543.64	27594.92
543.81	27440.44
543.98	27452.14
544.15	27625.34
544.32	27587.89
544.48	27129.15
544.65	27414.69
544.82	27807.90
544.99	27398.31
545.16	27784.50
545.32	27309.37
545.49	28311.12
545.66	27725.99
545.83	27770.46
546.00	27665.13
546.16	27594.92
546.33	27527.04
546.50	27344.48
546.67	28222.18
546.83	27402.99
547.00	27662.79
547.17	27417.04
547.34	27899.19
547.50	27667.47
547.67	27789.18
547.84	28322.82
548.00	28182.39
548.17	28531.13
548.34	28285.37
548.51	28240.90
548.67	28133.24
548.84	28210.48
549.01	28435.17
549.18	28037.28
549.34	28121.54
549.51	28383.68
549.68	28388.36
549.84	28329.84
550.01	28453.89
550.18	28369.63
550.34	28212.82
550.51	28615.39
550.68	28559.22
550.84	28538.15
551.01	28713.69
551.18	28367.29
551.34	28645.82
551.51	28425.81
551.68	28306.44
551.84	29130.31
552.01	28627.09
552.18	28914.98
552.34	28926.68
552.51	28959.45
552.68	28950.09
552.84	29036.69
553.01	29067.11
553.18	28725.39
553.34	29055.41
553.51	28842.42
553.67	29010.94
553.84	29076.48
554.01	29027.32
554.17	28985.19
554.34	29055.41
554.51	28975.83
554.67	28940.72
554.84	29254.36
555.00	29507.13
555.17	29479.05
555.33	29511.81
555.50	29404.15
555.67	29420.53
555.83	28975.83
556.00	29507.13
556.16	29357.34
556.33	29174.78
556.50	29228.61
556.66	29528.20
556.83	29228.61
556.99	29333.93
557.16	29600.76
557.32	29888.64
557.49	29710.76
557.65	29591.39
557.82	29172.44
557.98	29371.38
558.15	29565.65
558.32	29610.12
558.48	29617.14
558.65	29935.45
558.81	29797.36
558.98	29663.95
559.14	29575.01
559.31	29752.89
559.47	29472.03
559.64	29542.24
559.80	29689.70
559.97	30040.78
560.13	30096.95
560.30	30162.48
560.46	29851.19
560.63	29734.17
560.79	29736.51
560.96	29921.41
561.12	29914.39
561.29	29694.38
561.45	29823.11
561.61	30139.08
561.78	30047.80
561.94	30178.87
562.11	30223.34
562.27	29479.05
562.44	29729.48
562.60	29830.13
562.77	30031.41
562.93	29788.00
563.10	30197.59
563.26	29954.18
563.42	30204.61
563.59	29996.31
563.75	30150.78
563.92	30176.53
564.08	30375.47
564.24	30120.35
564.41	30033.75
564.57	30331.00
564.74	30363.77
564.90	30576.76
565.07	30321.64
565.23	30616.55
565.39	30277.17
565.56	30291.21
565.72	30581.44
565.88	30368.45
566.05	30155.46
566.21	30464.41
566.38	30235.04
566.54	30387.18
566.70	30342.70
566.87	30646.97
567.03	30366.11
567.19	30972.31
567.36	30586.12
567.52	30476.12
567.68	30349.73
567.85	30515.90
568.01	30668.04
568.17	30155.46
568.34	30911.46
568.50	30909.11
568.66	30691.44
568.83	30478.46
568.99	30553.35
569.15	30579.10
569.32	30459.73
569.48	30328.66
569.64	30560.37
569.81	31171.25
569.97	30675.06
570.13	30827.20
570.30	30258.45
570.46	30684.42
570.62	30705.49
570.78	30672.72
570.95	30543.99
571.11	30707.83
571.27	30373.13
571.43	30761.66
571.60	30630.59
571.76	30611.87
571.92	30934.86
572.09	30689.10
572.25	31077.63
572.41	30501.86
572.57	30658.68
572.74	30976.99
572.90	30356.75
573.06	30810.81
573.22	30834.22
573.38	30583.78
573.55	30625.91
573.71	31138.49
573.87	31281.26
574.03	30782.73
574.20	30775.70
574.36	30396.54
574.52	30752.30
574.68	30986.35
574.84	30925.50
575.01	30565.06
575.17	30913.80
575.33	31229.77
575.49	30991.03
575.65	30874.01
575.82	31051.89
575.98	30656.34
576.14	30462.07
576.30	30974.65
576.46	30988.69
576.62	30710.17
576.79	30787.41
576.95	30892.73
577.11	31164.23
577.27	31035.50
577.43	31206.36
577.59	31253.17
577.75	30515.90
577.92	30899.75
578.08	30679.74
578.24	31065.93
578.40	31283.60
578.56	31009.76
578.72	30773.36
578.88	31253.17
579.04	31262.54
579.21	31122.10
579.37	31115.08
579.53	31173.60
579.69	30728.89
579.85	30890.39
580.01	31019.12
580.17	30890.39
580.33	30951.24
580.49	30902.09
580.65	31337.43
580.82	31204.02
580.98	31035.50
581.14	31164.23
581.30	30869.33
581.46	30719.53
581.62	31321.05
581.78	31082.31
581.94	31049.55
582.10	31309.35
582.26	31063.59
582.42	31154.87
582.58	31391.26
582.74	31145.51
582.90	31440.42
583.06	31335.09
583.22	31236.79
583.38	31204.02
583.54	31475.52
583.70	30920.82
583.86	31335.09
584.02	30773.36
584.18	31304.67
584.34	31386.58
584.50	31590.21
584.66	31466.16
584.82	30747.62
584.98	31145.51
585.14	31026.14
585.30	31007.42
585.46	30958.27
585.62	30672.72
585.78	30843.58
585.94	30700.81
586.10	31175.94
586.26	31185.30
586.42	31683.83
586.58	31143.17
586.74	31421.69
586.90	30644.63
587.06	31042.53
587.22	31323.39
587.38	30850.60
587.54	31316.37
587.70	31477.86
587.86	31391.26
588.02	31405.31
588.18	31821.92
588.34	31559.78
588.49	31583.19
588.65	31124.44
588.81	31276.58
588.97	31339.77
589.13	31349.14
589.29	31215.72
589.45	31758.73
589.61	31732.98
589.77	31761.07
589.93	31356.16
590.08	31456.80
590.24	31658.09
590.40	31620.64
590.56	31679.15
590.72	31264.88
590.88	31428.71
591.04	31531.70
591.20	31704.90
591.35	31662.77
591.51	31824.26
591.67	31653.40
591.83	31999.80
591.99	31363.18
592.15	32095.77
592.31	31894.48
592.46	31522.34
592.62	31335.09
592.78	31269.56
592.94	31241.47
593.10	31960.02
593.26	31880.44
593.41	31714.26
593.57	31288.28
593.73	31597.23
593.89	31772.77
594.05	31297.64
594.20	31477.86
594.36	31658.09
594.52	31445.10
594.68	31569.15
594.84	31674.47
594.99	31992.78
595.15	31655.75
595.31	31576.17
595.47	31857.03
595.62	32060.66
595.78	32102.79
595.94	31431.05
596.10	31679.15
596.25	31735.32
596.41	31632.34
596.57	31360.84
596.73	31835.97
596.88	31424.03
597.04	31758.73
597.20	32091.09
597.36	31887.46
597.51	31777.45
597.67	31777.45
597.83	31515.31
597.99	31999.80
598.14	31889.80
598.30	31735.32
598.46	31758.73
598.61	31681.49
598.77	31707.24
598.93	31878.10
599.09	32016.19
599.24	32238.54
599.40	31859.37
599.56	31742.35
599.71	32105.13
599.87	32673.88
600.03	31878.10
600.18	31531.70
600.34	31667.45
600.50	31859.37
600.65	31723.62
600.81	32009.17
600.97	31936.61
601.12	32128.53
601.28	32346.20
601.44	31751.71
601.59	32048.96
601.75	31594.89
601.91	32128.53
602.06	31519.99
602.22	31758.73
602.37	31740.00
602.53	31611.28
602.69	31924.91
602.84	32250.24
603.00	32318.12
603.16	31690.85
603.31	32095.77
603.47	31950.65
603.62	31765.75
603.78	31749.37
603.94	31435.74
604.09	31639.36
604.25	31545.74
604.40	31702.56
604.56	31875.76
604.71	32187.05
604.87	32088.74
605.03	32121.51
605.18	31756.39
605.34	31929.59
605.49	31786.82
605.65	31744.69
605.80	31651.06
605.96	31716.60
606.12	31536.38
606.27	31908.52
606.43	31754.05
606.58	32020.87
606.74	31480.21
606.89	32236.20
607.05	31424.03
607.20	31960.02
607.36	31529.36
607.51	31880.44
607.67	31887.46
607.82	31178.28
607.98	31711.92
608.13	31913.20
608.29	31850.01
608.44	31763.41
608.60	31807.88
608.75	31651.06
608.91	31578.51
609.06	31859.37
609.22	31835.97
609.37	31253.17
609.53	31763.41
609.68	31587.87
609.84	31777.45
609.99	31622.98
610.15	31821.92
610.30	31665.11
610.46	31318.71
610.61	31470.84
610.76	31882.78
610.92	31721.28
611.07	31578.51
611.23	31576.17
611.38	31311.69
611.54	31475.52
611.69	31220.41
611.84	31351.48
612.00	31353.82
612.15	31309.35
612.31	31999.80
612.46	31260.20
612.62	31697.88
612.77	31648.72
612.92	31615.96
613.08	31641.70
613.23	31342.11
613.39	31194.66
613.54	30995.71
613.69	31339.77
613.85	31236.79
614.00	31248.49
614.15	31639.36
614.31	31438.08
614.46	31676.81
614.62	31438.08
614.77	31068.27
614.92	31154.87
615.08	31213.38
615.23	31590.21
615.38	30845.92
615.54	30897.41
615.69	31285.94
615.84	31220.41
616.00	31014.44
616.15	31129.12
616.30	31454.46
616.46	31159.55
616.61	31068.27
616.76	31599.57
616.92	31166.57
617.07	30827.20
617.22	30920.82
617.37	31054.23
617.53	31260.20
617.68	30862.30
617.83	30775.70
617.99	30953.58
618.14	30836.56
618.29	30979.33
618.45	31079.97
618.60	31110.40
618.75	31257.85
618.90	30806.13
619.06	30663.36
619.21	30948.90
619.36	31005.08
619.51	30686.76
619.67	30335.68
619.82	30583.78
619.97	30789.75
620.12	30455.05
620.28	30555.69
620.43	30984.01
620.58	31211.04
620.73	30960.61
620.89	30441.01
621.04	30953.58
621.19	30979.33
621.34	30567.40
621.49	30153.12
621.65	30429.30
621.80	30661.02
621.95	29951.84
622.10	30258.45
622.25	30450.37
622.41	30345.05
622.56	30630.59
622.71	30548.67
622.86	30345.05
623.01	30534.63
623.16	30328.66
623.32	30686.76
623.47	30621.23
623.62	30497.18
623.77	30232.70
623.92	30417.60
624.07	30764.00
624.23	30228.02
624.38	30377.81
624.53	30064.18
624.68	30471.43
624.83	30441.01
624.98	30195.25
625.13	30398.88
625.29	30012.69
625.44	30036.09
625.59	30405.90
625.74	29963.54
625.89	30153.12
626.04	29757.57
626.19	29605.44
626.34	29905.02
626.49	30307.60
626.65	30286.53
626.80	30082.91
626.95	30155.46
627.10	29895.66
627.25	30022.05
627.40	29951.84
627.55	29448.62
627.70	30022.05
627.85	29713.10
628.00	29563.31
628.15	29619.48
628.30	29528.20
628.45	29530.54
628.60	29504.79
628.76	29780.98
628.91	29659.27
629.06	29825.45
629.21	29738.85
629.36	29982.26
629.51	29633.52
629.66	29886.30
629.81	29488.41
629.96	29142.01
630.11	29572.67
630.26	29530.54
630.41	29542.24
630.56	29329.25
630.71	29649.91
630.86	29572.67
631.01	29689.70
631.16	29699.06
631.31	29537.56
631.46	29340.96
631.61	29577.35
631.76	29532.88
631.91	29259.04
632.06	29200.52
632.21	29109.24
632.36	29214.57
632.51	29062.43
632.66	29600.76
632.81	29230.95
632.96	29289.46
633.10	29144.35
633.25	29413.51
633.40	29425.22
633.55	29259.04
633.70	29158.39
633.85	28767.52
634.00	28517.09
634.15	28952.43
634.30	29083.50
634.45	28922.00
634.60	28896.25
634.75	29074.13
634.90	28959.45
635.05	29085.84
635.19	28833.06
635.34	29064.77
635.49	29270.74
635.64	28954.77
635.79	29268.40
635.94	28964.13
636.09	29266.06
636.24	28884.55
636.39	28896.25
636.53	28758.16
636.68	28758.16
636.83	29057.75
636.98	28936.04
637.13	28713.69
637.28	28802.63
637.43	28882.21
637.57	28943.06
637.72	28613.05
637.87	28802.63
638.02	29125.63
638.17	28629.43
638.32	28629.43
638.46	28453.89
638.61	28533.47
638.76	28390.70
638.91	28552.20
639.06	28587.30
639.20	28811.99
639.35	28458.57
639.50	28570.92
639.65	28622.41
639.80	28336.87
639.94	28353.25
640.09	28786.25
640.24	28580.28
640.39	28755.82
640.54	28425.81
640.68	28467.94
640.83	28271.33
640.98	28119.20
641.13	27751.73
641.27	28210.48
641.42	28119.20
641.57	28238.56
641.72	28245.58
641.86	28332.18
642.01	28009.19
642.16	28283.03
642.31	28278.35
642.45	28189.41
642.60	27674.49
642.75	27960.04
642.90	27662.79
643.04	27920.25
643.19	28072.39
643.34	28004.51
643.48	28030.26
643.63	27892.16
643.78	28105.15
643.93	27742.37
644.07	28247.93
644.22	28067.70
644.37	28034.94
644.51	28137.92
644.66	28074.73
644.81	27601.94
644.95	28112.17
645.10	27971.74
645.25	28081.75
645.39	27747.05
645.54	27871.10
645.69	27496.61
645.83	27594.92
645.98	27761.09
646.13	27843.01
646.27	28030.26
646.42	27850.03
646.57	27831.31
646.71	27782.16
646.86	27625.34
647.00	27777.48
647.15	27697.90
647.30	27615.98
647.44	27307.03
647.59	27225.11
647.74	27271.92
647.88	27594.92
648.03	27285.97
648.17	27786.84
648.32	27838.33
648.47	27456.82
648.61	27529.38
648.76	27550.45
648.90	27494.27
649.05	27431.08
649.20	27515.34
649.34	27400.65
649.49	26927.86
649.63	27388.95
649.78	26955.95
649.92	27047.23
650.07	27250.86
650.21	27597.26
650.36	27433.42
650.51	27325.75
650.65	27260.22
650.80	27168.94
650.94	26953.61
651.09	26745.30
651.23	26815.52
651.38	27440.44
651.52	26920.84
651.67	27054.25
651.81	27070.64
651.96	27150.21
652.10	27143.19
652.25	27126.81
652.39	27049.57
652.54	27147.87
652.68	26878.71
652.83	26920.84
652.97	26890.41
653.12	27175.96
653.26	26995.74
653.41	27072.98
653.55	26616.57
653.70	26555.72
653.84	26768.71
653.99	27049.57
654.13	26916.16
654.27	26792.11
654.42	26338.05
654.56	27105.74
654.71	26773.39
654.85	26637.64
655.00	27002.76
655.14	26639.98
655.29	26707.85
655.43	26871.69
655.57	26529.97
655.72	26579.12
655.86	26434.01
656.01	26569.76
656.15	26567.42
656.30	26244.43
656.44	26597.85
656.58	26143.78
656.73	26197.62
656.87	26422.31
657.01	26307.62
657.16	26338.05
657.30	26569.76
657.45	26766.37
657.59	26307.62
657.73	26408.26
657.88	26052.50
658.02	26356.77
658.16	26361.45
658.31	25965.90
658.45	26258.47
658.60	25741.21
658.74	26225.70
658.88	26010.37
659.03	26005.69
659.17	25834.83
659.31	26244.43
659.46	25961.22
659.60	25743.55
659.74	26132.08
659.89	25902.71
660.03	25923.77
660.17	26005.69
660.32	25867.60
660.46	26080.59
660.60	25593.76
660.74	25497.80
660.89	25876.96
661.03	25252.04
661.17	25596.10
661.32	25586.74
661.46	25708.44
661.60	25544.61
661.74	25633.55
661.89	25722.49
662.03	25724.83
662.17	25298.85
662.31	25455.67
662.46	25678.02
662.60	25343.32
662.74	25420.56
662.88	25591.42
663.03	25106.93
663.17	25186.50
663.31	24952.45
663.45	24968.84
663.60	24933.73
663.74	24968.84
663.88	25202.89
664.02	25139.69
664.17	25294.17
664.31	25228.63
664.45	24999.26
664.59	24931.39
664.73	24786.27
664.88	24879.89
665.02	24580.31
665.16	24774.57
665.30	24348.59
665.44	24687.97
665.59	24285.40
665.73	24692.65
665.87	24383.70
666.01	24477.32
666.15	24505.41
666.29	24458.60
666.44	24620.10
666.58	24631.80
666.72	24142.63
666.86	24276.04
667.00	24547.54
667.14	24147.31
667.28	24353.27
667.43	24238.59
667.57	24446.90
667.71	24430.51
667.85	23887.51
667.99	24133.26
668.13	24313.48
668.27	23821.97
668.41	24098.16
668.56	23812.61
668.70	23964.75
668.84	23955.38
668.98	24006.87
669.12	24182.42
669.26	23702.61
669.40	23789.20
669.54	24137.94
669.68	23775.16
669.82	23295.35
669.96	23761.12
670.10	23454.51
670.25	23449.83
670.39	23367.91
670.53	23309.40
670.67	23344.50
670.81	23384.29
670.95	23187.69
671.09	23351.52
671.23	23344.50
671.37	23129.17
671.51	23461.53
671.65	23180.67
671.79	22972.36
671.93	23241.52
672.07	23199.39
672.21	23016.83
672.35	22848.31
672.49	22712.56
672.63	22953.63
672.77	22656.39
672.91	22740.64
673.05	22771.07
673.19	22611.92
673.33	22546.38
673.47	22632.98
673.61	22927.89
673.75	22471.48
673.89	22356.80
674.03	22466.80
674.17	22403.61
674.31	22211.68
674.45	22291.26
674.59	22508.93
674.73	22338.07
674.87	22188.28
675.01	21954.22
675.15	22047.85
675.29	22150.83
675.43	21879.33
675.56	21776.34
675.70	21593.78
675.84	21989.33
675.98	21565.70
676.12	21820.81
676.26	21869.97
676.40	21603.14
676.54	21837.20
676.68	21568.04
676.82	21294.19
676.96	21366.75
677.10	21322.28
677.23	20961.84
677.37	21558.67
677.51	21018.01
677.65	21385.47
677.79	21069.50
677.93	20889.28
678.07	20900.98
678.21	20957.16
678.34	20720.76
678.48	20301.81
678.62	20884.60
678.76	20563.95
678.90	20353.30
679.04	20594.37
679.18	20725.44
679.31	20428.20
679.45	20449.26
679.59	20369.68
679.73	19800.93
679.87	20030.30
680.00	19939.02
680.14	20023.28
680.28	20130.95
680.42	20175.42
680.56	19620.71
680.70	19885.19
680.83	19758.80
680.97	19957.75
681.11	19866.47
681.25	19810.29
681.39	19747.10
681.52	19674.54
681.66	19283.67
681.80	19592.62
681.94	19239.20
682.07	19129.20
682.21	19513.05
682.35	19124.52
682.49	19023.87
682.62	18930.25
682.76	19302.40
682.90	18979.40
683.04	18988.77
683.17	18850.67
683.31	18771.10
683.45	19016.85
683.59	18752.37
683.72	18574.49
683.86	18728.97
684.00	18501.93
684.13	18448.10
684.27	18246.82
684.41	18176.60
684.55	17980.00
684.68	18118.09
684.82	17898.08
684.96	18106.38
685.09	18043.19
685.23	17935.53
685.37	17839.56
685.50	18118.09
685.64	17877.01
685.78	17809.14
685.91	17881.69
686.05	18003.40
686.19	17626.57
686.32	17738.92
686.46	17549.34
686.60	17334.01
686.73	17408.90
686.87	17467.42
687.01	17209.96
687.14	17254.43
687.28	16751.21
687.42	17027.40
687.55	16945.48
687.69	16835.47
687.82	16882.28
687.96	17083.57
688.10	16741.85
688.23	16954.84
688.37	16751.21
688.50	16592.06
688.64	16795.68
688.78	16554.61
688.91	16456.31
689.05	16791.00
689.18	16149.70
689.32	16348.64
689.46	16009.26
689.59	16011.60
689.73	16027.99
689.86	16009.26
690.00	16002.24
690.13	16116.93
690.27	15922.66
690.41	16166.08
690.54	15910.96
690.68	15992.88
690.81	16072.46
690.95	15836.06
691.08	15934.37
691.22	15538.82
691.35	15761.17
691.49	15819.68
691.62	15562.22
691.76	15281.36
691.89	15389.02
692.03	15243.91
692.16	15077.73
692.30	14745.38
692.43	14934.96
692.57	14899.85
692.70	14930.28
692.84	14841.34
692.97	14941.98
693.11	14682.18
693.24	14780.48
693.38	14839.00
693.51	14686.86
693.65	14633.03
693.78	14904.53
693.92	14567.49
694.05	14569.83
694.19	14258.54
694.32	14286.63
694.45	14230.46
694.59	13954.27
694.72	14122.79
694.86	13666.39
694.99	13973.00
695.13	13912.14
695.26	14001.08
695.39	13518.93
695.53	13799.80
695.66	13738.94
695.80	13600.85
695.93	13703.84
696.07	13731.92
696.20	13830.23
696.33	13540.00
696.47	13577.45
696.60	13717.88
696.73	13247.43
696.87	13383.18
697.00	13495.53
697.14	13144.45
697.27	13008.70
697.40	13057.85
697.54	13095.30
697.67	12912.74
697.80	12629.53
697.94	12685.70
698.07	12709.11
698.21	12807.41
698.34	12798.05
698.47	12706.77
698.61	12819.11
698.74	12636.55
698.87	12805.07
699.01	12533.57
699.14	12203.55
699.27	12500.80
699.40	12341.64
699.54	12170.79
699.67	12095.89
699.80	12093.55
699.94	12020.99
700.07	12119.29
700.20	11978.86
700.34	12114.61
700.47	11974.18
700.60	11772.89
700.73	11810.34
700.87	11815.02
701.00	11620.76
701.13	11693.32
701.26	11592.67
701.40	11714.38
701.53	11438.20
701.66	11695.66
701.79	11447.56
701.93	11501.39
702.06	11367.98
702.19	11110.52
702.32	11143.29
702.46	11007.54
702.59	11122.23
702.72	11056.69
702.85	10822.64
702.99	10780.51
703.12	10778.17
703.25	10932.64
703.38	10946.69
703.51	10841.36
703.65	10724.33
703.78	10604.97
703.91	10707.95
704.04	10871.79
704.17	10590.92
704.31	10616.67
704.44	10527.73
704.57	10480.92
704.70	10361.55
704.83	10160.27
704.96	10377.94
705.10	10178.99
705.23	10111.11
>>>>>End Processed Spectral Data<<<<<
