SpectraSuite Data File
++++++++++++++++++++++++++++++++++++
Date: Fri Oct 18 13:58:08 GMT-05:00 2013
User: bianchi
Dark Spectrum Present: No
Reference Spectrum Present: No
Number of Sampled Component Spectra: 1
Spectrometers: USB2+H05261
Integration Time (usec): 50000 (USB2+H05261)
Spectra Averaged: 1 (USB2+H05261)
Boxcar Smoothing: 0 (USB2+H05261)
Correct for Electrical Dark: No (USB2+H05261)
Strobe/Lamp Enabled: No (USB2+H05261)
Correct for Detector Non-linearity: No (USB2+H05261)
Correct for Stray Light: No (USB2+H05261)
Number of Pixels in Processed Spectrum: 2048
>>>>>Begin Processed Spectral Data<<<<<
365.73	0.00
365.92	0.00
366.12	0.00
366.32	0.00
366.52	0.00
366.72	0.00
366.91	0.00
367.11	0.00
367.31	0.00
367.51	0.00
367.70	0.00
367.90	0.00
368.10	0.00
368.30	0.00
368.49	0.00
368.69	0.00
368.89	0.00
369.09	0.00
369.28	0.00
369.48	0.00
369.68	0.00
369.87	0.00
370.07	0.00
370.27	0.00
370.47	0.00
370.66	51.49
370.86	91.28
371.06	147.45
371.25	147.45
371.45	81.92
371.65	175.54
371.84	222.35
372.04	124.05
372.24	152.13
372.44	170.86
372.63	196.60
372.83	187.24
373.03	112.35
373.22	191.92
373.42	177.88
373.62	283.20
373.81	262.14
374.01	259.80
374.21	231.71
374.40	203.63
374.60	241.08
374.79	182.56
374.99	177.88
375.19	264.48
375.38	285.55
375.58	292.57
375.78	231.71
375.97	248.10
376.17	266.82
376.37	285.55
376.56	250.44
376.76	266.82
376.95	304.27
377.15	290.23
377.35	285.55
377.54	290.23
377.74	224.69
377.93	264.48
378.13	245.76
378.33	259.80
378.52	294.91
378.72	308.95
378.91	388.53
379.11	334.70
379.31	301.93
379.50	283.20
379.70	379.17
379.89	351.08
380.09	339.38
380.28	285.55
380.48	339.38
380.68	262.14
380.87	297.25
381.07	280.86
381.26	283.20
381.46	304.27
381.65	325.33
381.85	369.80
382.04	367.46
382.24	299.59
382.43	313.63
382.63	355.76
382.83	341.72
383.02	386.19
383.22	372.15
383.41	404.91
383.61	355.76
383.80	383.85
384.00	320.65
384.19	330.02
384.39	332.36
384.58	365.12
384.78	390.87
384.97	313.63
385.17	330.02
385.36	355.76
385.56	397.89
385.75	390.87
385.95	362.78
386.14	388.53
386.34	393.21
386.53	344.06
386.72	362.78
386.92	545.34
387.11	430.66
387.31	379.17
387.50	407.25
387.70	486.83
387.89	416.62
388.09	428.32
388.28	470.45
388.48	463.43
388.67	435.34
388.86	461.09
389.06	526.62
389.25	477.47
389.45	421.30
389.64	435.34
389.84	470.45
390.03	519.60
390.22	491.51
390.42	461.09
390.61	550.03
390.81	482.15
391.00	475.13
391.19	545.34
391.39	496.19
391.58	531.30
391.78	489.17
391.97	458.74
392.16	440.02
392.36	645.99
392.55	517.26
392.75	580.45
392.94	507.90
393.13	596.84
393.33	566.41
393.52	559.39
393.71	543.00
393.91	613.22
394.10	606.20
394.29	543.00
394.49	594.50
394.68	580.45
394.88	603.86
395.07	671.73
395.26	657.69
395.46	575.77
395.65	636.63
395.84	610.88
396.04	603.86
396.23	662.37
396.42	603.86
396.62	730.25
396.81	603.86
397.00	645.99
397.19	730.25
397.39	624.92
397.58	650.67
397.77	786.42
397.97	716.20
398.16	725.57
398.35	702.16
398.55	638.97
398.74	660.03
398.93	690.46
399.12	676.41
399.32	690.46
399.51	718.54
399.70	849.61
399.90	730.25
400.09	788.76
400.28	858.98
400.47	765.36
400.67	763.01
400.86	725.57
401.05	814.51
401.24	781.74
401.44	877.70
401.63	823.87
401.82	952.60
402.01	809.83
402.21	844.93
402.40	835.57
402.59	854.30
402.78	837.91
402.97	903.45
403.17	910.47
403.36	875.36
403.55	884.72
403.74	901.11
403.93	866.00
404.13	926.85
404.32	964.30
404.51	966.64
404.70	1011.11
404.89	866.00
405.09	1039.20
405.28	983.02
405.47	1001.75
405.66	924.51
405.85	1008.77
406.05	1029.84
406.24	1064.94
406.43	1034.52
406.62	910.47
406.81	1095.37
407.00	1057.92
407.20	1095.37
407.39	961.96
407.58	1071.97
407.77	1081.33
407.96	1109.41
408.15	1128.14
408.34	1015.79
408.54	976.00
408.73	1156.22
408.92	1111.75
409.11	1088.35
409.30	1153.88
409.49	1128.14
409.68	1177.29
409.87	1167.93
410.07	1174.95
410.26	1067.28
410.45	1167.93
410.64	1139.84
410.83	1179.63
411.02	1240.48
411.21	1221.76
411.40	1196.01
411.59	1385.60
411.78	1315.38
411.98	1294.32
412.17	1254.53
412.36	1287.29
412.55	1291.98
412.74	1263.89
412.93	1409.00
413.12	1357.51
413.31	1444.11
413.50	1315.38
413.69	1441.77
413.88	1488.58
414.07	1444.11
414.26	1441.77
414.45	1451.13
414.64	1401.98
414.83	1579.86
415.02	1643.06
415.22	1624.33
415.41	1633.69
415.60	1486.24
415.79	1582.20
415.98	1643.06
416.17	1596.25
416.36	1610.29
416.55	1610.29
416.74	1654.76
416.93	1612.63
417.12	1736.68
417.31	1678.16
417.50	1636.03
417.69	1802.21
417.88	1661.78
418.07	1781.15
418.26	1692.21
418.45	1806.89
418.64	1802.21
418.83	1785.83
419.02	1748.38
419.21	1816.26
419.39	1849.02
419.58	1783.49
419.77	1914.56
419.96	1757.74
420.15	1844.34
420.34	1921.58
420.53	1926.26
420.72	1959.03
420.91	1825.62
421.10	1877.11
421.29	1970.73
421.48	1907.54
421.67	1916.90
421.86	2026.90
422.05	2001.16
422.24	1984.77
422.43	1982.43
422.61	2059.67
422.80	2024.56
422.99	2005.84
423.18	1956.69
423.37	2047.97
423.56	1944.99
423.75	2036.27
423.94	1916.90
424.13	1940.30
424.32	1947.33
424.50	2143.93
424.69	2150.95
424.88	2062.01
425.07	2085.42
425.26	2141.59
425.45	1919.24
425.64	2029.24
425.83	1907.54
426.01	2157.97
426.20	2038.61
426.39	2036.27
426.58	2073.71
426.77	2043.29
426.96	2209.47
427.15	2080.74
427.33	2200.10
427.52	2078.40
427.71	2146.27
427.90	2118.18
428.09	2188.40
428.28	2181.38
428.46	2167.34
428.65	2230.53
428.84	2249.25
429.03	2237.55
429.22	2204.78
429.40	2249.25
429.59	2319.47
429.78	2221.17
429.97	2143.93
430.16	2211.81
430.34	2352.24
430.53	2401.39
430.72	2406.07
430.91	2380.32
431.10	2183.72
431.28	2305.43
431.47	2406.07
431.66	2436.50
431.85	2338.20
432.03	2487.99
432.22	2476.29
432.41	2462.24
432.60	2485.65
432.79	2483.31
432.97	2408.41
433.16	2413.09
433.35	2457.56
433.54	2417.77
433.72	2466.92
433.91	2558.21
434.10	2450.54
434.28	2518.42
434.47	2448.20
434.66	2630.76
434.85	2712.68
435.03	2630.76
435.22	2579.27
435.41	2724.38
435.59	2579.27
435.78	2682.25
435.97	2815.66
436.16	2764.17
436.34	2803.96
436.53	2794.60
436.72	2740.77
436.90	2771.19
437.09	2745.45
437.28	2834.39
437.46	2733.75
437.65	2738.43
437.84	2708.00
438.02	2818.00
438.21	2731.41
438.40	2665.87
438.58	2897.58
438.77	2939.71
438.96	2960.78
439.14	2920.99
439.33	2963.12
439.52	3045.04
439.70	2885.88
439.89	3133.98
440.08	2974.82
440.26	3157.38
440.45	3087.17
440.63	3157.38
440.82	3136.32
441.01	3040.36
441.19	3108.23
441.38	3138.66
441.57	3155.04
441.75	3375.05
441.94	3358.67
442.12	3332.92
442.31	3349.31
442.50	3375.05
442.68	3349.31
442.87	3300.16
443.05	3445.27
443.24	3578.68
443.43	3410.16
443.61	3405.48
443.80	3447.61
443.98	3421.86
444.17	3290.79
444.35	3468.67
444.54	3454.63
444.73	3368.03
444.91	3562.30
445.10	3627.83
445.28	3349.31
445.47	3485.06
445.65	3412.50
445.84	3410.16
446.02	3658.26
446.21	3410.16
446.39	3510.80
446.58	3620.81
446.77	3431.23
446.95	3440.59
447.14	3562.30
447.32	3630.17
447.51	3405.48
447.69	3667.62
447.88	3513.14
448.06	3597.40
448.25	3372.71
448.43	3602.08
448.62	3482.72
448.80	3442.93
448.99	3569.32
449.17	3730.81
449.36	3578.68
449.54	3761.24
449.73	3728.47
449.91	3861.88
450.10	3782.31
450.28	3716.77
450.46	3913.38
450.65	3763.58
450.83	3847.84
451.02	3791.67
451.20	3932.10
451.39	3843.16
451.57	3955.51
451.76	3803.37
451.94	3840.82
452.13	3854.86
452.31	3810.39
452.49	3744.86
452.68	3861.88
452.86	3985.93
453.05	3999.98
453.23	4121.68
453.42	3866.56
453.60	3885.29
453.78	3988.27
453.97	3908.69
454.15	3948.48
454.34	4002.32
454.52	4135.73
454.70	4030.40
454.89	3974.23
455.07	4117.00
455.26	4124.02
455.44	4102.96
455.62	4135.73
455.81	4088.92
455.99	4243.39
456.17	4152.11
456.36	4173.18
456.54	4184.88
456.73	4304.25
456.91	4512.55
457.09	4238.71
457.28	4348.72
457.46	4409.57
457.64	4423.61
457.83	4369.78
458.01	4348.72
458.19	4578.09
458.38	4498.51
458.56	4645.96
458.74	4575.75
458.93	4526.60
459.11	4524.26
459.29	4524.26
459.48	4547.66
459.66	4421.27
459.84	4573.41
460.03	4603.83
460.21	4697.46
460.39	4610.86
460.57	4774.69
460.76	4608.51
460.94	4657.67
461.12	4681.07
461.31	4674.05
461.49	4573.41
461.67	4615.54
461.85	4873.00
462.04	4671.71
462.22	5137.48
462.40	4894.06
462.59	4760.65
462.77	4667.03
462.95	4849.59
463.13	4788.74
463.32	4898.74
463.50	4884.70
463.68	4910.44
463.86	4912.78
464.05	4915.12
464.23	4887.04
464.41	4957.25
464.59	4798.10
464.78	4957.25
464.96	4992.36
465.14	4936.19
465.32	5186.63
465.50	5132.79
465.69	5235.78
465.87	4961.94
466.05	5043.85
466.23	5090.67
466.41	5050.88
466.60	5198.33
466.78	5118.75
466.96	5125.77
467.14	5163.22
467.32	5203.01
467.51	5266.21
467.69	5214.71
467.87	5104.71
468.05	5261.52
468.23	5245.14
468.41	5029.81
468.60	5130.45
468.78	5315.36
468.96	5320.04
469.14	5357.49
469.32	5338.76
469.50	5158.54
469.69	5521.32
469.87	5453.45
470.05	5455.79
470.23	5327.06
470.41	5385.57
470.59	5643.03
470.77	5486.22
470.95	5500.26
471.14	5558.77
471.32	5516.64
471.50	5743.67
471.68	5689.84
471.86	5657.07
472.04	5600.90
472.22	5963.68
472.40	5621.97
472.58	5734.31
472.77	5699.20
472.95	5888.79
473.13	6085.39
473.31	5954.32
473.49	5872.40
473.67	5951.98
473.85	6040.92
474.03	6113.48
474.21	6246.89
474.39	6272.64
474.57	6204.76
474.75	6289.02
474.93	6160.29
475.12	6204.76
475.30	6326.47
475.48	6090.07
475.66	6340.51
475.84	6422.43
476.02	6392.00
476.20	6370.94
476.38	6604.99
476.56	6480.94
476.74	6689.25
476.92	6595.63
477.10	6574.56
477.28	6822.66
477.46	6700.95
477.64	6733.72
477.82	6913.94
478.00	7094.16
478.18	7126.93
478.36	6949.05
478.54	7087.14
478.72	7150.34
478.90	7246.30
479.08	7208.85
479.26	7136.29
479.44	7316.51
479.62	7595.04
479.80	7382.05
479.98	7377.37
480.16	7658.23
480.34	7606.74
480.52	7829.09
480.70	7662.91
480.88	7744.83
481.06	7754.19
481.24	7723.77
481.41	7908.67
481.59	8081.87
481.77	8119.32
481.95	8107.62
482.13	8423.59
482.31	8229.32
482.49	8393.16
482.67	8395.50
482.85	8390.82
483.03	8524.23
483.21	8702.11
483.39	8610.83
483.57	8617.85
483.74	8718.50
483.92	8947.87
484.10	8901.06
484.28	9057.87
484.46	9128.09
484.64	9301.29
484.82	9151.49
485.00	9142.13
485.18	9233.41
485.35	9540.02
485.53	9446.40
485.71	9479.17
485.89	9795.14
486.07	9619.60
486.25	9626.62
486.43	9764.72
486.61	9750.67
486.78	10078.35
486.96	9987.07
487.14	10193.03
487.32	10326.44
487.50	10335.81
487.68	10296.02
487.85	10445.81
488.03	10630.71
488.21	10913.92
488.39	10913.92
488.57	10733.70
488.75	10824.98
488.92	11112.86
489.10	11040.31
489.28	11098.82
489.46	11178.40
489.64	11059.03
489.81	11597.35
489.99	11241.59
490.17	11485.01
490.35	11510.75
490.53	11534.16
490.70	11578.63
490.88	11646.51
491.06	11927.37
491.24	11644.17
491.41	11995.25
491.59	12301.86
491.77	12086.53
491.95	12114.61
492.13	12224.62
492.30	12339.30
492.48	12453.99
492.66	12547.61
492.84	12510.16
493.01	12746.56
493.19	12692.73
493.37	12989.97
493.54	12856.56
493.72	13071.89
493.90	13109.34
494.08	13151.47
494.25	13224.03
494.43	13263.82
494.61	13359.78
494.79	13511.91
494.96	13497.87
495.14	13579.79
495.32	13614.90
495.49	13755.33
495.67	13638.30
495.85	13921.51
496.02	14092.37
496.20	14228.12
496.38	14171.94
496.55	14176.62
496.73	14427.06
496.91	14546.43
497.09	14366.21
497.26	14764.10
497.44	14305.35
497.62	14569.83
497.79	14939.64
497.97	14806.23
498.14	14822.61
498.32	15260.29
498.50	14995.81
498.67	15206.46
498.85	15386.68
499.03	14965.39
499.20	15122.20
499.38	15407.75
499.56	15391.36
499.73	15503.71
499.91	15688.61
500.08	15489.67
500.26	15232.21
500.44	15550.52
500.61	15847.77
500.79	15822.02
500.97	15964.79
501.14	15990.54
501.32	15929.69
501.49	16065.44
501.67	16025.65
501.84	16119.27
502.02	16063.10
502.20	16231.62
502.37	16528.86
502.55	16374.39
502.72	15971.82
502.90	16402.47
503.07	16482.05
503.25	16325.24
503.43	16650.57
503.60	16891.65
503.78	16807.39
503.95	17205.28
504.13	17074.21
504.30	16891.65
504.48	16751.21
504.65	16943.14
504.83	17074.21
505.01	17025.06
505.18	17486.14
505.36	17298.90
505.53	17331.67
505.71	17165.49
505.88	17149.11
506.06	17146.76
506.23	17296.56
506.41	17556.36
506.58	17596.15
506.76	17930.84
506.93	17614.87
507.11	17617.21
507.28	17998.72
507.46	17717.86
507.63	17982.34
507.81	18078.30
507.98	17795.09
508.16	18120.43
508.33	18185.96
508.50	18164.90
508.68	18244.48
508.85	18457.46
509.03	18352.14
509.20	18593.22
509.38	18375.55
509.55	18747.69
509.73	18455.12
509.90	18813.23
510.08	18635.35
510.25	18616.62
510.42	18637.69
510.60	18995.79
510.77	19023.87
510.95	18803.86
511.12	18869.40
511.30	19021.53
511.47	19236.86
511.64	19412.40
511.82	19206.44
511.99	19283.67
512.17	19499.00
512.34	19506.02
512.51	19632.41
512.69	19419.42
512.86	19358.57
513.04	19599.65
513.21	19627.73
513.38	19630.07
513.56	19800.93
513.73	19695.61
513.90	19676.88
514.08	19693.27
514.25	19819.66
514.43	20023.28
514.60	20137.97
514.77	19639.44
514.95	20255.00
515.12	19569.22
515.29	20245.63
515.47	20369.68
515.64	20304.15
515.81	20456.28
515.99	20559.27
516.16	20496.07
516.33	20542.88
516.51	20783.96
516.68	20386.07
516.85	20872.90
517.03	20479.69
517.20	20613.10
517.37	20872.90
517.54	20690.34
517.72	21139.72
517.89	20884.60
518.06	21018.01
518.24	20835.45
518.41	21195.89
518.58	20959.50
518.75	21130.36
518.93	21331.64
519.10	21003.97
519.27	21352.71
519.45	20891.62
519.62	21242.70
519.79	21085.89
519.96	21298.88
520.14	21322.28
520.31	21350.37
520.48	21968.27
520.65	21633.57
520.83	21769.32
521.00	21734.21
521.17	21549.31
521.34	21579.74
521.52	21603.14
521.69	21546.97
521.86	22022.10
522.03	22176.58
522.20	22036.14
522.38	22143.81
522.55	22045.51
522.72	22197.64
522.89	22197.64
523.07	22567.45
523.24	22579.15
523.41	22569.79
523.58	21998.70
523.75	22555.74
523.92	22490.21
524.10	22515.95
524.27	22635.32
524.44	22455.10
524.61	22918.53
524.78	22750.01
524.96	22836.61
525.13	22902.14
525.30	22768.73
525.47	22841.29
525.64	23215.77
525.81	23335.14
525.98	23136.20
526.16	23094.07
526.33	22998.10
526.50	23379.61
526.67	23103.43
526.84	23445.15
527.01	23089.38
527.18	23431.10
527.36	23543.45
527.53	23496.64
527.70	23351.52
527.87	23828.99
528.04	23576.22
528.21	23398.34
528.38	23419.40
528.55	23564.51
528.72	23583.24
528.89	23903.89
529.07	23686.22
529.24	23459.19
529.41	24126.24
529.58	23655.79
529.75	23805.59
529.92	23601.96
530.09	23960.06
530.26	23847.72
530.43	24205.82
530.60	24123.90
530.77	23913.25
530.94	24168.37
531.11	24269.01
531.28	24093.47
531.46	24201.14
531.63	24409.45
531.80	24098.16
531.97	24694.99
532.14	24540.52
532.31	24322.85
532.48	24151.99
532.65	24474.98
532.82	24379.02
532.99	24563.92
533.16	24379.02
533.33	24697.33
533.50	25020.33
533.67	24662.22
533.84	24538.18
534.01	24968.84
534.18	24615.41
534.35	25083.52
534.52	24697.33
534.69	25261.40
534.86	25195.87
535.03	24893.94
535.20	25099.90
535.37	24924.36
535.54	25266.08
535.71	24987.56
535.88	25046.07
536.05	25434.60
536.22	25436.94
536.38	25118.63
536.55	25137.35
536.72	25394.81
536.89	25280.13
537.06	25329.28
537.23	25570.35
537.40	25345.66
537.57	25263.74
537.74	25640.57
537.91	25834.83
538.08	25722.49
538.25	25699.08
538.42	25266.08
538.59	25933.14
538.75	25364.39
538.92	26054.84
539.09	26059.52
539.26	25668.66
539.43	25820.79
539.60	25923.77
539.77	25708.44
539.94	26054.84
540.11	25612.48
540.28	25862.92
540.44	26167.19
540.61	26050.16
540.78	26064.21
540.95	25860.58
541.12	26164.85
541.29	26113.36
541.46	26047.82
541.62	26291.24
541.79	26387.20
541.96	25893.35
542.13	26314.64
542.30	26300.60
542.47	26513.59
542.63	26534.65
542.80	26796.79
542.97	26700.83
543.14	26703.17
543.31	26396.56
543.48	26827.22
543.64	26752.32
543.81	26759.34
543.98	27335.12
544.15	27016.80
544.32	27276.60
544.48	27101.06
544.65	26937.23
544.82	27171.28
544.99	26867.01
545.16	26918.50
545.32	27292.99
545.49	27344.48
545.66	27047.23
545.83	27541.08
546.00	27321.07
546.16	27117.45
546.33	27094.04
546.50	26801.47
546.67	27197.02
546.83	27047.23
547.00	27297.67
547.17	27248.52
547.34	27283.62
547.50	27349.16
547.67	27765.78
547.84	27716.62
548.00	27725.99
548.17	27704.92
548.34	27618.32
548.51	27843.01
548.67	27637.05
548.84	27903.87
549.01	27498.95
549.18	27639.39
549.34	27513.00
549.51	28048.98
549.68	27623.00
549.84	27349.16
550.01	27974.08
550.18	27527.04
550.34	27838.33
550.51	27812.59
550.68	27695.56
550.84	27651.09
551.01	27906.21
551.18	27906.21
551.34	27875.78
551.51	28058.34
551.68	27936.63
551.84	27878.12
552.01	28290.06
552.18	28201.11
552.34	28367.29
552.51	28357.93
552.68	28519.43
552.84	28140.26
553.01	28065.36
553.18	28180.05
553.34	28283.03
553.51	28479.64
553.67	28748.80
553.84	28613.05
554.01	28313.46
554.17	28409.42
554.34	28355.59
554.51	28114.52
554.67	28514.75
554.84	28847.10
555.00	28142.60
555.17	28811.99
555.33	28746.46
555.50	28713.69
555.67	28472.62
555.83	28566.24
556.00	28449.21
556.16	28622.41
556.33	28774.55
556.50	28524.11
556.66	29120.95
556.83	28685.61
556.99	28985.19
557.16	29153.71
557.32	29144.35
557.49	28875.19
557.65	28584.96
557.82	28879.87
557.98	28938.38
558.15	29153.71
558.32	29268.40
558.48	29268.40
558.65	28840.08
558.81	29188.82
558.98	29214.57
559.14	29123.29
559.31	29057.75
559.47	29127.97
559.64	29095.20
559.80	29399.47
559.97	28959.45
560.13	28973.49
560.30	29523.52
560.46	29076.48
560.63	29724.80
560.79	29085.84
560.96	29282.44
561.12	29252.02
561.29	28961.79
561.45	29132.65
561.61	29254.36
561.78	29413.51
561.94	29326.91
562.11	29219.25
562.27	29315.21
562.44	29624.16
562.60	29261.38
562.77	29282.44
562.93	29441.60
563.10	29647.57
563.26	29340.96
563.42	29797.36
563.59	29546.92
563.75	29731.83
563.92	29385.43
564.08	29565.65
564.24	29586.71
564.41	29237.97
564.57	29663.95
564.74	29947.15
564.90	29436.92
565.07	29706.08
565.23	29797.36
565.39	29699.06
565.56	29352.66
565.72	29219.25
565.88	29315.21
566.05	29539.90
566.21	29666.29
566.38	29720.12
566.54	29626.50
566.70	29834.81
566.87	29696.72
567.03	29998.65
567.19	30316.96
567.36	29813.74
567.52	29617.14
567.68	29979.92
567.85	29593.73
568.01	29802.04
568.17	29991.62
568.34	29961.20
568.50	29956.52
568.66	30045.46
568.83	29799.70
568.99	29820.77
569.15	30096.95
569.32	29729.48
569.48	29708.42
569.64	30087.59
569.81	29853.53
569.97	30038.44
570.13	29865.24
570.30	30071.20
570.46	30054.82
570.62	30293.55
570.78	29802.04
570.95	30162.48
571.11	29638.20
571.27	29963.54
571.43	29986.94
571.60	29930.77
571.76	30033.75
571.92	30197.59
572.09	29996.31
572.25	30162.48
572.41	30326.32
572.57	30235.04
572.74	30010.35
572.90	30103.97
573.06	29935.45
573.22	30113.33
573.38	29879.28
573.55	30249.08
573.71	30150.78
573.87	30586.12
574.03	30211.64
574.20	30445.69
574.36	30101.63
574.52	30213.98
574.68	29944.81
574.84	30520.59
575.01	30216.32
575.17	30349.73
575.33	29713.10
575.49	29958.86
575.65	30272.49
575.82	30593.14
575.98	30068.86
576.14	30188.23
576.30	30139.08
576.46	30164.82
576.62	30080.56
576.79	30267.81
576.95	30206.95
577.11	30251.42
577.27	30328.66
577.43	30501.86
577.59	30274.83
577.75	30082.91
577.92	30361.43
578.08	30031.41
578.24	30260.79
578.40	30164.82
578.56	30218.66
578.72	30206.95
578.88	30288.87
579.04	30342.70
579.21	30473.78
579.37	30298.23
579.53	30272.49
579.69	30396.54
579.85	30422.28
580.01	30342.70
580.17	30218.66
580.33	30506.54
580.49	30433.99
580.65	30611.87
580.82	30419.94
580.98	30452.71
581.14	30639.95
581.30	30733.57
581.46	30487.82
581.62	30560.37
581.78	30185.89
581.94	30597.82
582.10	30225.68
582.26	30232.70
582.42	30396.54
582.58	30567.40
582.74	30417.60
582.90	30309.94
583.06	30349.73
583.22	30377.81
583.38	30586.12
583.54	30506.54
583.70	30274.83
583.86	30043.12
584.02	30387.18
584.18	30782.73
584.34	30527.61
584.50	30457.39
584.66	30162.48
584.82	30534.63
584.98	30522.93
585.14	30352.07
585.30	30059.50
585.46	30513.56
585.62	30487.82
585.78	30511.22
585.94	30139.08
586.10	30756.98
586.26	30726.55
586.42	31147.85
586.58	30843.58
586.74	30668.04
586.90	30141.42
587.06	30354.41
587.22	30712.51
587.38	30221.00
587.54	30827.20
587.70	30899.75
587.86	30801.45
588.02	31009.76
588.18	30761.66
588.34	30433.99
588.49	30632.93
588.65	30651.66
588.81	30389.52
588.97	30457.39
589.13	29907.37
589.29	30253.76
589.45	30728.89
589.61	30976.99
589.77	31138.49
589.93	30939.54
590.08	31117.42
590.24	31063.59
590.40	31021.46
590.56	30845.92
590.72	30960.61
590.88	30799.11
591.04	30349.73
591.20	31016.78
591.35	31248.49
591.51	31152.53
591.67	31161.89
591.83	31239.13
591.99	30785.07
592.15	30869.33
592.31	31026.14
592.46	30792.09
592.62	30590.80
592.78	30866.98
592.94	30630.59
593.10	30321.64
593.26	31049.55
593.41	30771.02
593.57	31002.74
593.73	31101.04
593.89	31220.41
594.05	30808.47
594.20	30651.66
594.36	30740.60
594.52	31012.10
594.68	30874.01
594.84	30792.09
594.99	31267.22
595.15	30773.36
595.31	31236.79
595.47	31222.75
595.62	31091.68
595.78	31187.64
595.94	30775.70
596.10	31173.60
596.25	30698.47
596.41	30792.09
596.57	30796.77
596.73	31033.16
596.88	30733.57
597.04	31049.55
597.20	31213.38
597.36	31248.49
597.51	30920.82
597.67	31140.83
597.83	31269.56
597.99	30841.24
598.14	30761.66
598.30	31054.23
598.46	30721.87
598.61	31421.69
598.77	30993.37
598.93	31236.79
599.09	31225.09
599.24	31243.81
599.40	31161.89
599.56	31475.52
599.71	31138.49
599.87	31227.43
600.03	31054.23
600.18	30775.70
600.34	31173.60
600.50	31243.81
600.65	30906.77
600.81	31407.65
600.97	31119.76
601.12	31126.78
601.28	31180.62
601.44	31201.68
601.59	31112.74
601.75	31021.46
601.91	31557.44
602.06	30866.98
602.22	31171.25
602.37	30993.37
602.53	30925.50
602.69	31241.47
602.84	31360.84
603.00	31412.33
603.16	30944.22
603.31	31250.83
603.47	30778.04
603.62	31042.53
603.78	31192.32
603.94	30911.46
604.09	30810.81
604.25	31009.76
604.40	31075.29
604.56	30911.46
604.71	31213.38
604.87	31241.47
605.03	31402.97
605.18	30986.35
605.34	31019.12
605.49	30740.60
605.65	31494.25
605.80	30895.07
605.96	30965.29
606.12	30902.09
606.27	30960.61
606.43	30654.00
606.58	31342.11
606.74	31227.43
606.89	31353.82
607.05	30965.29
607.20	31199.34
607.36	31072.95
607.51	31157.21
607.67	31047.21
607.82	30609.53
607.98	30969.97
608.13	30831.88
608.29	30944.22
608.44	30855.28
608.60	31068.27
608.75	31307.01
608.91	31063.59
609.06	30991.03
609.22	31199.34
609.37	30806.13
609.53	30792.09
609.68	31094.02
609.84	30806.13
609.99	31061.25
610.15	30995.71
610.30	30962.95
610.46	30857.62
610.61	30988.69
610.76	30742.94
610.92	30955.93
611.07	30719.53
611.23	30841.24
611.38	30902.09
611.54	30972.31
611.69	30548.67
611.84	30221.00
612.00	30513.56
612.15	30532.29
612.31	30946.56
612.46	30586.12
612.62	30995.71
612.77	30665.70
612.92	30792.09
613.08	30497.18
613.23	31012.10
613.39	30693.79
613.54	30492.50
613.69	30775.70
613.85	30363.77
614.00	30689.10
614.15	30834.22
614.31	30426.96
614.46	30764.00
614.62	30717.19
614.77	30962.95
614.92	30485.48
615.08	30712.51
615.23	30534.63
615.38	30354.41
615.54	30118.01
615.69	30356.75
615.84	30459.73
616.00	30319.30
616.15	30483.14
616.30	30265.47
616.46	30110.99
616.61	30408.24
616.76	30780.39
616.92	30499.52
617.07	30333.34
617.22	30307.60
617.37	29865.24
617.53	30387.18
617.68	30047.80
617.83	30326.32
617.99	30307.60
618.14	30396.54
618.29	30167.16
618.45	30387.18
618.60	30396.54
618.75	30206.95
618.90	30052.48
619.06	30108.65
619.21	30066.52
619.36	30536.97
619.51	29818.42
619.67	29909.71
619.82	29825.45
619.97	29773.95
620.12	29951.84
620.28	29886.30
620.43	30396.54
620.58	30078.22
620.73	30061.84
620.89	30082.91
621.04	29888.64
621.19	29926.09
621.34	29703.74
621.49	29577.35
621.65	29792.68
621.80	29694.38
621.95	29202.86
622.10	29757.57
622.25	29680.33
622.41	29673.31
622.56	29881.62
622.71	29996.31
622.86	29689.70
623.01	29933.11
623.16	29769.27
623.32	29701.40
623.47	29570.33
623.62	29790.34
623.77	29408.83
623.92	29900.34
624.07	29303.51
624.23	29535.22
624.38	29652.25
624.53	29392.45
624.68	29685.01
624.83	29600.76
624.98	29898.00
625.13	29579.69
625.29	29472.03
625.44	29605.44
625.59	29275.42
625.74	29685.01
625.89	29357.34
626.04	29610.12
626.19	29242.65
626.34	29078.82
626.49	28804.97
626.65	29221.59
626.80	29792.68
626.95	29319.89
627.10	29177.12
627.25	29439.26
627.40	29240.31
627.55	28748.80
627.70	28751.14
627.85	29273.08
628.00	28959.45
628.15	28751.14
628.30	28755.82
628.45	29315.21
628.60	28779.23
628.76	28980.51
628.91	29273.08
629.06	28851.78
629.21	29289.46
629.36	28858.81
629.51	28786.25
629.66	28966.47
629.81	28716.03
629.96	29001.58
630.11	29020.30
630.26	28961.79
630.41	29088.18
630.56	28393.04
630.71	28776.89
630.86	28924.34
631.01	29015.62
631.16	28538.15
631.31	28767.52
631.46	28315.80
631.61	28978.17
631.76	28741.78
631.91	28687.95
632.06	28105.15
632.21	28514.75
632.36	28184.73
632.51	28357.93
632.66	28519.43
632.81	28332.18
632.96	28634.11
633.10	28652.84
633.25	28692.63
633.40	28800.29
633.55	28416.44
633.70	28250.27
633.85	28077.07
634.00	28507.72
634.15	28383.68
634.30	28100.47
634.45	28102.81
634.60	28261.97
634.75	28100.47
634.90	28126.22
635.05	28350.91
635.19	28353.25
635.34	28606.03
635.49	28505.38
635.64	28327.50
635.79	28107.49
635.94	28444.53
636.09	28093.45
636.24	28222.18
636.39	27981.10
636.53	27709.60
636.68	27843.01
636.83	27730.67
636.98	28444.53
637.13	28203.46
637.28	28051.32
637.43	28070.04
637.57	28034.94
637.72	28184.73
637.87	27934.29
638.02	28058.34
638.17	28299.42
638.32	27868.76
638.46	28107.49
638.61	27658.11
638.76	27623.00
638.91	27618.32
639.06	27564.49
639.20	27831.31
639.35	27887.48
639.50	27962.38
639.65	27864.08
639.80	28130.90
639.94	27522.36
640.09	27606.62
640.24	27962.38
640.39	27807.90
640.54	27431.08
640.68	27318.73
640.83	27264.90
640.98	27534.06
641.13	27323.41
641.27	27716.62
641.42	27384.27
641.57	27426.40
641.72	27679.18
641.86	27473.21
642.01	27351.50
642.16	27520.02
642.31	27508.32
642.45	27143.19
642.60	27002.76
642.75	27201.71
642.90	27063.61
643.04	27517.68
643.19	27222.77
643.34	27161.92
643.48	27335.12
643.63	27243.84
643.78	27197.02
643.93	27047.23
644.07	27428.74
644.22	27119.79
644.37	27168.94
644.51	27119.79
644.66	27054.25
644.81	27080.00
644.95	27232.13
645.10	26801.47
645.25	27292.99
645.39	27309.37
645.54	26712.53
645.69	26855.31
645.83	26717.22
645.98	26806.16
646.13	26972.33
646.27	27307.03
646.42	26665.72
646.57	26857.65
646.71	26869.35
646.86	26742.96
647.00	26927.86
647.15	26735.94
647.30	26698.49
647.44	26836.58
647.59	26738.28
647.74	26656.36
647.88	26831.90
648.03	26820.20
648.17	26745.30
648.32	27143.19
648.47	26953.61
648.61	26647.00
648.76	26888.07
648.90	26862.33
649.05	26579.12
649.20	26869.35
649.34	26733.60
649.49	26766.37
649.63	26176.55
649.78	26384.86
649.92	26359.11
650.07	26906.80
650.21	26359.11
650.36	26649.34
650.51	26618.91
650.65	26501.89
650.80	26508.91
650.94	26682.11
651.09	26553.38
651.23	26628.27
651.38	26579.12
651.52	26225.70
651.67	26375.50
651.81	26082.93
651.96	26331.03
652.10	26391.88
652.25	26302.94
652.39	26555.72
652.54	26529.97
652.68	26209.32
652.83	26155.49
652.97	26796.79
653.12	26101.65
653.26	26125.06
653.41	26469.12
653.55	26246.77
653.70	26106.34
653.84	25996.33
653.99	26185.91
654.13	25958.88
654.27	25989.31
654.42	25881.64
654.56	26080.59
654.71	25757.60
654.85	26078.25
655.00	26347.41
655.14	25876.96
655.29	25764.62
655.43	26005.69
655.57	25984.63
655.72	25928.45
655.86	25912.07
656.01	25816.11
656.15	25678.02
656.30	26073.57
656.44	25905.05
656.58	25678.02
656.73	25741.21
656.87	25781.00
657.01	25811.43
657.16	25663.97
657.30	26045.48
657.45	25778.66
657.59	25600.78
657.73	25036.71
657.88	25701.42
658.02	26066.55
658.16	25530.56
658.31	25441.62
658.45	25635.89
658.60	25280.13
658.74	25392.47
658.88	25041.39
659.03	25434.60
659.17	25317.57
659.31	25635.89
659.46	25392.47
659.60	25605.46
659.74	25483.75
659.89	25504.82
660.03	25357.36
660.17	25142.03
660.32	25123.31
660.46	24952.45
660.60	25071.82
660.74	25074.16
660.89	25355.02
661.03	24884.58
661.17	24964.15
661.32	25050.75
661.46	24999.26
661.60	24844.79
661.74	25022.67
661.89	25348.00
662.03	24816.70
662.17	24680.95
662.31	24596.69
662.46	24795.64
662.60	24657.54
662.74	24463.28
662.88	24231.57
663.03	24133.26
663.17	24208.16
663.31	24189.44
663.45	24341.57
663.60	24418.81
663.74	24613.07
663.88	24470.30
664.02	24472.64
664.17	24802.66
664.31	24147.31
664.45	24463.28
664.59	24229.23
664.73	24128.58
664.88	24243.27
665.02	24238.59
665.16	24423.49
665.30	23934.32
665.44	24119.22
665.59	23861.76
665.73	23866.44
665.87	23962.40
666.01	24402.43
666.15	24081.77
666.29	23917.93
666.44	24074.75
666.58	23777.50
666.72	23669.84
666.86	23917.93
667.00	23498.98
667.14	23866.44
667.28	23850.06
667.43	23789.20
667.57	23922.62
667.71	23396.00
667.85	23639.41
667.99	23243.86
668.13	23339.82
668.27	23278.97
668.41	23454.51
668.56	23482.59
668.70	23087.04
668.84	23487.28
668.98	23269.61
669.12	23433.44
669.26	23110.45
669.40	23346.84
669.54	23262.58
669.68	23246.20
669.82	22806.18
669.96	23180.67
670.10	22738.30
670.25	22951.29
670.39	22759.37
670.53	22691.49
670.67	22988.74
670.81	22640.00
670.95	22740.64
671.09	22658.73
671.23	22965.34
671.37	22663.41
671.51	22885.76
671.65	22560.42
671.79	22670.43
671.93	22499.57
672.07	22614.26
672.21	22338.07
672.35	22272.54
672.49	22375.52
672.63	22244.45
672.77	22256.15
672.91	22078.27
673.05	22300.62
673.19	21972.95
673.33	22047.85
673.47	22197.64
673.61	22349.78
673.75	22148.49
673.89	22272.54
674.03	21947.20
674.17	21956.57
674.31	21930.82
674.45	21610.17
674.59	21558.67
674.73	21673.36
674.87	21647.61
675.01	21757.62
675.15	21500.16
675.29	21415.90
675.43	21020.35
675.56	21249.72
675.70	21144.40
675.84	21460.37
675.98	20952.48
676.12	21451.01
676.26	21348.03
676.40	21137.38
676.54	21158.44
676.68	21156.10
676.82	20512.46
676.96	21003.97
677.10	21020.35
677.23	20739.49
677.37	20503.09
677.51	20905.66
677.65	20545.22
677.79	20456.28
677.93	20404.79
678.07	20306.49
678.21	20149.67
678.34	20304.15
678.48	20109.88
678.62	20114.56
678.76	20163.72
678.90	19971.79
679.04	19786.89
679.18	20060.73
679.31	19641.78
679.45	19672.20
679.59	19531.77
679.73	19609.01
679.87	19269.63
680.00	19796.25
680.14	19508.37
680.28	19459.21
680.42	19632.41
680.56	19625.39
680.70	19412.40
680.83	19328.14
680.97	19463.90
681.11	19138.56
681.25	19206.44
681.39	19089.41
681.52	19005.15
681.66	19051.96
681.80	18714.92
681.94	19140.90
682.07	18970.04
682.21	18424.70
682.35	18710.24
682.49	18855.36
682.62	18586.19
682.76	18497.25
682.90	18401.29
683.04	18546.40
683.17	18548.75
683.31	18441.08
683.45	18321.71
683.59	18581.51
683.72	18368.52
683.86	18281.92
684.00	18176.60
684.13	18068.94
684.27	17771.69
684.41	17919.14
684.55	17647.64
684.68	17568.06
684.82	17717.86
684.96	17298.90
685.09	17495.50
685.23	17521.25
685.37	17369.12
685.50	17551.68
685.64	17474.44
685.78	17479.12
685.91	17530.61
686.05	17525.93
686.19	17008.67
686.32	17305.92
686.46	16753.55
686.60	17025.06
686.73	16940.80
686.87	16915.05
687.01	16711.42
687.14	16702.06
687.28	16561.63
687.42	16940.80
687.55	16781.64
687.69	16365.03
687.82	16446.94
687.96	16650.57
688.10	16414.18
688.23	16456.31
688.37	16198.85
688.50	16346.30
688.64	16154.38
688.78	16180.12
688.91	15941.39
689.05	16229.27
689.18	16049.05
689.32	15791.59
689.46	15700.31
689.59	15686.27
689.73	15672.23
689.86	15672.23
690.00	15545.84
690.13	15625.42
690.27	15484.98
690.41	15370.30
690.54	15548.18
690.68	15365.62
690.81	15201.78
690.95	15414.77
691.08	15466.26
691.22	15293.06
691.35	15246.25
691.49	15019.22
691.62	15138.58
691.76	15197.10
691.89	14960.70
692.03	14670.48
692.16	14789.85
692.30	14569.83
692.43	14822.61
692.57	14602.60
692.70	14389.61
692.84	14494.94
692.97	14534.73
693.11	14462.17
693.24	14132.15
693.38	14246.84
693.51	14361.53
693.65	14239.82
693.78	14157.90
693.92	14078.32
694.05	14303.01
694.19	13940.23
694.32	14040.87
694.45	13858.31
694.59	13610.22
694.72	13689.79
694.86	13369.14
694.99	13268.50
695.13	13490.85
695.26	13563.40
695.39	13455.74
695.53	13621.92
695.66	13448.72
695.80	13540.00
695.93	13366.80
696.07	13331.69
696.20	13380.84
696.33	13460.42
696.47	13149.13
696.60	13275.52
696.73	13179.56
696.87	13104.66
697.00	12870.61
697.14	12961.89
697.27	12587.40
697.40	12774.64
697.54	12758.26
697.67	12432.93
697.80	12568.68
697.94	12446.97
698.07	12304.20
698.21	12458.67
698.34	12521.87
698.47	12484.42
698.61	12362.71
698.74	12425.90
698.87	12463.35
699.01	12107.59
699.14	12018.65
699.27	11948.43
699.40	12102.91
699.54	12018.65
699.67	11941.41
699.80	11674.59
699.94	11784.60
700.07	11882.90
700.20	11569.27
700.34	11386.71
700.47	11489.69
700.60	11513.10
700.73	11522.46
700.87	11470.97
701.00	11356.28
701.13	11314.15
701.26	11424.15
701.40	11393.73
701.53	11410.11
701.66	11337.56
701.79	11236.91
701.93	11110.52
702.06	10953.71
702.19	11040.31
702.32	10813.28
702.46	10869.45
702.59	10925.62
702.72	10658.80
702.85	10586.24
702.99	10803.91
703.12	10541.77
703.25	10480.92
703.38	10373.25
703.51	10506.66
703.65	10497.30
703.78	10340.49
703.91	10434.11
704.04	10525.39
704.17	10501.98
704.31	10352.19
704.44	10221.12
704.57	10193.03
704.70	10169.63
704.83	9994.09
704.96	9907.49
705.10	10022.17
705.23	9799.82
>>>>>End Processed Spectral Data<<<<<
