SpectraSuite Data File
++++++++++++++++++++++++++++++++++++
Date: Fri Oct 18 13:57:58 GMT-05:00 2013
User: bianchi
Dark Spectrum Present: No
Reference Spectrum Present: No
Number of Sampled Component Spectra: 1
Spectrometers: USB2+H05261
Integration Time (usec): 50000 (USB2+H05261)
Spectra Averaged: 1 (USB2+H05261)
Boxcar Smoothing: 0 (USB2+H05261)
Correct for Electrical Dark: No (USB2+H05261)
Strobe/Lamp Enabled: No (USB2+H05261)
Correct for Detector Non-linearity: No (USB2+H05261)
Correct for Stray Light: No (USB2+H05261)
Number of Pixels in Processed Spectrum: 2048
>>>>>Begin Processed Spectral Data<<<<<
365.73	0.00
365.92	0.00
366.12	0.00
366.32	0.00
366.52	0.00
366.72	0.00
366.91	0.00
367.11	0.00
367.31	0.00
367.51	0.00
367.70	0.00
367.90	0.00
368.10	0.00
368.30	0.00
368.49	0.00
368.69	0.00
368.89	0.00
369.09	0.00
369.28	0.00
369.48	0.00
369.68	0.00
369.87	0.00
370.07	0.00
370.27	0.00
370.47	0.00
370.66	105.32
370.86	70.22
371.06	98.30
371.25	210.65
371.45	135.75
371.65	128.73
371.84	119.37
372.04	149.79
372.24	217.67
372.44	191.92
372.63	227.03
372.83	189.58
373.03	205.97
373.22	142.77
373.42	161.50
373.62	250.44
373.81	210.65
374.01	271.50
374.21	203.63
374.40	156.82
374.60	273.84
374.79	257.46
374.99	252.78
375.19	231.71
375.38	220.01
375.58	299.59
375.78	287.89
375.97	238.73
376.17	332.36
376.37	238.73
376.56	196.60
376.76	304.27
376.95	271.50
377.15	313.63
377.35	299.59
377.54	280.86
377.74	271.50
377.93	308.95
378.13	215.33
378.33	292.57
378.52	283.20
378.72	229.37
378.91	250.44
379.11	252.78
379.31	299.59
379.50	283.20
379.70	341.72
379.89	376.83
380.09	234.05
380.28	292.57
380.48	369.80
380.68	337.04
380.87	348.74
381.07	376.83
381.26	294.91
381.46	390.87
381.65	290.23
381.85	351.08
382.04	271.50
382.24	484.49
382.43	395.55
382.63	315.97
382.83	330.02
383.02	416.62
383.22	423.64
383.41	365.12
383.61	402.57
383.80	301.93
384.00	339.38
384.19	423.64
384.39	409.59
384.58	400.23
384.78	395.55
384.97	381.51
385.17	381.51
385.36	372.15
385.56	449.38
385.75	409.59
385.95	395.55
386.14	402.57
386.34	404.91
386.53	407.25
386.72	374.49
386.92	400.23
387.11	440.02
387.31	423.64
387.50	430.66
387.70	425.98
387.89	402.57
388.09	440.02
388.28	428.32
388.48	528.96
388.67	465.77
388.86	428.32
389.06	472.79
389.25	461.09
389.45	472.79
389.64	545.34
389.84	461.09
390.03	435.34
390.22	489.17
390.42	435.34
390.61	468.11
390.81	461.09
391.00	505.56
391.19	550.03
391.39	507.90
391.58	571.09
391.78	599.18
391.97	543.00
392.16	437.68
392.36	547.69
392.55	496.19
392.75	552.37
392.94	540.66
393.13	477.47
393.33	528.96
393.52	573.43
393.71	521.94
393.91	557.05
394.10	629.60
394.29	603.86
394.49	582.79
394.68	643.65
394.88	624.92
395.07	615.56
395.26	615.56
395.46	552.37
395.65	601.52
395.84	671.73
396.04	709.18
396.23	613.22
396.42	746.63
396.62	718.54
396.81	657.69
397.00	578.11
397.19	592.16
397.39	559.39
397.58	711.52
397.77	643.65
397.97	690.46
398.16	814.51
398.35	779.40
398.55	774.72
398.74	779.40
398.93	657.69
399.12	795.78
399.32	671.73
399.51	734.93
399.70	798.12
399.90	748.97
400.09	737.27
400.28	770.04
400.47	765.36
400.67	833.23
400.86	828.55
401.05	812.17
401.24	826.21
401.44	877.70
401.63	870.68
401.82	870.68
402.01	814.51
402.21	767.70
402.40	898.77
402.59	851.96
402.78	851.96
402.97	889.40
403.17	875.36
403.36	891.74
403.55	854.30
403.74	819.19
403.93	926.85
404.13	1004.09
404.32	889.40
404.51	976.00
404.70	990.05
404.89	954.94
405.09	950.26
405.28	1048.56
405.47	959.62
405.66	1018.13
405.85	990.05
406.05	1041.54
406.24	987.71
406.43	968.98
406.62	1102.39
406.81	1020.47
407.00	1043.88
407.20	1088.35
407.39	983.02
407.58	1086.01
407.77	1111.75
407.96	1088.35
408.15	1121.12
408.34	1170.27
408.54	1128.14
408.73	1184.31
408.92	1109.41
409.11	1156.22
409.30	1151.54
409.49	1193.67
409.68	1130.48
409.87	1287.29
410.07	1224.10
410.26	1273.25
410.45	1217.08
410.64	1303.68
410.83	1212.40
411.02	1214.74
411.21	1306.02
411.40	1320.06
411.59	1277.93
411.78	1174.95
411.98	1224.10
412.17	1231.12
412.36	1444.11
412.55	1432.41
412.74	1378.58
412.93	1380.92
413.12	1406.66
413.31	1469.86
413.50	1324.74
413.69	1401.98
413.88	1425.39
414.07	1425.39
414.26	1593.90
414.45	1481.56
414.64	1493.26
414.83	1629.01
415.02	1540.07
415.22	1579.86
415.41	1671.14
415.60	1589.22
415.79	1685.19
415.98	1607.95
416.17	1715.61
416.36	1582.20
416.55	1746.04
416.74	1666.46
416.93	1645.40
417.12	1591.56
417.31	1717.95
417.50	1629.01
417.69	1813.92
417.88	1825.62
418.07	1776.47
418.26	1825.62
418.45	1764.76
418.64	1811.57
418.83	1755.40
419.02	1914.56
419.21	1760.08
419.39	1874.77
419.58	1888.81
419.77	1907.54
419.96	1987.11
420.15	1902.86
420.34	1937.96
420.53	1919.24
420.72	1933.28
420.91	2115.84
421.10	2076.06
421.29	2045.63
421.48	2087.76
421.67	1902.86
421.86	2022.22
422.05	2111.16
422.24	2022.22
422.43	2031.58
422.61	2057.33
422.80	2038.61
422.99	2064.35
423.18	2125.21
423.37	2099.46
423.56	2052.65
423.75	2047.97
423.94	2001.16
424.13	2022.22
424.32	2033.93
424.50	2221.17
424.69	2183.72
424.88	2090.10
425.07	2141.59
425.26	2085.42
425.45	1987.11
425.64	2045.63
425.83	2085.42
426.01	2172.02
426.20	2183.72
426.39	2127.55
426.58	2052.65
426.77	2134.57
426.96	2129.89
427.15	2132.23
427.33	2249.25
427.52	2181.38
427.71	2303.09
427.90	2186.06
428.09	2204.78
428.28	2293.72
428.46	2333.51
428.65	2232.87
428.84	2373.30
429.03	2361.60
429.22	2275.00
429.40	2282.02
429.59	2239.89
429.78	2172.02
429.97	2169.68
430.16	2232.87
430.34	2373.30
430.53	2373.30
430.72	2368.62
430.91	2347.56
431.10	2347.56
431.28	2450.54
431.47	2586.29
431.66	2466.92
431.85	2448.20
432.03	2572.25
432.22	2480.97
432.41	2574.59
432.60	2480.97
432.79	2609.70
432.97	2586.29
433.16	2525.44
433.35	2602.68
433.54	2574.59
433.72	2612.04
433.91	2637.78
434.10	2661.19
434.28	2492.67
434.47	2553.52
434.66	2691.62
434.85	2752.47
435.03	2679.91
435.22	2710.34
435.41	2801.62
435.59	2593.31
435.78	2647.15
435.97	2726.72
436.16	2768.85
436.34	2740.77
436.53	2677.57
436.72	2778.22
436.90	2766.51
437.09	2691.62
437.28	2717.36
437.46	2782.90
437.65	2754.81
437.84	2909.29
438.02	2700.98
438.21	2855.45
438.40	2935.03
438.58	2958.44
438.77	2881.20
438.96	2881.20
439.14	3030.99
439.33	3066.10
439.52	3138.66
439.70	3061.42
439.89	3150.36
440.08	3063.76
440.26	3112.91
440.45	3138.66
440.63	3243.98
440.82	3243.98
441.01	3208.87
441.19	3215.90
441.38	3365.69
441.57	3351.65
441.75	3449.95
441.94	3307.18
442.12	3389.10
442.31	3442.93
442.50	3370.37
442.68	3251.00
442.87	3522.51
443.05	3337.60
443.24	3452.29
443.43	3447.61
443.61	3438.25
443.80	3660.60
443.98	3438.25
444.17	3316.54
444.35	3545.91
444.54	3543.57
444.73	3529.53
444.91	3454.63
445.10	3496.76
445.28	3534.21
445.47	3506.12
445.65	3431.23
445.84	3485.06
446.02	3566.98
446.21	3513.14
446.39	3506.12
446.58	3658.26
446.77	3644.21
446.95	3487.40
447.14	3681.66
447.32	3688.68
447.51	3595.06
447.69	3625.49
447.88	3667.62
448.06	3658.26
448.25	3609.11
448.43	3618.47
448.62	3613.79
448.80	3534.21
448.99	3625.49
449.17	3550.59
449.36	3585.70
449.54	3798.69
449.73	3840.82
449.91	3805.71
450.10	3847.84
450.28	3911.04
450.46	3735.50
450.65	3950.82
450.83	3808.05
451.02	3871.25
451.20	3967.21
451.39	4042.11
451.57	3794.01
451.76	3885.29
451.94	3932.10
452.13	3969.55
452.31	3936.78
452.49	3908.69
452.68	3969.55
452.86	3960.19
453.05	3943.80
453.23	4074.87
453.42	3941.46
453.60	4002.32
453.78	3988.27
453.97	4077.21
454.15	4203.60
454.34	4065.51
454.52	4222.33
454.70	4140.41
454.89	4112.32
455.07	4175.52
455.26	4201.26
455.44	4147.43
455.62	4145.09
455.81	4304.25
455.99	4219.99
456.17	4098.28
456.36	4241.05
456.54	4472.76
456.73	4273.82
456.91	4344.03
457.09	4428.29
457.28	4432.97
457.46	4400.21
457.64	4662.35
457.83	4432.97
458.01	4353.40
458.19	4407.23
458.38	4411.91
458.56	4458.72
458.74	4601.49
458.93	4505.53
459.11	4500.85
459.29	4566.39
459.48	4690.43
459.66	4662.35
459.84	4744.27
460.03	4802.78
460.21	4664.69
460.39	4704.48
460.57	4699.80
460.76	4784.06
460.94	4741.93
461.12	4765.33
461.31	4706.82
461.49	4744.27
461.67	4718.52
461.85	4964.28
462.04	4774.69
462.22	5284.93
462.40	5022.79
462.59	4851.93
462.77	4788.74
462.95	4903.42
463.13	4840.23
463.32	4781.71
463.50	4973.64
463.68	5095.35
463.86	4833.21
464.05	4943.21
464.23	5078.96
464.41	5055.56
464.59	4933.85
464.78	5144.50
464.96	5029.81
465.14	5174.92
465.32	5205.35
465.50	5090.67
465.69	5093.01
465.87	5160.88
466.05	5118.75
466.23	5165.56
466.41	5221.74
466.60	5254.50
466.78	5156.20
466.96	5177.26
467.14	5289.61
467.32	5359.83
467.51	5341.10
467.69	4959.60
467.87	5235.78
468.05	5289.61
468.23	5338.76
468.41	5245.14
468.60	5324.72
468.78	5458.13
468.96	5303.65
469.14	5448.77
469.32	5521.32
469.50	5458.13
469.69	5547.07
469.87	5689.84
470.05	5418.34
470.23	5696.86
470.41	5509.62
470.59	5640.69
470.77	5565.79
470.95	5598.56
471.14	5762.40
471.32	5715.59
471.50	5682.82
471.68	5703.89
471.86	5809.21
472.04	5912.19
472.22	6038.58
472.40	5816.23
472.58	5832.62
472.77	5879.43
472.95	5919.21
473.13	6108.80
473.31	5949.64
473.49	6031.56
473.67	5961.34
473.85	6176.67
474.03	6073.69
474.21	6195.40
474.39	6211.78
474.57	6380.30
474.75	6361.58
474.93	6314.77
475.12	6434.13
475.30	6303.06
475.48	6342.85
475.66	6497.33
475.84	6424.77
476.02	6532.44
476.20	6504.35
476.38	6588.61
476.56	6684.57
476.74	6656.48
476.92	6839.05
477.10	6764.15
477.28	7049.69
477.46	6817.98
477.64	6820.32
477.82	7098.84
478.00	7124.59
478.18	7030.97
478.36	7131.61
478.54	7084.80
478.72	7246.30
478.90	7206.51
479.08	7220.55
479.26	7548.23
479.44	7318.86
479.62	7492.05
479.80	7665.25
479.98	7754.19
480.16	7573.97
480.34	7705.04
480.52	7719.09
480.70	7878.24
480.88	7913.35
481.06	7967.18
481.24	8013.99
481.41	8084.21
481.59	8257.41
481.77	8271.45
481.95	8212.94
482.13	8285.50
482.31	8315.92
482.49	8367.42
482.67	8395.50
482.85	8683.39
483.03	8896.38
483.21	8751.26
483.39	8786.37
483.57	8894.04
483.74	8882.33
483.92	8952.55
484.10	9055.53
484.28	9193.62
484.46	9263.84
484.64	9528.32
484.82	9184.26
485.00	9390.23
485.18	9525.98
485.35	9659.39
485.53	9570.45
485.71	9844.29
485.89	9923.87
486.07	9818.55
486.25	9809.19
486.43	10141.54
486.61	9863.02
486.78	10218.78
486.96	10359.21
487.14	10487.94
487.32	10174.31
487.50	10534.75
487.68	10600.29
487.85	10710.29
488.03	10841.36
488.21	11073.07
488.39	10883.49
488.57	11131.59
488.75	11239.25
488.92	11229.89
489.10	11180.74
489.28	11391.39
489.46	11496.71
489.64	11314.15
489.81	11791.62
489.99	11686.29
490.17	11595.01
490.35	11983.54
490.53	11772.89
490.70	12154.40
490.88	12060.78
491.06	12236.32
491.24	12299.52
491.41	12383.77
491.59	12346.33
491.77	12259.73
491.95	12587.40
492.13	12533.57
492.30	12423.56
492.48	12809.75
492.66	12573.36
492.84	12816.77
493.01	12910.40
493.19	13036.78
493.37	13118.70
493.54	13137.43
493.72	13231.05
493.90	13451.06
494.08	13118.70
494.25	13270.84
494.43	13804.48
494.61	13745.97
494.79	13991.72
494.96	13874.70
495.14	13991.72
495.32	13935.55
495.49	13872.36
495.67	14314.72
495.85	14190.67
496.02	14265.57
496.20	14361.53
496.38	14455.15
496.55	14225.78
496.73	14691.54
496.91	14464.51
497.09	14630.69
497.26	14839.00
497.44	14457.49
497.62	14759.42
497.79	15131.56
497.97	15005.17
498.14	15037.94
498.32	15272.00
498.50	15295.40
498.67	15367.96
498.85	15213.48
499.03	15566.90
499.20	15552.86
499.38	15721.38
499.56	15679.25
499.73	15564.56
499.91	16035.01
500.08	16056.08
500.26	15903.94
500.44	16123.95
500.61	15917.98
500.79	15866.49
500.97	16170.76
501.14	16311.19
501.32	16414.18
501.49	16353.32
501.67	16304.17
501.84	16585.04
502.02	16470.35
502.20	16468.01
502.37	16741.85
502.55	16765.26
502.72	16650.57
502.90	16933.78
503.07	16816.75
503.25	16772.28
503.43	16893.99
503.60	17273.15
503.78	16868.24
503.95	17394.86
504.13	17130.38
504.30	17106.98
504.48	16992.29
504.65	17427.63
504.83	17373.80
505.01	17633.60
505.18	17720.20
505.36	17675.73
505.53	17422.95
505.71	17661.68
505.88	17638.28
506.06	17823.18
506.23	18085.32
506.41	17727.22
506.58	17919.14
506.76	17767.01
506.93	18017.44
507.11	18071.28
507.28	17984.68
507.46	18207.03
507.63	18398.95
507.81	18607.26
507.98	18153.20
508.16	18405.97
508.33	18471.51
508.50	18361.50
508.68	18640.03
508.85	18721.95
509.03	18771.10
509.20	18904.51
509.38	18883.44
509.55	19087.07
509.73	18766.42
509.90	19115.16
510.08	19101.11
510.25	19129.20
510.42	19241.54
510.60	19585.60
510.77	19283.67
510.95	19232.18
511.12	19126.86
511.30	19330.48
511.47	19445.17
511.64	19358.57
511.82	19707.31
511.99	19620.71
512.17	19941.36
512.34	19728.38
512.51	19873.49
512.69	19948.39
512.86	19936.68
513.04	19831.36
513.21	19878.17
513.38	20189.46
513.56	19915.62
513.73	19969.45
513.90	20224.57
514.08	20159.03
514.25	20280.74
514.43	20505.43
514.60	20535.86
514.77	20596.71
514.95	20451.60
515.12	20573.31
515.29	20472.67
515.47	20505.43
515.64	20683.31
515.81	20844.81
515.99	20669.27
516.16	20709.06
516.33	21135.04
516.51	21212.28
516.68	20512.46
516.85	20758.21
517.03	21069.50
517.20	21338.66
517.37	21060.14
517.54	21399.52
517.72	21198.23
517.89	20985.24
518.06	21296.53
518.24	21380.79
518.41	21336.32
518.58	21687.40
518.75	21689.74
518.93	21694.43
519.10	21659.32
519.27	21645.27
519.45	21525.91
519.62	21809.11
519.79	21830.18
519.96	21996.35
520.14	21804.43
520.31	21839.54
520.48	22155.51
520.65	22506.59
520.83	22265.52
521.00	21914.44
521.17	22232.75
521.34	22178.92
521.52	22408.29
521.69	22422.33
521.86	22370.84
522.03	22506.59
522.20	22616.60
522.38	22878.74
522.55	22808.52
522.72	22838.95
522.89	22478.50
523.07	23026.19
523.24	22670.43
523.41	22827.24
523.58	22754.69
523.75	23077.68
523.92	22679.79
524.10	23042.57
524.27	23133.86
524.44	23211.09
524.61	23477.91
524.78	23267.27
524.96	23372.59
525.13	23136.20
525.30	23307.05
525.47	23363.23
525.64	23630.05
525.81	23681.54
525.98	23548.13
526.16	23669.84
526.33	23580.90
526.50	23484.94
526.67	23625.37
526.84	23377.27
527.01	23819.63
527.18	23545.79
527.36	23859.42
527.53	24100.50
527.70	24058.37
527.87	23896.87
528.04	24276.04
528.21	23999.85
528.38	23971.77
528.55	24437.53
528.72	24276.04
528.89	24166.03
529.07	24322.85
529.24	23950.70
529.41	24482.00
529.58	24350.93
529.75	24222.20
529.92	24233.91
530.09	24432.85
530.26	24603.71
530.43	24706.70
530.60	24865.85
530.77	24737.12
530.94	24411.79
531.11	24472.64
531.28	24535.84
531.46	24636.48
531.63	24753.51
531.80	24943.09
531.97	24919.68
532.14	24996.92
532.31	24641.16
532.48	24620.10
532.65	25041.39
532.82	24498.39
532.99	25230.98
533.16	25088.20
533.33	25032.03
533.50	25565.67
533.67	25160.76
533.84	24938.41
534.01	25296.51
534.18	24938.41
534.35	25280.13
534.52	25127.99
534.69	25380.77
534.86	25832.49
535.03	25570.35
535.20	25678.02
535.37	25591.42
535.54	25586.74
535.71	25284.81
535.88	25689.72
536.05	25474.39
536.22	25935.48
536.38	25532.90
536.55	26143.78
536.72	25755.26
536.89	25907.39
537.06	25755.26
537.23	26019.74
537.40	25649.93
537.57	25895.69
537.74	25912.07
537.91	26178.89
538.08	26270.17
538.25	26232.72
538.42	26235.06
538.59	26422.31
538.75	26054.84
538.92	25879.30
539.09	26204.64
539.26	26169.53
539.43	26576.78
539.60	26551.04
539.77	26293.58
539.94	26263.15
540.11	26274.85
540.28	26368.48
540.44	26412.95
540.61	26359.11
540.78	26508.91
540.95	26445.71
541.12	26600.19
541.29	26649.34
541.46	26712.53
541.62	26518.27
541.79	26656.36
541.96	26256.13
542.13	26560.40
542.30	26843.60
542.47	27199.37
542.63	26969.99
542.80	27204.05
542.97	27295.33
543.14	27285.97
543.31	27365.54
543.48	27379.59
543.64	27735.35
543.81	27419.38
543.98	27566.83
544.15	27407.67
544.32	27555.13
544.48	27676.83
544.65	27388.95
544.82	27669.81
544.99	26948.93
545.16	27798.54
545.32	27557.47
545.49	27779.82
545.66	27946.00
545.83	27917.91
546.00	28067.70
546.16	27819.61
546.33	27817.27
546.50	27089.36
546.67	27683.86
546.83	27550.45
547.00	27435.76
547.17	27744.71
547.34	27946.00
547.50	27969.40
547.67	28077.07
547.84	28009.19
548.00	28072.39
548.17	28009.19
548.34	28388.36
548.51	28355.59
548.67	28336.87
548.84	28587.30
549.01	28060.68
549.18	28184.73
549.34	28175.37
549.51	28259.63
549.68	28257.29
549.84	28353.25
550.01	28266.65
550.18	28343.89
550.34	28226.86
550.51	28737.10
550.68	28636.45
550.84	28285.37
551.01	28931.36
551.18	28313.46
551.34	28278.35
551.51	28428.15
551.68	28556.88
551.84	28762.84
552.01	29078.82
552.18	28692.63
552.34	29006.26
552.51	28608.37
552.68	28467.94
552.84	28491.34
553.01	28819.02
553.18	28898.59
553.34	29289.46
553.51	28861.15
553.67	29230.95
553.84	29134.99
554.01	29177.12
554.17	29315.21
554.34	29195.84
554.51	29020.30
554.67	28987.53
554.84	28718.37
555.00	29223.93
555.17	29008.60
555.33	29376.06
555.50	29139.67
555.67	29383.09
555.83	29139.67
556.00	28910.30
556.16	29404.15
556.33	29083.50
556.50	29268.40
556.66	29776.30
556.83	29378.40
556.99	29310.53
557.16	29694.38
557.32	29769.27
557.49	29263.72
557.65	29366.70
557.82	29294.14
557.98	29205.20
558.15	29373.72
558.32	29656.93
558.48	29359.68
558.65	30213.98
558.81	29640.54
558.98	29605.44
559.14	29488.41
559.31	29411.17
559.47	29797.36
559.64	29340.96
559.80	29713.10
559.97	29766.93
560.13	29729.48
560.30	29757.57
560.46	29776.30
560.63	29724.80
560.79	29462.66
560.96	30057.16
561.12	30108.65
561.29	29895.66
561.45	30024.39
561.61	29612.46
561.78	29748.21
561.94	29720.12
562.11	30335.68
562.27	29989.28
562.44	30178.87
562.60	30075.88
562.77	29902.68
562.93	29715.44
563.10	30433.99
563.26	29652.25
563.42	30668.04
563.59	30225.68
563.75	30155.46
563.92	29493.09
564.08	29839.49
564.24	30017.37
564.41	29993.97
564.57	30113.33
564.74	29752.89
564.90	30043.12
565.07	30333.34
565.23	30548.67
565.39	30174.19
565.56	30675.06
565.72	30155.46
565.88	30527.61
566.05	30115.67
566.21	30387.18
566.38	30059.50
566.54	30181.21
566.70	30635.27
566.87	30752.30
567.03	30618.89
567.19	30625.91
567.36	30225.68
567.52	30291.21
567.68	30300.58
567.85	30148.44
568.01	30604.84
568.17	30127.38
568.34	30712.51
568.50	30293.55
568.66	30548.67
568.83	30270.15
568.99	30644.63
569.15	30274.83
569.32	30335.68
569.48	29993.97
569.64	30553.35
569.81	30490.16
569.97	30405.90
570.13	30738.26
570.30	30300.58
570.46	30616.55
570.62	30532.29
570.78	30560.37
570.95	30375.47
571.11	30185.89
571.27	29942.47
571.43	30532.29
571.60	30499.52
571.76	30834.22
571.92	30855.28
572.09	31021.46
572.25	30483.14
572.41	30780.39
572.57	30625.91
572.74	30635.27
572.90	30639.95
573.06	30808.47
573.22	30637.61
573.38	30513.56
573.55	30565.06
573.71	30836.56
573.87	30752.30
574.03	30862.30
574.20	30834.22
574.36	30321.64
574.52	30497.18
574.68	30857.62
574.84	30951.24
575.01	31007.42
575.17	30558.03
575.33	30817.83
575.49	30569.74
575.65	30962.95
575.82	31016.78
575.98	31028.48
576.14	30967.63
576.30	30881.03
576.46	30724.21
576.62	30686.76
576.79	30553.35
576.95	30654.00
577.11	30588.46
577.27	30771.02
577.43	30885.71
577.59	30726.55
577.75	31103.38
577.92	30991.03
578.08	30473.78
578.24	30527.61
578.40	30881.03
578.56	30944.22
578.72	31147.85
578.88	31189.98
579.04	30932.52
579.21	30888.05
579.37	30871.67
579.53	31419.35
579.69	31026.14
579.85	31257.85
580.01	31000.40
580.17	30747.62
580.33	30799.11
580.49	31150.19
580.65	30958.27
580.82	31161.89
580.98	30958.27
581.14	30661.02
581.30	31042.53
581.46	31005.08
581.62	30801.45
581.78	30651.66
581.94	31522.34
582.10	30569.74
582.26	31056.57
582.42	31119.76
582.58	31166.57
582.74	30869.33
582.90	30941.88
583.06	30850.60
583.22	31016.78
583.38	30850.60
583.54	30740.60
583.70	31187.64
583.86	31098.70
584.02	30909.11
584.18	31386.58
584.34	31414.67
584.50	31620.64
584.66	31447.44
584.82	30979.33
584.98	31152.53
585.14	31143.17
585.30	30658.68
585.46	30838.90
585.62	31173.60
585.78	31192.32
585.94	30916.14
586.10	31424.03
586.26	31339.77
586.42	31407.65
586.58	31697.88
586.74	31239.13
586.90	30731.23
587.06	30583.78
587.22	31143.17
587.38	31211.04
587.54	31512.97
587.70	31232.11
587.86	31201.68
588.02	31538.72
588.18	31447.44
588.34	31393.61
588.49	31058.91
588.65	31278.92
588.81	31035.50
588.97	30969.97
589.13	31262.54
589.29	31615.96
589.45	31342.11
589.61	31292.96
589.77	31901.50
589.93	31786.82
590.08	31754.05
590.24	31470.84
590.40	31281.26
590.56	31639.36
590.72	31316.37
590.88	31379.56
591.04	31620.64
591.20	31857.03
591.35	31690.85
591.51	32051.30
591.67	31817.24
591.83	31639.36
591.99	31538.72
592.15	31559.78
592.31	31482.55
592.46	31438.08
592.62	31030.82
592.78	31461.48
592.94	31494.25
593.10	31299.98
593.26	31765.75
593.41	31681.49
593.57	31199.34
593.73	31700.22
593.89	31807.88
594.05	31606.59
594.20	31433.39
594.36	31168.91
594.52	31346.79
594.68	31608.93
594.84	31536.38
594.99	31419.35
595.15	31711.92
595.31	31744.69
595.47	31758.73
595.62	31805.54
595.78	31999.80
595.94	31552.76
596.10	31681.49
596.25	31449.78
596.41	31204.02
596.57	31417.01
596.73	31283.60
596.88	31267.22
597.04	31894.48
597.20	31824.26
597.36	31639.36
597.51	31847.67
597.67	31735.32
597.83	31903.84
597.99	31934.27
598.14	31730.64
598.30	31859.37
598.46	31550.42
598.61	31704.90
598.77	31566.81
598.93	31646.38
599.09	31803.20
599.24	31845.33
599.40	32116.83
599.56	32009.17
599.71	31536.38
599.87	31920.23
600.03	31761.07
600.18	31735.32
600.34	31810.22
600.50	31889.80
600.65	31826.60
600.81	31924.91
600.97	31950.65
601.12	31847.67
601.28	32041.93
601.44	32002.14
601.59	32456.21
601.75	31517.65
601.91	31744.69
602.06	31943.63
602.22	31559.78
602.37	31775.11
602.53	31421.69
602.69	31971.72
602.84	32100.45
603.00	31674.47
603.16	31777.45
603.31	31658.09
603.47	31901.50
603.62	31365.52
603.78	31454.46
603.94	31466.16
604.09	31321.05
604.25	31988.10
604.40	31915.54
604.56	31831.29
604.71	31800.86
604.87	31950.65
605.03	31798.52
605.18	31482.55
605.34	31592.55
605.49	31512.97
605.65	31819.58
605.80	31524.68
605.96	31770.43
606.12	31777.45
606.27	31620.64
606.43	31725.96
606.58	31672.13
606.74	31531.70
606.89	31831.29
607.05	31688.51
607.20	31707.24
607.36	31475.52
607.51	31620.64
607.67	31524.68
607.82	31515.31
607.98	31625.32
608.13	31648.72
608.29	31538.72
608.44	31332.75
608.60	32088.74
608.75	31798.52
608.91	31732.98
609.06	31374.88
609.22	31899.16
609.37	31452.12
609.53	31772.77
609.68	31578.51
609.84	31290.62
609.99	31634.68
610.15	31630.00
610.30	31103.38
610.46	31417.01
610.61	31611.28
610.76	31688.51
610.92	31388.92
611.07	31470.84
611.23	31386.58
611.38	31592.55
611.54	31323.39
611.69	31405.31
611.84	31285.94
612.00	31285.94
612.15	31295.30
612.31	31744.69
612.46	31257.85
612.62	31690.85
612.77	31402.97
612.92	31749.37
613.08	31302.32
613.23	31295.30
613.39	31662.77
613.54	31049.55
613.69	31161.89
613.85	31115.08
614.00	31332.75
614.15	31580.85
614.31	31145.51
614.46	31714.26
614.62	31239.13
614.77	31524.68
614.92	30911.46
615.08	31101.04
615.23	31178.28
615.38	31248.49
615.54	31042.53
615.69	31044.87
615.84	30794.43
616.00	31534.04
616.15	30895.07
616.30	31063.59
616.46	31264.88
616.61	31218.07
616.76	31023.80
616.92	30944.22
617.07	30841.24
617.22	30497.18
617.37	30764.00
617.53	30841.24
617.68	30689.10
617.83	30485.48
617.99	30808.47
618.14	30546.33
618.29	31072.95
618.45	30525.27
618.60	30810.81
618.75	31124.44
618.90	30703.15
619.06	30820.17
619.21	30848.26
619.36	30895.07
619.51	30684.42
619.67	30080.56
619.82	30253.76
619.97	30651.66
620.12	30366.11
620.28	30696.13
620.43	30785.07
620.58	30735.92
620.73	30829.54
620.89	30452.71
621.04	30899.75
621.19	30890.39
621.34	30441.01
621.49	30754.64
621.65	30492.50
621.80	30387.18
621.95	30476.12
622.10	30497.18
622.25	30380.15
622.41	30462.07
622.56	30333.34
622.71	30457.39
622.86	30529.95
623.01	30625.91
623.16	30141.42
623.32	30136.74
623.47	30150.78
623.62	30206.95
623.77	29806.72
623.92	30108.65
624.07	30235.04
624.23	30361.43
624.38	30239.72
624.53	30471.43
624.68	30387.18
624.83	30361.43
624.98	30277.17
625.13	30263.13
625.29	30298.23
625.44	30277.17
625.59	29582.03
625.74	29757.57
625.89	29785.66
626.04	29661.61
626.19	29621.82
626.34	29799.70
626.49	29710.76
626.65	29902.68
626.80	30059.50
626.95	29898.00
627.10	30101.63
627.25	29802.04
627.40	29366.70
627.55	29680.33
627.70	29291.80
627.85	29949.50
628.00	29647.57
628.15	29979.92
628.30	29750.55
628.45	29717.78
628.60	29872.26
628.76	29912.05
628.91	29692.04
629.06	29523.52
629.21	29699.06
629.36	29640.54
629.51	29682.67
629.66	29369.04
629.81	29289.46
629.96	29289.46
630.11	29553.94
630.26	29167.76
630.41	29137.33
630.56	29104.56
630.71	29797.36
630.86	29221.59
631.01	29186.48
631.16	29521.18
631.31	29280.10
631.46	28912.64
631.61	29193.50
631.76	29429.90
631.91	29003.92
632.06	29116.26
632.21	28964.13
632.36	29099.88
632.51	29071.79
632.66	28884.55
632.81	29032.00
632.96	28999.24
633.10	29326.91
633.25	29303.51
633.40	29287.12
633.55	29244.99
633.70	28739.44
633.85	29443.94
634.00	28870.51
634.15	28788.59
634.30	28861.15
634.45	28709.01
634.60	28903.28
634.75	29034.35
634.90	28687.95
635.05	28891.57
635.19	29303.51
635.34	29139.67
635.49	28788.59
635.64	28905.62
635.79	28858.81
635.94	29062.43
636.09	28903.28
636.24	28554.54
636.39	28496.02
636.53	28664.54
636.68	28662.20
636.83	29067.11
636.98	28617.73
637.13	28769.86
637.28	28982.85
637.43	28804.97
637.57	28926.68
637.72	28538.15
637.87	28343.89
638.02	28865.83
638.17	28276.01
638.32	28362.61
638.46	28402.40
638.61	28304.10
638.76	28526.45
638.91	28130.90
639.06	28044.30
639.20	28615.39
639.35	28456.23
639.50	28259.63
639.65	28517.09
639.80	28451.55
639.94	28650.50
640.09	28699.65
640.24	28166.01
640.39	28121.54
640.54	28119.20
640.68	28023.23
640.83	28116.86
640.98	28446.87
641.13	28245.58
641.27	27894.50
641.42	28486.66
641.57	28116.86
641.72	27882.80
641.86	27786.84
642.01	27786.84
642.16	28180.05
642.31	28091.11
642.45	28079.41
642.60	28180.05
642.75	27658.11
642.90	27950.68
643.04	27826.63
643.19	27587.89
643.34	27896.85
643.48	28053.66
643.63	27868.76
643.78	27887.48
643.93	28095.79
644.07	27740.03
644.22	27892.16
644.37	27770.46
644.51	28095.79
644.66	28058.34
644.81	27594.92
644.95	27613.64
645.10	27536.40
645.25	27658.11
645.39	27421.72
645.54	27599.60
645.69	27398.31
645.83	27625.34
645.98	27613.64
646.13	27398.31
646.27	27826.63
646.42	27438.10
646.57	27693.22
646.71	27257.88
646.86	27452.14
647.00	27239.15
647.15	27442.78
647.30	27019.14
647.44	27318.73
647.59	27571.51
647.74	27292.99
647.88	27356.18
648.03	27536.40
648.17	27840.67
648.32	27599.60
648.47	27494.27
648.61	27180.64
648.76	27447.46
648.90	27316.39
649.05	27426.40
649.20	27087.02
649.34	27421.72
649.49	27124.47
649.63	27131.49
649.78	26712.53
649.92	27168.94
650.07	26836.58
650.21	26911.48
650.36	27363.20
650.51	26618.91
650.65	27072.98
650.80	27145.53
650.94	26984.04
651.09	27140.85
651.23	27040.21
651.38	26855.31
651.52	26822.54
651.67	27014.46
651.81	27094.04
651.96	27213.41
652.10	26569.76
652.25	26775.73
652.39	27283.62
652.54	27005.10
652.68	27110.43
652.83	27117.45
652.97	27190.00
653.12	26974.67
653.26	26948.93
653.41	27178.30
653.55	26740.62
653.70	26782.75
653.84	26705.51
653.99	27009.78
654.13	26328.69
654.27	26869.35
654.42	26490.18
654.56	26471.46
654.71	27250.86
654.85	26675.09
655.00	26742.96
655.14	26965.31
655.29	26462.10
655.43	26459.76
655.57	26487.84
655.72	26366.13
655.86	26637.64
656.01	26380.18
656.15	26548.70
656.30	26293.58
656.44	26408.26
656.58	26307.62
656.73	26150.81
656.87	26347.41
657.01	26506.57
657.16	26366.13
657.30	26742.96
657.45	25949.52
657.59	26249.11
657.73	26106.34
657.88	26169.53
658.02	26064.21
658.16	26319.32
658.31	26134.42
658.45	26167.19
658.60	26036.12
658.74	25724.83
658.88	25773.98
659.03	25905.05
659.17	25935.48
659.31	25954.20
659.46	25996.33
659.60	26256.13
659.74	25750.57
659.89	26024.42
660.03	25799.73
660.17	25865.26
660.32	25617.16
660.46	25720.15
660.60	25795.04
660.74	25289.49
660.89	25600.78
661.03	25238.00
661.17	25645.25
661.32	25345.66
661.46	25467.37
661.60	25675.68
661.74	25514.18
661.89	25673.34
662.03	25509.50
662.17	25703.76
662.31	25146.72
662.46	25151.40
662.60	25238.00
662.74	25200.55
662.88	25120.97
663.03	25050.75
663.17	25067.14
663.31	24711.38
663.45	25050.75
663.60	25118.63
663.74	24676.27
663.88	25081.18
664.02	24968.84
664.17	25149.06
664.31	24835.42
664.45	24931.39
664.59	25104.59
664.73	25060.12
664.88	24575.62
665.02	24526.47
665.16	24673.93
665.30	24683.29
665.44	24383.70
665.59	23939.00
665.73	24301.78
665.87	24425.83
666.01	24261.99
666.15	24421.15
666.29	24603.71
666.44	24482.00
666.58	24212.84
666.72	24474.98
666.86	24584.99
667.00	24372.00
667.14	24362.64
667.28	24070.07
667.43	23948.36
667.57	24156.67
667.71	23672.18
667.85	23946.02
667.99	23632.39
668.13	24142.63
668.27	23899.21
668.41	23920.28
668.56	23693.24
668.70	23892.19
668.84	24006.87
668.98	23702.61
669.12	23939.00
669.26	23365.57
669.40	23765.80
669.54	23445.15
669.68	23761.12
669.82	23576.22
669.96	23515.36
670.10	23353.87
670.25	23754.10
670.39	23463.87
670.53	23257.90
670.67	23051.94
670.81	23119.81
670.95	23367.91
671.09	23330.46
671.23	23014.49
671.37	23463.87
671.51	23414.72
671.65	23243.86
671.79	23215.77
671.93	22892.78
672.07	23360.89
672.21	22558.08
672.35	22923.21
672.49	22700.86
672.63	22731.28
672.77	22799.16
672.91	22689.15
673.05	22501.91
673.19	22642.34
673.33	22656.39
673.47	22555.74
673.61	22815.54
673.75	22431.69
673.89	22326.37
674.03	22415.31
674.17	22647.02
674.31	22221.05
674.45	22333.39
674.59	22277.22
674.73	22136.79
674.87	22015.08
675.01	21930.82
675.15	22085.30
675.29	21785.71
675.43	21673.36
675.56	21769.32
675.70	21806.77
675.84	22113.38
675.98	20975.88
676.12	21549.31
676.26	21886.35
676.40	21781.03
676.54	21429.94
676.68	21549.31
676.82	21387.82
676.96	21146.74
677.10	21188.87
677.23	21090.57
677.37	20830.77
677.51	21048.44
677.65	21135.04
677.79	21153.76
677.93	20685.65
678.07	20786.30
678.21	20615.44
678.34	20528.84
678.48	20758.21
678.62	20713.74
678.76	20512.46
678.90	20503.09
679.04	20369.68
679.18	20142.65
679.31	20081.80
679.45	20210.53
679.59	19894.55
679.73	20140.31
679.87	19924.98
680.00	20154.35
680.14	19878.17
680.28	19983.49
680.42	19946.05
680.56	19704.97
680.70	19894.55
680.83	19924.98
680.97	19562.20
681.11	20152.01
681.25	19700.29
681.39	19480.28
681.52	19501.34
681.66	19236.86
681.80	19435.81
681.94	19358.57
682.07	19173.67
682.21	19150.26
682.35	19070.68
682.49	18932.59
682.62	19115.16
682.76	19014.51
682.90	18899.83
683.04	18934.93
683.17	18740.67
683.31	18827.27
683.45	18944.30
683.59	18565.13
683.72	18836.63
683.86	18445.76
684.00	18586.19
684.13	18178.94
684.27	18382.57
684.41	18253.84
684.55	18087.66
684.68	18090.00
684.82	18022.12
684.96	18050.21
685.09	17785.73
685.23	17582.10
685.37	18066.60
685.50	17975.31
685.64	17776.37
685.78	17708.49
685.91	17926.16
686.05	17806.80
686.19	17659.34
686.32	17783.39
686.46	17500.19
686.60	17348.05
686.73	17233.36
686.87	16940.80
687.01	17224.00
687.14	17032.08
687.28	17158.47
687.42	17228.68
687.55	16849.52
687.69	16802.71
687.82	16910.37
687.96	16889.31
688.10	16741.85
688.23	16566.31
688.37	16819.09
688.50	16805.05
688.64	16774.62
688.78	16709.08
688.91	16535.88
689.05	16444.60
689.18	16102.89
689.32	15920.32
689.46	16379.07
689.59	16018.63
689.73	16224.59
689.86	16086.50
690.00	15908.62
690.13	16070.12
690.27	15679.25
690.41	16123.95
690.54	15742.44
690.68	15798.62
690.81	15665.21
690.95	15901.60
691.08	15520.09
691.22	15522.43
691.35	15566.90
691.49	15674.57
691.62	15468.60
691.76	15433.49
691.89	15337.53
692.03	15173.69
692.16	15021.56
692.30	14860.06
692.43	15075.39
692.57	14602.60
692.70	14717.29
692.84	14324.08
692.97	14792.19
693.11	14827.29
693.24	14670.48
693.38	14923.26
693.51	14462.17
693.65	14551.11
693.78	14298.33
693.92	14469.19
694.05	14291.31
694.19	14319.40
694.32	14377.91
694.45	14155.56
694.59	14001.08
694.72	14139.18
694.86	14022.15
694.99	13549.36
695.13	13802.14
695.26	13961.30
695.39	13666.39
695.53	13893.42
695.66	13724.90
695.80	13434.68
695.93	13888.74
696.07	13830.23
696.20	13619.58
696.33	13425.31
696.47	13666.39
696.60	13565.74
696.73	13572.77
696.87	13303.60
697.00	12858.90
697.14	12910.40
697.27	13088.28
697.40	12769.96
697.54	12940.82
697.67	12765.28
697.80	12833.16
697.94	13008.70
698.07	12613.15
698.21	12641.23
698.34	12505.48
698.47	12723.15
698.61	12755.92
698.74	12596.76
698.87	12650.60
699.01	12496.12
699.14	12507.82
699.27	12325.26
699.40	12287.81
699.54	12318.24
699.67	12245.68
699.80	12175.47
699.94	11962.48
700.07	11651.19
700.20	11648.85
700.34	11915.67
700.47	11765.87
700.60	11815.02
700.73	11913.33
700.87	11662.89
701.00	11667.57
701.13	11595.01
701.26	11810.34
701.40	11644.17
701.53	11489.69
701.66	11456.92
701.79	11124.57
701.93	11330.53
702.06	11260.32
702.19	11218.19
702.32	10920.94
702.46	11239.25
702.59	11035.63
702.72	10878.81
702.85	10780.51
702.99	10850.72
703.12	10785.19
703.25	10810.93
703.38	11026.26
703.51	10956.05
703.65	10738.38
703.78	10670.50
703.91	10745.40
704.04	10677.52
704.17	10682.20
704.31	10448.15
704.44	10232.82
704.57	10443.47
704.70	10118.14
704.83	10118.14
704.96	10115.80
705.10	10111.11
705.23	9973.02
>>>>>End Processed Spectral Data<<<<<
