SpectraSuite Data File
++++++++++++++++++++++++++++++++++++
Date: Fri Oct 18 13:58:00 GMT-05:00 2013
User: bianchi
Dark Spectrum Present: No
Reference Spectrum Present: No
Number of Sampled Component Spectra: 1
Spectrometers: USB2+H05261
Integration Time (usec): 50000 (USB2+H05261)
Spectra Averaged: 1 (USB2+H05261)
Boxcar Smoothing: 0 (USB2+H05261)
Correct for Electrical Dark: No (USB2+H05261)
Strobe/Lamp Enabled: No (USB2+H05261)
Correct for Detector Non-linearity: No (USB2+H05261)
Correct for Stray Light: No (USB2+H05261)
Number of Pixels in Processed Spectrum: 2048
>>>>>Begin Processed Spectral Data<<<<<
365.73	0.00
365.92	0.00
366.12	0.00
366.32	0.00
366.52	0.00
366.72	0.00
366.91	0.00
367.11	0.00
367.31	0.00
367.51	0.00
367.70	0.00
367.90	0.00
368.10	0.00
368.30	0.00
368.49	0.00
368.69	0.00
368.89	0.00
369.09	0.00
369.28	0.00
369.48	0.00
369.68	0.00
369.87	0.00
370.07	0.00
370.27	0.00
370.47	0.00
370.66	74.90
370.86	119.37
371.06	117.03
371.25	107.66
371.45	154.48
371.65	121.71
371.84	88.94
372.04	201.29
372.24	215.33
372.44	175.54
372.63	177.88
372.83	255.12
373.03	201.29
373.22	187.24
373.42	161.50
373.62	196.60
373.81	208.31
374.01	187.24
374.21	262.14
374.40	154.48
374.60	255.12
374.79	210.65
374.99	217.67
375.19	215.33
375.38	159.16
375.58	266.82
375.78	220.01
375.97	313.63
376.17	276.18
376.37	189.58
376.56	222.35
376.76	290.23
376.95	222.35
377.15	224.69
377.35	264.48
377.54	304.27
377.74	266.82
377.93	255.12
378.13	308.95
378.33	334.70
378.52	327.68
378.72	220.01
378.91	297.25
379.11	257.46
379.31	257.46
379.50	264.48
379.70	355.76
379.89	320.65
380.09	299.59
380.28	315.97
380.48	301.93
380.68	243.42
380.87	278.52
381.07	332.36
381.26	294.91
381.46	332.36
381.65	369.80
381.85	383.85
382.04	299.59
382.24	372.15
382.43	388.53
382.63	320.65
382.83	355.76
383.02	327.68
383.22	327.68
383.41	404.91
383.61	297.25
383.80	322.99
384.00	379.17
384.19	383.85
384.39	433.00
384.58	355.76
384.78	355.76
384.97	372.15
385.17	351.08
385.36	374.49
385.56	344.06
385.75	402.57
385.95	458.74
386.14	414.27
386.34	463.43
386.53	358.10
386.72	430.66
386.92	454.06
387.11	498.53
387.31	442.36
387.50	376.83
387.70	440.02
387.89	440.02
388.09	444.70
388.28	418.96
388.48	437.68
388.67	472.79
388.86	428.32
389.06	325.33
389.25	456.40
389.45	454.06
389.64	477.47
389.84	442.36
390.03	430.66
390.22	535.98
390.42	512.58
390.61	468.11
390.81	505.56
391.00	498.53
391.19	503.22
391.39	507.90
391.58	503.22
391.78	463.43
391.97	477.47
392.16	517.26
392.36	601.52
392.55	554.71
392.75	571.09
392.94	573.43
393.13	575.77
393.33	507.90
393.52	517.26
393.71	613.22
393.91	622.58
394.10	568.75
394.29	561.73
394.49	606.20
394.68	613.22
394.88	543.00
395.07	554.71
395.26	575.77
395.46	571.09
395.65	585.13
395.84	622.58
396.04	662.37
396.23	716.20
396.42	685.78
396.62	645.99
396.81	706.84
397.00	648.33
397.19	730.25
397.39	669.39
397.58	641.31
397.77	730.25
397.97	582.79
398.16	704.50
398.35	685.78
398.55	723.23
398.74	692.80
398.93	711.52
399.12	671.73
399.32	695.14
399.51	674.07
399.70	802.80
399.90	725.57
400.09	805.14
400.28	720.88
400.47	711.52
400.67	795.78
400.86	755.99
401.05	791.10
401.24	706.84
401.44	826.21
401.63	760.67
401.82	898.77
402.01	868.34
402.21	894.08
402.40	823.87
402.59	779.40
402.78	755.99
402.97	807.48
403.17	821.53
403.36	805.14
403.55	851.96
403.74	889.40
403.93	922.17
404.13	903.45
404.32	884.72
404.51	826.21
404.70	950.26
404.89	947.92
405.09	1006.43
405.28	997.07
405.47	957.28
405.66	894.08
405.85	894.08
406.05	961.96
406.24	1013.45
406.43	933.87
406.62	1055.58
406.81	1027.50
407.00	1149.20
407.20	1062.60
407.39	992.39
407.58	1055.58
407.77	1032.18
407.96	973.66
408.15	1032.18
408.34	1078.99
408.54	1102.39
408.73	1095.37
408.92	1139.84
409.11	1034.52
409.30	1160.91
409.49	1083.67
409.68	1093.03
409.87	1116.44
410.07	1191.33
410.26	1179.63
410.45	1221.76
410.64	1210.06
410.83	1219.42
411.02	1270.91
411.21	1373.89
411.40	1233.46
411.59	1329.42
411.78	1226.44
411.98	1203.04
412.17	1317.72
412.36	1210.06
412.55	1373.89
412.74	1394.96
412.93	1385.60
413.12	1418.36
413.31	1488.58
413.50	1345.81
413.69	1376.24
413.88	1448.79
414.07	1502.62
414.26	1479.22
414.45	1409.00
414.64	1504.96
414.83	1511.99
415.02	1521.35
415.22	1638.38
415.41	1544.75
415.60	1511.99
415.79	1633.69
415.98	1556.46
416.17	1607.95
416.36	1654.76
416.55	1563.48
416.74	1598.59
416.93	1521.35
417.12	1703.91
417.31	1757.74
417.50	1657.10
417.69	1720.29
417.88	1830.30
418.07	1816.26
418.26	1762.42
418.45	1760.08
418.64	1799.87
418.83	1771.79
419.02	1724.97
419.21	1879.45
419.39	1860.73
419.58	1825.62
419.77	1844.34
419.96	1991.80
420.15	1935.62
420.34	1928.60
420.53	1753.06
420.72	1874.77
420.91	1916.90
421.10	1998.82
421.29	1961.37
421.48	1977.75
421.67	1982.43
421.86	1968.39
422.05	1961.37
422.24	2024.56
422.43	1891.15
422.61	1935.62
422.80	1966.05
422.99	1977.75
423.18	1970.73
423.37	2038.61
423.56	2031.58
423.75	1973.07
423.94	1905.20
424.13	1816.26
424.32	1870.09
424.50	2071.37
424.69	2064.35
424.88	2125.21
425.07	2115.84
425.26	2066.69
425.45	2038.61
425.64	2019.88
425.83	2019.88
426.01	2097.12
426.20	2010.52
426.39	2153.29
426.58	2073.71
426.77	2045.63
426.96	2195.42
427.15	2122.87
427.33	2101.80
427.52	2099.46
427.71	2155.63
427.90	2157.97
428.09	2223.51
428.28	2179.04
428.46	2207.13
428.65	2176.70
428.84	2345.22
429.03	2211.81
429.22	2115.84
429.40	2160.31
429.59	2347.56
429.78	2193.08
429.97	2104.14
430.16	2193.08
430.34	2260.96
430.53	2319.47
430.72	2401.39
430.91	2366.28
431.10	2296.07
431.28	2370.96
431.47	2422.45
431.66	2424.80
431.85	2335.85
432.03	2392.03
432.22	2462.24
432.41	2387.35
432.60	2413.09
432.79	2370.96
432.97	2298.41
433.16	2537.14
433.35	2443.52
433.54	2443.52
433.72	2473.95
433.91	2518.42
434.10	2462.24
434.28	2420.11
434.47	2616.72
434.66	2574.59
434.85	2548.84
435.03	2621.40
435.22	2541.82
435.41	2719.70
435.59	2567.57
435.78	2612.04
435.97	2607.36
436.16	2789.92
436.34	2633.10
436.53	2724.38
436.72	2878.86
436.90	2712.68
437.09	2768.85
437.28	2740.77
437.46	2752.47
437.65	2743.11
437.84	2803.96
438.02	2729.06
438.21	2698.64
438.40	2724.38
438.58	2920.99
438.77	2836.73
438.96	2768.85
439.14	2818.00
439.33	2951.42
439.52	3002.91
439.70	2932.69
439.89	3035.67
440.08	3021.63
440.26	2984.18
440.45	3115.25
440.63	2942.05
440.82	3138.66
441.01	3201.85
441.19	3131.64
441.38	3129.30
441.57	3164.40
441.75	3192.49
441.94	3321.22
442.12	3201.85
442.31	3433.57
442.50	3417.18
442.68	3342.28
442.87	3358.67
443.05	3323.56
443.24	3377.39
443.43	3421.86
443.61	3538.89
443.80	3471.01
443.98	3346.97
444.17	3159.72
444.35	3363.35
444.54	3524.85
444.73	3433.57
444.91	3246.32
445.10	3428.88
445.28	3478.04
445.47	3403.14
445.65	3454.63
445.84	3599.74
446.02	3461.65
446.21	3487.40
446.39	3574.00
446.58	3524.85
446.77	3417.18
446.95	3485.06
447.14	3616.13
447.32	3398.46
447.51	3616.13
447.69	3412.50
447.88	3482.72
448.06	3606.77
448.25	3585.70
448.43	3559.95
448.62	3569.32
448.80	3419.52
448.99	3611.45
449.17	3597.40
449.36	3576.34
449.54	3737.84
449.73	3801.03
449.91	3784.65
450.10	3730.81
450.28	3967.21
450.46	3847.84
450.65	3798.69
450.83	3672.30
451.02	3691.02
451.20	3770.60
451.39	3918.06
451.57	3758.90
451.76	3833.80
451.94	3779.97
452.13	3887.63
452.31	3950.82
452.49	3892.31
452.68	3913.38
452.86	3794.01
453.05	3908.69
453.23	4007.00
453.42	3920.40
453.60	3915.72
453.78	3901.67
453.97	3854.86
454.15	3955.51
454.34	4023.38
454.52	4007.00
454.70	4049.13
454.89	3964.87
455.07	3990.61
455.26	4095.94
455.44	4074.87
455.62	4119.34
455.81	4002.32
455.99	4142.75
456.17	4046.79
456.36	4142.75
456.54	4212.96
456.73	4205.94
456.91	4245.73
457.09	4264.46
457.28	4395.53
457.46	4243.39
457.64	4449.36
457.83	4381.48
458.01	4320.63
458.19	4435.32
458.38	4402.55
458.56	4465.74
458.74	4421.27
458.93	4507.87
459.11	4517.23
459.29	4444.68
459.48	4390.84
459.66	4348.72
459.84	4456.38
460.03	4622.56
460.21	4472.76
460.39	4554.68
460.57	4545.32
460.76	4664.69
460.94	4575.75
461.12	4594.47
461.31	4517.23
461.49	4545.32
461.67	4660.01
461.85	4784.06
462.04	4690.43
462.22	5015.77
462.40	4603.83
462.59	4641.28
462.77	4702.14
462.95	4727.88
463.13	4739.58
463.32	4840.23
463.50	4720.86
463.68	4798.10
463.86	4952.57
464.05	4765.33
464.23	4788.74
464.41	4968.96
464.59	4983.00
464.78	5111.73
464.96	4987.68
465.14	4873.00
465.32	5015.77
465.50	5076.62
465.69	5198.33
465.87	5032.15
466.05	4887.04
466.23	5069.60
466.41	4992.36
466.60	5146.84
466.78	5020.45
466.96	5088.32
467.14	4903.42
467.32	5123.43
467.51	5067.26
467.69	5121.09
467.87	5107.05
468.05	5266.21
468.23	5081.30
468.41	5130.45
468.60	5085.98
468.78	5303.65
468.96	5359.83
469.14	5226.42
469.32	5301.31
469.50	5090.67
469.69	5420.68
469.87	5432.38
470.05	5589.20
470.23	5502.60
470.41	5572.82
470.59	5596.22
470.77	5474.51
470.95	5413.66
471.14	5493.24
471.32	5399.62
471.50	5720.27
471.68	5568.13
471.86	5502.60
472.04	5682.82
472.22	5715.59
472.40	5650.05
472.58	5633.67
472.77	5643.03
472.95	5846.66
473.13	6015.18
473.31	5701.54
473.49	5802.19
473.67	5825.59
473.85	5975.39
474.03	5956.66
474.21	6026.88
474.39	6026.88
474.57	6153.27
474.75	6099.44
474.93	6221.14
475.12	6164.97
475.30	6277.32
475.48	6277.32
475.66	6230.51
475.84	6279.66
476.02	6384.98
476.20	6443.49
476.38	6530.09
476.56	6551.16
476.74	6691.59
476.92	6464.56
477.10	6637.76
477.28	6799.26
477.46	6640.10
477.64	6792.23
477.82	6808.62
478.00	7045.01
478.18	6878.83
478.36	7002.88
478.54	6927.99
478.72	7133.95
478.90	7194.81
479.08	7122.25
479.26	7190.13
479.44	7229.91
479.62	7225.23
479.80	7478.01
479.98	7667.60
480.16	7485.03
480.34	7726.11
480.52	7543.55
480.70	7606.74
480.88	7592.70
481.06	7777.60
481.24	7552.91
481.41	7829.09
481.59	8039.74
481.77	7957.82
481.95	8210.60
482.13	8105.28
482.31	7920.37
482.49	8124.00
482.67	8215.28
482.85	8439.97
483.03	8446.99
483.21	8641.26
483.39	8524.23
483.57	8428.27
483.74	8655.30
483.92	8877.65
484.10	8779.35
484.28	8807.44
484.46	9029.79
484.64	9043.83
484.82	9188.94
485.00	9029.79
485.18	9327.03
485.35	9303.63
485.53	9441.72
485.71	9624.28
485.89	9612.58
486.07	9577.47
486.25	9418.32
486.43	9654.71
486.61	9893.44
486.78	10031.54
486.96	10176.65
487.14	10047.92
487.32	10181.33
487.50	10246.87
487.68	10572.20
487.85	10303.04
488.03	10375.59
488.21	10771.15
488.39	10832.00
488.57	10832.00
488.75	10541.77
488.92	10789.87
489.10	10860.09
489.28	10991.16
489.46	10876.47
489.64	11035.63
489.81	11157.33
489.99	11351.60
490.17	11393.73
490.35	11660.55
490.53	11700.34
490.70	11620.76
490.88	11681.61
491.06	11770.55
491.24	11798.64
491.41	11859.49
491.59	11948.43
491.77	12006.95
491.95	12475.06
492.13	12278.45
492.30	12479.74
492.48	12353.35
492.66	12315.90
492.84	12713.79
493.01	12594.42
493.19	12601.44
493.37	12842.52
493.54	12851.88
493.72	12786.35
493.90	12776.98
494.08	13107.00
494.25	13011.04
494.43	13287.22
494.61	13174.88
494.79	13497.87
494.96	13362.12
495.14	13434.68
495.32	13579.79
495.49	13399.57
495.67	13661.71
495.85	13799.80
496.02	14300.67
496.20	13848.95
496.38	13991.72
496.55	14031.51
496.73	14134.50
496.91	14181.31
497.09	14356.85
497.26	14497.28
497.44	14324.08
497.62	14328.76
497.79	14555.79
497.97	14593.24
498.14	14972.41
498.32	14686.86
498.50	14885.81
498.67	15138.58
498.85	14808.57
499.03	14963.04
499.20	14967.73
499.38	15267.31
499.56	15215.82
499.73	15349.23
499.91	15389.02
500.08	15414.77
500.26	15737.76
500.44	15398.38
500.61	15531.80
500.79	15669.89
500.97	15908.62
501.14	15789.25
501.32	15878.19
501.49	15906.28
501.67	15955.43
501.84	15744.78
502.02	16025.65
502.20	16114.59
502.37	16292.47
502.55	16470.35
502.72	16491.41
502.90	16540.57
503.07	16318.22
503.25	16416.52
503.43	16444.60
503.60	16746.53
503.78	16395.45
503.95	16594.40
504.13	16613.12
504.30	16748.87
504.48	16620.14
504.65	16753.55
504.83	16746.53
505.01	16957.18
505.18	16809.73
505.36	17319.96
505.53	17076.55
505.71	17025.06
505.88	17132.72
506.06	16980.59
506.23	17319.96
506.41	17359.75
506.58	17500.19
506.76	17598.49
506.93	17678.07
507.11	17500.19
507.28	17406.56
507.46	17490.82
507.63	17369.12
507.81	17865.31
507.98	17673.39
508.16	17767.01
508.33	18040.85
508.50	17825.52
508.68	18017.44
508.85	18045.53
509.03	18258.52
509.20	18129.79
509.38	18611.94
509.55	18361.50
509.73	18661.09
509.90	18494.91
510.08	18192.98
510.25	18513.64
510.42	18607.26
510.60	18867.06
510.77	18747.69
510.95	18703.22
511.12	18644.71
511.30	18799.18
511.47	19033.24
511.64	19051.96
511.82	18918.55
511.99	18890.46
512.17	19438.15
512.34	19257.93
512.51	19283.67
512.69	19126.86
512.86	19295.38
513.04	19545.81
513.21	19616.03
513.38	19538.79
513.56	19381.98
513.73	19573.90
513.90	19510.71
514.08	19742.42
514.25	19754.12
514.43	19669.86
514.60	19852.42
514.77	19892.21
514.95	20049.03
515.12	20004.56
515.29	19845.40
515.47	20109.88
515.64	20081.80
515.81	20255.00
515.99	20343.94
516.16	20505.43
516.33	20257.34
516.51	20318.19
516.68	20180.10
516.85	20430.54
517.03	20512.46
517.20	20664.59
517.37	20641.18
517.54	20322.87
517.72	20673.95
517.89	20987.58
518.06	20416.49
518.24	20833.11
518.41	20842.47
518.58	20823.75
518.75	20961.84
518.93	21130.36
519.10	20917.37
519.27	21193.55
519.45	21319.94
519.62	21633.57
519.79	21158.44
519.96	21104.61
520.14	21537.61
520.31	21472.07
520.48	21163.12
520.65	21259.09
520.83	21467.39
521.00	21514.20
521.17	21310.58
521.34	21443.99
521.52	21685.06
521.69	21759.96
521.86	21694.43
522.03	21886.35
522.20	22190.62
522.38	21963.59
522.55	22057.21
522.72	22157.85
522.89	21771.66
523.07	22211.68
523.24	22075.93
523.41	22148.49
523.58	21979.97
523.75	22394.25
523.92	22305.31
524.10	22263.18
524.27	22455.10
524.44	22520.63
524.61	22742.99
524.78	22649.36
524.96	22429.35
525.13	23073.00
525.30	22328.71
525.47	22455.10
525.64	22569.79
525.81	22663.41
525.98	22422.33
526.16	22651.70
526.33	22911.50
526.50	22899.80
526.67	22899.80
526.84	22759.37
527.01	22824.90
527.18	23255.56
527.36	23096.41
527.53	23278.97
527.70	23274.29
527.87	23407.70
528.04	23300.03
528.21	23239.18
528.38	23271.95
528.55	23587.92
528.72	23386.63
528.89	23564.51
529.07	23466.21
529.24	23447.49
529.41	23447.49
529.58	23419.40
529.75	23686.22
529.92	23803.25
530.09	23662.82
530.26	23789.20
530.43	23871.12
530.60	23662.82
530.77	23442.81
530.94	23929.64
531.11	23791.55
531.28	23997.51
531.46	23772.82
531.63	23840.70
531.80	24367.32
531.97	24091.13
532.14	24254.97
532.31	24109.86
532.48	24215.18
532.65	24374.34
532.82	24283.06
532.99	23955.38
533.16	24336.89
533.33	24360.30
533.50	24706.70
533.67	24694.99
533.84	24533.50
534.01	24411.79
534.18	24507.75
534.35	24584.99
534.52	24922.02
534.69	24496.05
534.86	24814.36
535.03	24559.24
535.20	24418.81
535.37	25153.74
535.54	24907.98
535.71	25010.96
535.88	24837.76
536.05	24865.85
536.22	24755.85
536.38	25008.62
536.55	25074.16
536.72	25198.21
536.89	25118.63
537.06	25179.48
537.23	25106.93
537.40	25116.29
537.57	25329.28
537.74	25301.19
537.91	25610.14
538.08	25586.74
538.25	25188.85
538.42	25340.98
538.59	25661.63
538.75	25296.51
538.92	25537.59
539.09	25556.31
539.26	25429.92
539.43	25450.99
539.60	25834.83
539.77	25736.53
539.94	25495.46
540.11	25776.32
540.28	25596.10
540.44	25961.22
540.61	26068.89
540.78	25673.34
540.95	25891.01
541.12	25266.08
541.29	25736.53
541.46	26080.59
541.62	25930.80
541.79	25827.81
541.96	25310.55
542.13	25935.48
542.30	26017.40
542.47	26298.26
542.63	26239.75
542.80	26302.94
542.97	26614.23
543.14	26771.05
543.31	26328.69
543.48	26682.11
543.64	26724.24
543.81	26731.26
543.98	26768.71
544.15	26808.50
544.32	26410.60
544.48	27037.87
544.65	26363.79
544.82	26525.29
544.99	26703.17
545.16	26951.27
545.32	26852.97
545.49	26733.60
545.66	26948.93
545.83	26876.37
546.00	27152.55
546.16	27110.43
546.33	27061.27
546.50	26656.36
546.67	27080.00
546.83	26639.98
547.00	27166.60
547.17	27108.08
547.34	26932.54
547.50	27161.92
547.67	27400.65
547.84	27197.02
548.00	26841.26
548.17	27133.83
548.34	27166.60
548.51	27084.68
548.67	27276.60
548.84	27641.73
549.01	27447.46
549.18	27356.18
549.34	27239.15
549.51	27520.02
549.68	27253.20
549.84	27365.54
550.01	27786.84
550.18	27360.86
550.34	27501.29
550.51	27957.70
550.68	27721.30
550.84	27527.04
551.01	27697.90
551.18	27693.22
551.34	27459.16
551.51	27924.93
551.68	27941.32
551.84	27615.98
552.01	27819.61
552.18	27779.82
552.34	27812.59
552.51	28053.66
552.68	27461.51
552.84	28102.81
553.01	28287.71
553.18	27566.83
553.34	27971.74
553.51	28070.04
553.67	28301.76
553.84	28334.53
554.01	27955.36
554.17	28343.89
554.34	28290.06
554.51	28247.93
554.67	28477.30
554.84	28231.54
555.00	28081.75
555.17	28318.14
555.33	28236.22
555.50	28116.86
555.67	27871.10
555.83	28158.99
556.00	28088.77
556.16	28596.67
556.33	28430.49
556.50	28243.24
556.66	28156.64
556.83	28407.08
556.99	28517.09
557.16	28720.71
557.32	28706.67
557.49	28669.22
557.65	28210.48
557.82	28734.76
557.98	28912.64
558.15	28519.43
558.32	28847.10
558.48	28489.00
558.65	29013.28
558.81	29181.80
558.98	28924.34
559.14	28835.40
559.31	28720.71
559.47	28886.89
559.64	28519.43
559.80	28360.27
559.97	28797.95
560.13	28739.44
560.30	28877.53
560.46	28872.85
560.63	28936.04
560.79	29050.73
560.96	29127.97
561.12	29010.94
561.29	29055.41
561.45	29034.35
561.61	29170.10
561.78	29069.45
561.94	28966.47
562.11	29572.67
562.27	29130.31
562.44	29146.69
562.60	29057.75
562.77	29118.60
562.93	29242.65
563.10	29277.76
563.26	29170.10
563.42	29570.33
563.59	29170.10
563.75	29048.39
563.92	29284.78
564.08	28697.31
564.24	29364.36
564.41	29453.30
564.57	29156.05
564.74	29174.78
564.90	29483.73
565.07	29062.43
565.23	29355.00
565.39	29429.90
565.56	29455.64
565.72	29235.63
565.88	29411.17
566.05	29205.20
566.21	29343.30
566.38	29497.77
566.54	29338.62
566.70	29736.51
566.87	29558.63
567.03	29570.33
567.19	29752.89
567.36	29654.59
567.52	29366.70
567.68	29551.60
567.85	29223.93
568.01	29500.11
568.17	29329.25
568.34	29848.85
568.50	29890.98
568.66	29497.77
568.83	29317.55
568.99	29472.03
569.15	29490.75
569.32	29677.99
569.48	29724.80
569.64	29546.92
569.81	29287.12
569.97	29502.45
570.13	29972.90
570.30	29296.49
570.46	30085.25
570.62	29930.77
570.78	29472.03
570.95	29490.75
571.11	29479.05
571.27	29788.00
571.43	29434.58
571.60	29603.10
571.76	29497.77
571.92	30052.48
572.09	29816.08
572.25	30096.95
572.41	29572.67
572.57	29582.03
572.74	29965.88
572.90	29312.87
573.06	29579.69
573.22	29408.83
573.38	29839.49
573.55	29935.45
573.71	29858.21
573.87	29954.18
574.03	30005.67
574.20	29813.74
574.36	29846.51
574.52	29708.42
574.68	29802.04
574.84	30038.44
575.01	30122.69
575.17	29949.50
575.33	30162.48
575.49	29785.66
575.65	30043.12
575.82	30199.93
575.98	30150.78
576.14	29792.68
576.30	30265.47
576.46	30000.99
576.62	29680.33
576.79	29778.64
576.95	30038.44
577.11	29846.51
577.27	29818.42
577.43	30265.47
577.59	30017.37
577.75	30148.44
577.92	29811.40
578.08	29619.48
578.24	29809.06
578.40	29883.96
578.56	30380.15
578.72	30054.82
578.88	29996.31
579.04	30122.69
579.21	29832.47
579.37	29949.50
579.53	30396.54
579.69	29682.67
579.85	30050.14
580.01	29844.17
580.17	29839.49
580.33	29825.45
580.49	29977.58
580.65	30033.75
580.82	29743.53
580.98	29869.92
581.14	29771.61
581.30	30342.70
581.46	29876.94
581.62	29933.11
581.78	29848.85
581.94	29921.41
582.10	29692.04
582.26	29979.92
582.42	29949.50
582.58	30010.35
582.74	30415.26
582.90	30415.26
583.06	30331.00
583.22	30181.21
583.38	30160.14
583.54	30059.50
583.70	29876.94
583.86	30134.40
584.02	29785.66
584.18	30164.82
584.34	30291.21
584.50	30417.60
584.66	30312.28
584.82	30078.22
584.98	29862.90
585.14	30590.80
585.30	30286.53
585.46	30127.38
585.62	29249.67
585.78	30291.21
585.94	29982.26
586.10	30094.61
586.26	30181.21
586.42	30359.09
586.58	30335.68
586.74	30085.25
586.90	30043.12
587.06	30176.53
587.22	30188.23
587.38	30309.94
587.54	29970.56
587.70	30349.73
587.86	30525.27
588.02	30553.35
588.18	30426.96
588.34	30085.25
588.49	30572.08
588.65	30101.63
588.81	29898.00
588.97	30029.07
589.13	30340.36
589.29	30307.60
589.45	30408.24
589.61	30838.90
589.77	30384.83
589.93	30441.01
590.08	30202.27
590.24	30529.95
590.40	30377.81
590.56	30328.66
590.72	30066.52
590.88	30312.28
591.04	30595.48
591.20	30536.97
591.35	30796.77
591.51	30644.63
591.67	30780.39
591.83	30937.20
591.99	30590.80
592.15	30787.41
592.31	30740.60
592.46	30394.20
592.62	30672.72
592.78	30391.86
592.94	30396.54
593.10	30375.47
593.26	30778.04
593.41	30859.96
593.57	30494.84
593.73	30632.93
593.89	30838.90
594.05	30445.69
594.20	30436.33
594.36	30639.95
594.52	30527.61
594.68	30618.89
594.84	30286.53
594.99	30281.85
595.15	30735.92
595.31	30834.22
595.47	30565.06
595.62	30654.00
595.78	30796.77
595.94	30403.56
596.10	30813.15
596.25	30230.36
596.41	30061.84
596.57	30239.72
596.73	30536.97
596.88	30513.56
597.04	31087.00
597.20	30485.48
597.36	30778.04
597.51	30780.39
597.67	30820.17
597.83	30225.68
597.99	30628.25
598.14	30539.31
598.30	30387.18
598.46	30857.62
598.61	31101.04
598.77	30799.11
598.93	30920.82
599.09	30433.99
599.24	30937.20
599.40	30967.63
599.56	30986.35
599.71	30682.08
599.87	31103.38
600.03	30810.81
600.18	30698.47
600.34	30651.66
600.50	30649.32
600.65	30796.77
600.81	30813.15
600.97	31122.10
601.12	31077.63
601.28	30796.77
601.44	30979.33
601.59	30738.26
601.75	30529.95
601.91	30696.13
602.06	30244.40
602.22	30944.22
602.37	30780.39
602.53	30684.42
602.69	30780.39
602.84	30876.35
603.00	31009.76
603.16	30829.54
603.31	30735.92
603.47	30429.30
603.62	31049.55
603.78	30682.08
603.94	30806.13
604.09	30775.70
604.25	30838.90
604.40	30607.19
604.56	30831.88
604.71	31075.29
604.87	30918.48
605.03	30651.66
605.18	30558.03
605.34	30525.27
605.49	30705.49
605.65	30810.81
605.80	30515.90
605.96	30876.35
606.12	30831.88
606.27	30813.15
606.43	30349.73
606.58	30848.26
606.74	30733.57
606.89	30703.15
607.05	30934.86
607.20	30745.28
607.36	30377.81
607.51	31110.40
607.67	30621.23
607.82	30590.80
607.98	30370.79
608.13	29883.96
608.29	30387.18
608.44	30380.15
608.60	30560.37
608.75	30590.80
608.91	30768.68
609.06	30326.32
609.22	30572.08
609.37	30239.72
609.53	30574.42
609.68	30300.58
609.84	30281.85
609.99	30408.24
610.15	30087.59
610.30	30356.75
610.46	30555.69
610.61	30625.91
610.76	30494.84
610.92	30450.37
611.07	29855.87
611.23	30452.71
611.38	29930.77
611.54	30106.31
611.69	29949.50
611.84	30239.72
612.00	30511.22
612.15	29979.92
612.31	30499.52
612.46	30213.98
612.62	30541.65
612.77	30391.86
612.92	30204.61
613.08	30476.12
613.23	30223.34
613.39	30113.33
613.54	30267.81
613.69	30256.11
613.85	30150.78
614.00	30174.19
614.15	30045.46
614.31	30370.79
614.46	30078.22
614.62	30026.73
614.77	30249.08
614.92	30129.72
615.08	30064.18
615.23	30356.75
615.38	30387.18
615.54	30003.33
615.69	30038.44
615.84	29582.03
616.00	30260.79
616.15	29837.15
616.30	30052.48
616.46	30071.20
616.61	30106.31
616.76	30331.00
616.92	29996.31
617.07	29862.90
617.22	29830.13
617.37	29301.17
617.53	30036.09
617.68	29961.20
617.83	30012.69
617.99	29827.79
618.14	29617.14
618.29	30085.25
618.45	29984.60
618.60	30040.78
618.75	29523.52
618.90	29553.94
619.06	29839.49
619.21	29394.79
619.36	29743.53
619.51	29355.00
619.67	29142.01
619.82	29404.15
619.97	29706.08
620.12	29483.73
620.28	29483.73
620.43	29577.35
620.58	30033.75
620.73	29759.91
620.89	29514.16
621.04	29879.28
621.19	29518.84
621.34	29420.53
621.49	29560.97
621.65	29277.76
621.80	29600.76
621.95	29411.17
622.10	29677.99
622.25	29296.49
622.41	29385.43
622.56	29603.10
622.71	29666.29
622.86	29280.10
623.01	29605.44
623.16	29273.08
623.32	28968.81
623.47	29406.49
623.62	28945.41
623.77	29151.37
623.92	29102.22
624.07	29167.76
624.23	29310.53
624.38	29315.21
624.53	28978.17
624.68	29085.84
624.83	29165.42
624.98	29418.19
625.13	28769.86
625.29	29001.58
625.44	28884.55
625.59	29092.86
625.74	29088.18
625.89	28788.59
626.04	28739.44
626.19	28861.15
626.34	28985.19
626.49	28730.08
626.65	28907.96
626.80	29160.73
626.95	29134.99
627.10	29130.31
627.25	28961.79
627.40	28706.67
627.55	28636.45
627.70	28732.42
627.85	28500.70
628.00	28701.99
628.15	28629.43
628.30	28828.38
628.45	28861.15
628.60	28411.76
628.76	28917.32
628.91	28774.55
629.06	28744.12
629.21	28692.63
629.36	28584.96
629.51	28870.51
629.66	28264.31
629.81	28004.51
629.96	28456.23
630.11	28245.58
630.26	28489.00
630.41	28479.64
630.56	28479.64
630.71	28229.20
630.86	28678.58
631.01	28463.25
631.16	28027.92
631.31	28283.03
631.46	28187.07
631.61	28680.92
631.76	28711.35
631.91	28266.65
632.06	28458.57
632.21	27967.06
632.36	28666.88
632.51	27838.33
632.66	27824.29
632.81	27800.88
632.96	27960.04
633.10	28250.27
633.25	28353.25
633.40	28362.61
633.55	28149.62
633.70	27957.70
633.85	28290.06
634.00	27800.88
634.15	27679.18
634.30	27927.27
634.45	27744.71
634.60	27901.53
634.75	27721.30
634.90	27910.89
635.05	28130.90
635.19	27831.31
635.34	28397.72
635.49	27971.74
635.64	27922.59
635.79	27950.68
635.94	27964.72
636.09	28151.96
636.24	27646.41
636.39	27704.92
636.53	27754.07
636.68	27421.72
636.83	27667.47
636.98	27878.12
637.13	28044.30
637.28	27840.67
637.43	27840.67
637.57	27817.27
637.72	27728.33
637.87	27880.46
638.02	27744.71
638.17	27571.51
638.32	27344.48
638.46	27360.86
638.61	27658.11
638.76	27080.00
638.91	26871.69
639.06	27330.44
639.20	27428.74
639.35	27199.37
639.50	27674.49
639.65	27449.80
639.80	27517.68
639.94	27232.13
640.09	27061.27
640.24	27260.22
640.39	27580.87
640.54	27246.18
640.68	27229.79
640.83	27297.67
640.98	27138.51
641.13	26831.90
641.27	27522.36
641.42	27065.96
641.57	27194.68
641.72	27033.19
641.86	27211.07
642.01	27065.96
642.16	26967.65
642.31	26883.39
642.45	27178.30
642.60	27084.68
642.75	26796.79
642.90	27049.57
643.04	26455.08
643.19	27023.83
643.34	26824.88
643.48	26904.46
643.63	26548.70
643.78	26862.33
643.93	27138.51
644.07	26628.27
644.22	26829.56
644.37	26885.73
644.51	26820.20
644.66	26780.41
644.81	26930.20
644.95	26892.76
645.10	26829.56
645.25	26628.27
645.39	26855.31
645.54	26714.87
645.69	26569.76
645.83	26897.44
645.98	26574.44
646.13	27000.42
646.27	26745.30
646.42	26576.78
646.57	26904.46
646.71	26794.45
646.86	26511.25
647.00	26642.32
647.15	26380.18
647.30	26232.72
647.44	26064.21
647.59	26181.23
647.74	26487.84
647.88	26459.76
648.03	26202.30
648.17	26558.06
648.32	26324.01
648.47	27005.10
648.61	26506.57
648.76	26597.85
648.90	26459.76
649.05	26579.12
649.20	26150.81
649.34	25860.58
649.49	26012.71
649.63	25933.14
649.78	26022.08
649.92	25956.54
650.07	26572.10
650.21	26059.52
650.36	25968.24
650.51	26410.60
650.65	26422.31
650.80	26040.80
650.94	25872.28
651.09	26031.44
651.23	26026.76
651.38	26015.05
651.52	25858.24
651.67	25891.01
651.81	25979.95
651.96	26022.08
652.10	25926.11
652.25	26073.57
652.39	25809.09
652.54	26244.43
652.68	26340.39
652.83	26080.59
652.97	26115.70
653.12	25755.26
653.26	25804.41
653.41	25930.80
653.55	25811.43
653.70	25820.79
653.84	25743.55
653.99	25921.43
654.13	25837.17
654.27	25792.70
654.42	25436.94
654.56	25530.56
654.71	25766.96
654.85	25804.41
655.00	25916.75
655.14	25591.42
655.29	25530.56
655.43	25642.91
655.57	25469.71
655.72	25717.81
655.86	25610.14
656.01	25692.06
656.15	25539.93
656.30	25387.79
656.44	25240.34
656.58	25172.46
656.73	25106.93
656.87	25331.62
657.01	25563.33
657.16	25521.20
657.30	25502.48
657.45	25317.57
657.59	25177.14
657.73	25003.94
657.88	25284.81
658.02	25055.43
658.16	25303.53
658.31	25223.95
658.45	25146.72
658.60	25163.10
658.74	25125.65
658.88	24968.84
659.03	24638.82
659.17	24968.84
659.31	24929.05
659.46	25081.18
659.60	25181.82
659.74	24996.92
659.89	24922.02
660.03	24844.79
660.17	24947.77
660.32	24856.49
660.46	24776.91
660.60	24538.18
660.74	24659.88
660.89	24568.60
661.03	24409.45
661.17	24484.34
661.32	24606.05
661.46	24580.31
661.60	24645.84
661.74	24451.58
661.89	24355.61
662.03	24718.40
662.17	24397.74
662.31	24540.52
662.46	24662.22
662.60	24205.82
662.74	24400.08
662.88	24432.85
663.03	23995.17
663.17	24149.65
663.31	23758.78
663.45	24334.55
663.60	24173.05
663.74	23967.09
663.88	23962.40
664.02	24025.60
664.17	24210.50
664.31	23992.83
664.45	23854.74
664.59	24009.22
664.73	24100.50
664.88	23964.75
665.02	23648.77
665.16	23716.65
665.30	23667.50
665.44	23665.16
665.59	23555.15
665.73	23288.33
665.87	23367.91
666.01	23597.28
666.15	23571.54
666.29	23611.32
666.44	23604.30
666.58	23440.47
666.72	23269.61
666.86	23407.70
667.00	23676.86
667.14	23377.27
667.28	23250.88
667.43	23206.41
667.57	23360.89
667.71	23531.75
667.85	23094.07
667.99	23080.02
668.13	23075.34
668.27	23138.54
668.41	23023.85
668.56	23002.78
668.70	22782.77
668.84	22913.84
668.98	23138.54
669.12	23044.91
669.26	23030.87
669.40	22745.33
669.54	22768.73
669.68	22911.50
669.82	22644.68
669.96	22663.41
670.10	22820.22
670.25	22726.60
670.39	22649.36
670.53	22553.40
670.67	22501.91
670.81	22457.44
670.95	22066.57
671.09	22621.28
671.23	22438.72
671.37	22904.48
671.51	22618.94
671.65	22265.52
671.79	22085.30
671.93	22389.56
672.07	22356.80
672.21	21851.24
672.35	21839.54
672.49	22127.42
672.63	21778.68
672.77	21827.84
672.91	21778.68
673.05	21919.12
673.19	22010.40
673.33	21680.38
673.47	21736.56
673.61	21546.97
673.75	21975.29
673.89	21589.10
674.03	21481.44
674.17	21245.04
674.31	21420.58
674.45	21378.45
674.59	21458.03
674.73	21434.63
674.87	21355.05
675.01	21172.49
675.15	21069.50
675.29	20982.90
675.43	21146.74
675.56	21221.64
675.70	21355.05
675.84	21097.59
675.98	20549.90
676.12	21102.27
676.26	21088.23
676.40	21039.08
676.54	20854.17
676.68	20650.55
676.82	20538.20
676.96	20627.14
677.10	20643.52
677.23	20563.95
677.37	20191.80
677.51	20493.73
677.65	20526.50
677.79	20032.65
677.93	20044.35
678.07	20203.50
678.21	20262.02
678.34	19920.30
678.48	20133.29
678.62	19962.43
678.76	19866.47
678.90	19651.14
679.04	20004.56
679.18	19702.63
679.31	19531.77
679.45	19431.13
679.59	19143.24
679.73	19386.66
679.87	19286.01
680.00	19487.30
680.14	19583.26
680.28	19159.63
680.42	19314.10
680.56	19211.12
680.70	18899.83
680.83	19218.14
680.97	19037.92
681.11	19339.85
681.25	18883.44
681.39	18923.23
681.52	18794.50
681.66	18565.13
681.80	18803.86
681.94	18532.36
682.07	18672.79
682.21	18211.71
682.35	18260.86
682.49	18216.39
682.62	18019.78
682.76	18321.71
682.90	18185.96
683.04	18125.11
683.17	17912.12
683.31	18174.26
683.45	18099.36
683.59	17895.74
683.72	18057.23
683.86	17972.97
684.00	17996.38
684.13	17989.36
684.27	17877.01
684.41	17511.89
684.55	17163.15
684.68	17298.90
684.82	17167.83
684.96	17322.30
685.09	17448.69
685.23	17441.67
685.37	17397.20
685.50	17392.52
685.64	17195.92
685.78	17284.86
685.91	17181.87
686.05	17238.05
686.19	16954.84
686.32	17069.53
686.46	16669.30
686.60	16542.91
686.73	16877.60
686.87	16678.66
687.01	16500.78
687.14	16573.33
687.28	16269.06
687.42	16423.54
687.55	16250.34
687.69	16425.88
687.82	16320.56
687.96	16231.62
688.10	16297.15
688.23	16023.31
688.37	16255.02
688.50	16390.77
688.64	16194.17
688.78	16137.99
688.91	15992.88
689.05	15700.31
689.18	15651.16
689.32	15302.42
689.46	15442.85
689.59	15564.56
689.73	15506.05
689.86	15592.65
690.00	15637.12
690.13	15513.07
690.27	15248.59
690.41	15269.66
690.54	15379.66
690.68	15367.96
690.81	15136.24
690.95	15379.66
691.08	15098.80
691.22	14810.91
691.35	14778.14
691.49	15026.24
691.62	14876.44
691.76	15002.83
691.89	14478.55
692.03	14476.21
692.16	14501.96
692.30	14314.72
692.43	14527.71
692.57	14335.78
692.70	14279.61
692.84	14349.82
692.97	14204.71
693.11	14359.19
693.24	14188.33
693.38	14094.71
693.51	13895.76
693.65	14026.83
693.78	13996.40
693.92	14061.94
694.05	13830.23
694.19	13701.50
694.32	13652.34
694.45	13502.55
694.59	13596.17
694.72	13619.58
694.86	13289.56
694.99	13132.75
695.13	13467.44
695.26	13378.50
695.39	13165.51
695.53	13355.10
695.66	13530.64
695.80	13467.44
695.93	13184.24
696.07	13181.90
696.20	13214.66
696.33	13029.76
696.47	12903.37
696.60	12854.22
696.73	13020.40
696.87	12830.82
697.00	12744.22
697.14	12751.24
697.27	12381.43
697.40	12407.18
697.54	12564.00
697.67	12229.30
697.80	12341.64
697.94	12353.35
698.07	12147.38
698.21	12189.51
698.34	12376.75
698.47	12400.16
698.61	12250.36
698.74	12238.66
698.87	12248.02
699.01	12217.60
699.14	11653.53
699.27	11824.39
699.40	11964.82
699.54	11843.11
699.67	11744.81
699.80	11779.92
699.94	11557.57
700.07	11417.13
700.20	11365.64
700.34	11393.73
700.47	11585.65
700.60	11613.74
700.73	11304.79
700.87	11496.71
701.00	11222.87
701.13	11173.72
701.26	11351.60
701.40	11094.14
701.53	11157.33
701.66	11227.55
701.79	11054.35
701.93	11066.05
702.06	10796.89
702.19	10923.28
702.32	10780.51
702.46	10874.13
702.59	10562.84
702.72	10628.37
702.85	10523.05
702.99	10494.96
703.12	10490.28
703.25	10406.02
703.38	10413.04
703.51	10335.81
703.65	10331.12
703.78	10363.89
703.91	10221.12
704.04	10216.44
704.17	10132.18
704.31	10012.81
704.44	10083.03
704.57	9989.41
704.70	9839.61
704.83	9914.51
704.96	9874.72
705.10	9586.83
705.23	9706.20
>>>>>End Processed Spectral Data<<<<<
