SpectraSuite Data File
++++++++++++++++++++++++++++++++++++
Date: Fri Oct 18 13:58:09 GMT-05:00 2013
User: bianchi
Dark Spectrum Present: No
Reference Spectrum Present: No
Number of Sampled Component Spectra: 1
Spectrometers: USB2+H05261
Integration Time (usec): 50000 (USB2+H05261)
Spectra Averaged: 1 (USB2+H05261)
Boxcar Smoothing: 0 (USB2+H05261)
Correct for Electrical Dark: No (USB2+H05261)
Strobe/Lamp Enabled: No (USB2+H05261)
Correct for Detector Non-linearity: No (USB2+H05261)
Correct for Stray Light: No (USB2+H05261)
Number of Pixels in Processed Spectrum: 2048
>>>>>Begin Processed Spectral Data<<<<<
365.73	0.00
365.92	0.00
366.12	0.00
366.32	0.00
366.52	0.00
366.72	0.00
366.91	0.00
367.11	0.00
367.31	0.00
367.51	0.00
367.70	0.00
367.90	0.00
368.10	0.00
368.30	0.00
368.49	0.00
368.69	0.00
368.89	0.00
369.09	0.00
369.28	0.00
369.48	0.00
369.68	0.00
369.87	0.00
370.07	0.00
370.27	0.00
370.47	7.02
370.66	44.47
370.86	86.60
371.06	119.37
371.25	208.31
371.45	189.58
371.65	93.62
371.84	189.58
372.04	189.58
372.24	168.52
372.44	201.29
372.63	119.37
372.83	245.76
373.03	234.05
373.22	236.39
373.42	238.73
373.62	285.55
373.81	205.97
374.01	222.35
374.21	245.76
374.40	308.95
374.60	299.59
374.79	231.71
374.99	217.67
375.19	269.16
375.38	257.46
375.58	252.78
375.78	227.03
375.97	245.76
376.17	290.23
376.37	191.92
376.56	222.35
376.76	248.10
376.95	252.78
377.15	262.14
377.35	262.14
377.54	304.27
377.74	292.57
377.93	238.73
378.13	311.29
378.33	273.84
378.52	325.33
378.72	332.36
378.91	276.18
379.11	276.18
379.31	344.06
379.50	306.61
379.70	318.31
379.89	266.82
380.09	353.42
380.28	292.57
380.48	306.61
380.68	285.55
380.87	318.31
381.07	353.42
381.26	365.12
381.46	388.53
381.65	395.55
381.85	308.95
382.04	304.27
382.24	353.42
382.43	353.42
382.63	353.42
382.83	376.83
383.02	351.08
383.22	374.49
383.41	339.38
383.61	353.42
383.80	376.83
384.00	374.49
384.19	365.12
384.39	383.85
384.58	372.15
384.78	383.85
384.97	344.06
385.17	433.00
385.36	360.44
385.56	386.19
385.75	325.33
385.95	397.89
386.14	381.51
386.34	444.70
386.53	379.17
386.72	397.89
386.92	468.11
387.11	418.96
387.31	421.30
387.50	416.62
387.70	381.51
387.89	388.53
388.09	416.62
388.28	437.68
388.48	390.87
388.67	519.60
388.86	486.83
389.06	409.59
389.25	547.69
389.45	503.22
389.64	421.30
389.84	425.98
390.03	475.13
390.22	477.47
390.42	484.49
390.61	470.45
390.81	617.90
391.00	484.49
391.19	507.90
391.39	547.69
391.58	552.37
391.78	561.73
391.97	533.64
392.16	524.28
392.36	587.47
392.55	500.87
392.75	559.39
392.94	573.43
393.13	512.58
393.33	503.22
393.52	615.56
393.71	566.41
393.91	631.94
394.10	547.69
394.29	573.43
394.49	552.37
394.68	601.52
394.88	603.86
395.07	613.22
395.26	664.71
395.46	561.73
395.65	631.94
395.84	671.73
396.04	655.35
396.23	627.26
396.42	601.52
396.62	674.07
396.81	674.07
397.00	678.76
397.19	669.39
397.39	685.78
397.58	653.01
397.77	650.67
397.97	744.29
398.16	709.18
398.35	678.76
398.55	730.25
398.74	695.14
398.93	779.40
399.12	716.20
399.32	765.36
399.51	755.99
399.70	774.72
399.90	561.73
400.09	823.87
400.28	791.10
400.47	720.88
400.67	781.74
400.86	753.65
401.05	805.14
401.24	734.93
401.44	868.34
401.63	835.57
401.82	851.96
402.01	816.85
402.21	856.64
402.40	856.64
402.59	767.70
402.78	821.53
402.97	798.12
403.17	945.58
403.36	903.45
403.55	844.93
403.74	884.72
403.93	1022.81
404.13	990.05
404.32	971.32
404.51	898.77
404.70	968.98
404.89	931.53
405.09	952.60
405.28	947.92
405.47	1078.99
405.66	1053.24
405.85	947.92
406.05	968.98
406.24	1057.92
406.43	1076.65
406.62	1013.45
406.81	999.41
407.00	997.07
407.20	1060.26
407.39	1041.54
407.58	1153.88
407.77	1043.88
407.96	1153.88
408.15	1095.37
408.34	1062.60
408.54	1144.52
408.73	1149.20
408.92	1149.20
409.11	1142.18
409.30	1132.82
409.49	1226.44
409.68	1172.61
409.87	1191.33
410.07	1193.67
410.26	1200.69
410.45	1158.57
410.64	1210.06
410.83	1233.46
411.02	1212.40
411.21	1334.11
411.40	1224.10
411.59	1310.70
411.78	1226.44
411.98	1287.29
412.17	1291.98
412.36	1378.58
412.55	1392.62
412.74	1383.26
412.93	1441.77
413.12	1369.21
413.31	1469.86
413.50	1390.28
413.69	1425.39
413.88	1437.09
414.07	1486.24
414.26	1451.13
414.45	1458.15
414.64	1465.18
414.83	1493.26
415.02	1614.97
415.22	1519.01
415.41	1511.99
415.60	1535.39
415.79	1521.35
415.98	1593.90
416.17	1542.41
416.36	1530.71
416.55	1551.78
416.74	1689.87
416.93	1678.16
417.12	1760.08
417.31	1820.94
417.50	1739.02
417.69	1692.21
417.88	1708.59
418.07	1680.50
418.26	1724.97
418.45	1790.51
418.64	1818.60
418.83	1856.04
419.02	1813.92
419.21	1823.28
419.39	1816.26
419.58	1846.68
419.77	1907.54
419.96	1930.94
420.15	1867.75
420.34	1806.89
420.53	1954.35
420.72	1954.35
420.91	2008.18
421.10	1944.99
421.29	2024.56
421.48	1771.79
421.67	1989.46
421.86	1968.39
422.05	2059.67
422.24	2008.18
422.43	2005.84
422.61	2003.50
422.80	2050.31
422.99	2045.63
423.18	1968.39
423.37	1998.82
423.56	1996.48
423.75	1989.46
423.94	2125.21
424.13	1877.11
424.32	1926.26
424.50	2069.03
424.69	2195.42
424.88	2134.57
425.07	2083.08
425.26	2024.56
425.45	2064.35
425.64	2071.37
425.83	2010.52
426.01	2106.48
426.20	2038.61
426.39	2043.29
426.58	2087.76
426.77	2115.84
426.96	2054.99
427.15	2150.95
427.33	2127.55
427.52	2108.82
427.71	2223.51
427.90	2160.31
428.09	2237.55
428.28	2237.55
428.46	2214.15
428.65	2195.42
428.84	2298.41
429.03	2246.91
429.22	2207.13
429.40	2064.35
429.59	2267.98
429.78	2242.23
429.97	2176.70
430.16	2146.27
430.34	2408.41
430.53	2377.98
430.72	2307.77
430.91	2382.67
431.10	2216.49
431.28	2438.84
431.47	2476.29
431.66	2434.16
431.85	2499.69
432.03	2356.92
432.22	2429.48
432.41	2511.39
432.60	2452.88
432.79	2487.99
432.97	2476.29
433.16	2495.01
433.35	2450.54
433.54	2583.95
433.72	2394.37
433.91	2530.12
434.10	2558.21
434.28	2572.25
434.47	2579.27
434.66	2670.55
434.85	2668.21
435.03	2654.17
435.22	2661.19
435.41	2693.96
435.59	2679.91
435.78	2548.84
435.97	2679.91
436.16	2712.68
436.34	2773.53
436.53	2705.66
436.72	2736.09
436.90	2766.51
437.09	2871.84
437.28	2715.02
437.46	2768.85
437.65	2729.06
437.84	2857.79
438.02	2892.90
438.21	2963.12
438.40	2808.64
438.58	2944.39
438.77	2895.24
438.96	2977.16
439.14	2918.65
439.33	2892.90
439.52	3155.04
439.70	3045.04
439.89	3138.66
440.08	3075.46
440.26	3101.21
440.45	3173.77
440.63	3112.91
440.82	3143.34
441.01	3276.75
441.19	3218.24
441.38	3314.20
441.57	3255.69
441.75	3199.51
441.94	3295.47
442.12	3358.67
442.31	3297.81
442.50	3370.37
442.68	3314.20
442.87	3361.01
443.05	3267.39
443.24	3503.78
443.43	3452.29
443.61	3475.70
443.80	3574.00
443.98	3316.54
444.17	3370.37
444.35	3421.86
444.54	3435.91
444.73	3506.12
444.91	3552.93
445.10	3606.77
445.28	3531.87
445.47	3569.32
445.65	3426.54
445.84	3447.61
446.02	3555.27
446.21	3471.01
446.39	3492.08
446.58	3597.40
446.77	3475.70
446.95	3482.72
447.14	3468.67
447.32	3595.06
447.51	3604.42
447.69	3571.66
447.88	3545.91
448.06	3478.04
448.25	3618.47
448.43	3726.13
448.62	3578.68
448.80	3557.61
448.99	3667.62
449.17	3672.30
449.36	3721.45
449.54	3808.05
449.73	3735.50
449.91	3583.36
450.10	3740.18
450.28	3817.41
450.46	3819.75
450.65	3922.74
450.83	3758.90
451.02	3878.27
451.20	3756.56
451.39	3932.10
451.57	3768.26
451.76	3817.41
451.94	3775.28
452.13	3918.06
452.31	3838.48
452.49	3889.97
452.68	3941.46
452.86	3880.61
453.05	3943.80
453.23	4053.81
453.42	4053.81
453.60	3939.12
453.78	3955.51
453.97	3976.57
454.15	3990.61
454.34	4037.42
454.52	4072.53
454.70	4079.55
454.89	4177.86
455.07	4117.00
455.26	3915.72
455.44	4203.60
455.62	4210.62
455.81	4222.33
455.99	4189.56
456.17	4114.66
456.36	4276.16
456.54	4262.12
456.73	4297.22
456.91	4346.37
457.09	4381.48
457.28	4542.98
457.46	4383.82
457.64	4397.87
457.83	4327.65
458.01	4510.21
458.19	4517.23
458.38	4402.55
458.56	4629.58
458.74	4407.23
458.93	4477.44
459.11	4484.47
459.29	4468.08
459.48	4667.03
459.66	4624.90
459.84	4472.76
460.03	4627.24
460.21	4521.92
460.39	4566.39
460.57	4622.56
460.76	4645.96
460.94	4589.79
461.12	4767.67
461.31	4580.43
461.49	4629.58
461.67	4580.43
461.85	4802.78
462.04	4826.18
462.22	5011.09
462.40	4870.65
462.59	4784.06
462.77	4795.76
462.95	4863.63
463.13	4968.96
463.32	4833.21
463.50	4870.65
463.68	4905.76
463.86	4908.10
464.05	4905.76
464.23	4823.84
464.41	4924.49
464.59	4821.50
464.78	5057.90
464.96	5139.82
465.14	4880.02
465.32	5095.35
465.50	5095.35
465.69	5219.39
465.87	4985.34
466.05	5095.35
466.23	5048.54
466.41	5095.35
466.60	5406.64
466.78	5071.94
466.96	5231.10
467.14	5177.26
467.32	5240.46
467.51	5163.22
467.69	5076.62
467.87	5224.08
468.05	5167.90
468.23	5348.12
468.41	5240.46
468.60	5228.76
468.78	5334.08
468.96	5263.86
469.14	5483.88
469.32	5427.70
469.50	5249.82
469.69	5497.92
469.87	5514.30
470.05	5619.63
470.23	5614.95
470.41	5518.98
470.59	5526.00
470.77	5460.47
470.95	5764.74
471.14	5516.64
471.32	5528.35
471.50	5685.16
471.68	5682.82
471.86	5830.27
472.04	5720.27
472.22	5781.12
472.40	5682.82
472.58	5778.78
472.77	5743.67
472.95	5851.34
473.13	6200.08
473.31	6045.60
473.49	5916.87
473.67	6078.37
473.85	6017.52
474.03	6190.72
474.21	6001.13
474.39	6153.27
474.57	6155.61
474.75	6333.49
474.93	6406.05
475.12	6291.36
475.30	6492.65
475.48	6359.24
475.66	6363.92
475.84	6452.86
476.02	6310.08
476.20	6429.45
476.38	6441.15
476.56	6857.77
476.74	6679.89
476.92	6661.16
477.10	6878.83
477.28	6754.79
477.46	6780.53
477.64	6661.16
477.82	6764.15
478.00	7054.37
478.18	7119.91
478.36	7073.10
478.54	7148.00
478.72	7222.89
478.90	7138.63
479.08	7342.26
479.26	7208.85
479.44	7377.37
479.62	7480.35
479.80	7585.68
479.98	7611.42
480.16	7529.50
480.34	7789.30
480.52	7735.47
480.70	7948.46
480.88	7786.96
481.06	7932.08
481.24	7896.97
481.41	8105.28
481.59	8149.75
481.77	7955.48
481.95	8332.31
482.13	8348.69
482.31	8234.00
482.49	8379.12
482.67	8505.51
482.85	8582.74
483.03	8739.56
483.21	8793.39
483.39	8842.54
483.57	8702.11
483.74	8734.88
483.92	8849.57
484.10	8858.93
484.28	9210.01
484.46	9205.33
484.64	9177.24
484.82	9294.27
485.00	9172.56
485.18	9427.68
485.35	9493.21
485.53	9343.42
485.71	9689.82
485.89	9703.86
486.07	9537.68
486.25	9692.16
486.43	9994.09
486.61	9907.49
486.78	9902.81
486.96	10122.82
487.14	10178.99
487.32	10270.27
487.50	10136.86
487.68	10394.32
487.85	10513.69
488.03	10771.15
488.21	10888.17
488.39	10434.11
488.57	10853.06
488.75	10857.75
488.92	11229.89
489.10	11087.12
489.28	11147.97
489.46	11159.67
489.64	11335.21
489.81	11302.45
489.99	11520.12
490.17	11426.50
490.35	11871.20
490.53	11934.39
490.70	11686.29
490.88	11756.51
491.06	11896.94
491.24	11847.79
491.41	11936.73
491.59	12095.89
491.77	12131.00
491.95	12486.76
492.13	12493.78
492.30	12425.90
492.48	12564.00
492.66	12533.57
492.84	12624.85
493.01	12833.16
493.19	12882.31
493.37	12884.65
493.54	13219.35
493.72	13057.85
493.90	12945.50
494.08	13303.60
494.25	13612.56
494.43	13362.12
494.61	13472.12
494.79	13694.47
494.96	13481.49
495.14	13549.36
495.32	13902.78
495.49	13785.76
495.67	13799.80
495.85	13769.37
496.02	14221.10
496.20	13965.98
496.38	14476.21
496.55	14338.12
496.73	14466.85
496.91	14251.52
497.09	14394.29
497.26	14391.95
497.44	14572.18
497.62	14586.22
497.79	14747.72
497.97	14658.78
498.14	14937.30
498.32	15236.89
498.50	14951.34
498.67	15176.03
498.85	15147.95
499.03	15080.07
499.20	15407.75
499.38	15309.44
499.56	15391.36
499.73	15487.32
499.91	15840.75
500.08	15625.42
500.26	15473.28
500.44	15564.56
500.61	16137.99
500.79	16208.21
500.97	15934.37
501.14	16086.50
501.32	16411.84
501.49	15946.07
501.67	15833.72
501.84	16210.55
502.02	16243.32
502.20	16425.88
502.37	16315.87
502.55	16706.74
502.72	16659.93
502.90	16561.63
503.07	16463.33
503.25	16805.05
503.43	16669.30
503.60	16912.71
503.78	16854.20
503.95	17071.87
504.13	16926.75
504.30	16868.24
504.48	16905.69
504.65	17006.33
504.83	17149.11
505.01	17483.80
505.18	17359.75
505.36	17694.45
505.53	17273.15
505.71	17207.62
505.88	17661.68
506.06	17378.48
506.23	17748.28
506.41	17657.00
506.58	17666.36
506.76	17591.47
506.93	17827.86
507.11	17734.24
507.28	17750.62
507.46	17769.35
507.63	18174.26
507.81	18211.71
507.98	17907.44
508.16	18171.92
508.33	18078.30
508.50	18073.62
508.68	18366.18
508.85	18506.62
509.03	18387.25
509.20	18546.40
509.38	18487.89
509.55	18731.31
509.73	18820.25
509.90	19058.98
510.08	18841.31
510.25	18808.54
510.42	18890.46
510.60	18904.51
510.77	19063.66
510.95	18899.83
511.12	18991.11
511.30	18902.17
511.47	19140.90
511.64	19192.39
511.82	19419.42
511.99	19379.64
512.17	19733.06
512.34	19616.03
512.51	19344.53
512.69	19545.81
512.86	19716.67
513.04	19955.41
513.21	19871.15
513.38	19793.91
513.56	19796.25
513.73	19564.54
513.90	19997.54
514.08	19494.32
514.25	20109.88
514.43	20327.55
514.60	20676.29
514.77	19901.58
514.95	20353.30
515.12	20287.76
515.29	20400.11
515.47	20372.02
515.64	20463.30
515.81	20386.07
515.99	20414.15
516.16	20671.61
516.33	20734.81
516.51	20786.30
516.68	20510.11
516.85	20580.33
517.03	20849.49
517.20	20751.19
517.37	20805.02
517.54	20870.56
517.72	21221.64
517.89	21160.78
518.06	21057.80
518.24	20954.82
518.41	20999.29
518.58	21345.69
518.75	21144.40
518.93	21359.73
519.10	21221.64
519.27	21509.52
519.45	21366.75
519.62	21259.09
519.79	21214.62
519.96	21481.44
520.14	21703.79
520.31	21392.50
520.48	21549.31
520.65	21596.12
520.83	21769.32
521.00	21853.58
521.17	21720.17
521.34	21930.82
521.52	21989.33
521.69	22127.42
521.86	22087.64
522.03	22375.52
522.20	22005.72
522.38	22537.02
522.55	22412.97
522.72	22377.86
522.89	22658.73
523.07	22651.70
523.24	22312.33
523.41	22352.12
523.58	22508.93
523.75	22560.42
523.92	22637.66
524.10	22691.49
524.27	22595.53
524.44	23058.96
524.61	22906.82
524.78	23140.88
524.96	23115.13
525.13	22855.33
525.30	23075.34
525.47	22958.31
525.64	22735.96
525.81	23234.50
525.98	23384.29
526.16	23222.80
526.33	23702.61
526.50	23527.06
526.67	23084.70
526.84	23400.68
527.01	23318.76
527.18	23571.54
527.36	23662.82
527.53	23630.05
527.70	23758.78
527.87	23672.18
528.04	23557.49
528.21	23901.55
528.38	23962.40
528.55	24060.71
528.72	23538.77
528.89	23854.74
529.07	23845.38
529.24	23852.40
529.41	23981.13
529.58	23941.34
529.75	23861.76
529.92	24004.53
530.09	24072.41
530.26	24098.16
530.43	24290.08
530.60	24112.20
530.77	24196.46
530.94	24528.81
531.11	24339.23
531.28	24379.02
531.46	24636.48
531.63	24159.01
531.80	24449.24
531.97	24620.10
532.14	24812.02
532.31	24528.81
532.48	24683.29
532.65	24830.74
532.82	24587.33
532.99	24500.73
533.16	24627.12
533.33	24709.04
533.50	25090.54
533.67	25017.99
533.84	24842.45
534.01	24446.90
534.18	25085.86
534.35	25170.12
534.52	24842.45
534.69	25207.57
534.86	25408.86
535.03	24786.27
535.20	25010.96
535.37	24947.77
535.54	25104.59
535.71	24957.13
535.88	25247.36
536.05	25252.04
536.22	25364.39
536.38	25759.94
536.55	25717.81
536.72	25727.17
536.89	25090.54
537.06	25537.59
537.23	25436.94
537.40	25317.57
537.57	25757.60
537.74	25865.26
537.91	25926.11
538.08	25942.50
538.25	25837.17
538.42	25764.62
538.59	26040.80
538.75	25778.66
538.92	25645.25
539.09	26096.97
539.26	26089.95
539.43	25656.95
539.60	26314.64
539.77	26375.50
539.94	26335.71
540.11	26300.60
540.28	25993.99
540.44	26064.21
540.61	25891.01
540.78	26115.70
540.95	26024.42
541.12	26450.39
541.29	26354.43
541.46	26270.17
541.62	26403.58
541.79	26614.23
541.96	26082.93
542.13	26494.86
542.30	26536.99
542.47	26621.25
542.63	26665.72
542.80	26455.08
542.97	27101.06
543.14	26902.12
543.31	26733.60
543.48	26700.83
543.64	26967.65
543.81	27204.05
543.98	27026.17
544.15	26948.93
544.32	27482.57
544.48	27529.38
544.65	27171.28
544.82	27075.32
544.99	26621.25
545.16	27587.89
545.32	27267.24
545.49	27520.02
545.66	27407.67
545.83	27321.07
546.00	27356.18
546.16	27470.87
546.33	27197.02
546.50	27419.38
546.67	27463.85
546.83	27096.38
547.00	27510.66
547.17	27653.43
547.34	27442.78
547.50	27662.79
547.67	27669.81
547.84	27672.15
548.00	27747.05
548.17	28215.16
548.34	27529.38
548.51	27782.16
548.67	27627.68
548.84	27894.50
549.01	27824.29
549.18	27672.15
549.34	27707.26
549.51	27819.61
549.68	27679.18
549.84	27871.10
550.01	28158.99
550.18	27613.64
550.34	27798.54
550.51	28247.93
550.68	28114.52
550.84	27660.45
551.01	28449.21
551.18	27978.76
551.34	28011.53
551.51	28098.13
551.68	28297.08
551.84	28287.71
552.01	28257.29
552.18	28332.18
552.34	28158.99
552.51	28285.37
552.68	28276.01
552.84	28327.50
553.01	28243.24
553.18	28290.06
553.34	28479.64
553.51	28709.01
553.67	28472.62
553.84	28837.74
554.01	28774.55
554.17	28542.83
554.34	28379.00
554.51	28460.91
554.67	28655.18
554.84	28755.82
555.00	29071.79
555.17	28952.43
555.33	28783.91
555.50	28694.97
555.67	28753.48
555.83	28821.36
556.00	28971.15
556.16	28959.45
556.33	28727.74
556.50	28978.17
556.66	29127.97
556.83	28882.21
556.99	29329.25
557.16	29249.67
557.32	29085.84
557.49	29347.98
557.65	28683.27
557.82	28847.10
557.98	28961.79
558.15	29032.00
558.32	29191.16
558.48	29195.84
558.65	29010.94
558.81	29371.38
558.98	29411.17
559.14	29355.00
559.31	29369.04
559.47	29429.90
559.64	29036.69
559.80	29429.90
559.97	29394.79
560.13	29415.85
560.30	29322.23
560.46	29610.12
560.63	28943.06
560.79	29399.47
560.96	29549.26
561.12	29631.18
561.29	29436.92
561.45	29362.02
561.61	29369.04
561.78	29544.58
561.94	29755.23
562.11	29654.59
562.27	29401.81
562.44	29460.32
562.60	29462.66
562.77	29811.40
562.93	29193.50
563.10	30000.99
563.26	29586.71
563.42	29788.00
563.59	29914.39
563.75	29675.65
563.92	29968.22
564.08	29977.58
564.24	29596.07
564.41	30164.82
564.57	29961.20
564.74	29905.02
564.90	29947.15
565.07	29898.00
565.23	29813.74
565.39	29912.05
565.56	30260.79
565.72	29804.38
565.88	29780.98
566.05	29465.00
566.21	29677.99
566.38	29825.45
566.54	29996.31
566.70	30118.01
566.87	30312.28
567.03	29940.13
567.19	29975.24
567.36	30066.52
567.52	29617.14
567.68	30314.62
567.85	29900.34
568.01	30122.69
568.17	29755.23
568.34	30319.30
568.50	29818.42
568.66	30356.75
568.83	30050.14
568.99	30115.67
569.15	29694.38
569.32	29996.31
569.48	29919.07
569.64	29883.96
569.81	29839.49
569.97	30171.85
570.13	30209.29
570.30	30153.12
570.46	29874.60
570.62	30073.54
570.78	30307.60
570.95	29788.00
571.11	30300.58
571.27	29926.09
571.43	30256.11
571.60	30352.07
571.76	30328.66
571.92	30146.10
572.09	30457.39
572.25	30417.60
572.41	30391.86
572.57	30342.70
572.74	30110.99
572.90	30024.39
573.06	29940.13
573.22	30651.66
573.38	30052.48
573.55	30103.97
573.71	30740.60
573.87	30529.95
574.03	30148.44
574.20	30199.93
574.36	30387.18
574.52	30473.78
574.68	30527.61
574.84	30607.19
575.01	30258.45
575.17	30497.18
575.33	30073.54
575.49	30490.16
575.65	30874.01
575.82	30286.53
575.98	30384.83
576.14	30457.39
576.30	30389.52
576.46	30242.06
576.62	30249.08
576.79	30579.10
576.95	30525.27
577.11	30543.99
577.27	30356.75
577.43	30405.90
577.59	30705.49
577.75	30436.33
577.92	30466.75
578.08	30422.28
578.24	30551.01
578.40	30316.96
578.56	30366.11
578.72	30866.98
578.88	31042.53
579.04	30616.55
579.21	30499.52
579.37	30813.15
579.53	30333.34
579.69	30272.49
579.85	30052.48
580.01	30492.50
580.17	30213.98
580.33	30396.54
580.49	30600.16
580.65	30766.34
580.82	30377.81
580.98	30546.33
581.14	30555.69
581.30	30834.22
581.46	30263.13
581.62	30572.08
581.78	30574.42
581.94	30331.00
582.10	30438.67
582.26	30698.47
582.42	30771.02
582.58	30691.44
582.74	30646.97
582.90	30773.36
583.06	30756.98
583.22	30569.74
583.38	30778.04
583.54	30558.03
583.70	30347.39
583.86	30689.10
584.02	30717.19
584.18	30768.68
584.34	30684.42
584.50	30639.95
584.66	30693.79
584.82	30462.07
584.98	30684.42
585.14	30761.66
585.30	30654.00
585.46	30590.80
585.62	30286.53
585.78	30286.53
585.94	30375.47
586.10	30733.57
586.26	30848.26
586.42	30848.26
586.58	30766.34
586.74	30628.25
586.90	30354.41
587.06	30677.40
587.22	30871.67
587.38	30394.20
587.54	30918.48
587.70	30785.07
587.86	30824.86
588.02	30799.11
588.18	30703.15
588.34	30934.86
588.49	30909.11
588.65	30670.38
588.81	31012.10
588.97	30515.90
589.13	30600.16
589.29	30426.96
589.45	30869.33
589.61	30909.11
589.77	31077.63
589.93	31075.29
590.08	30946.56
590.24	31274.24
590.40	30934.86
590.56	30953.58
590.72	30897.41
590.88	30754.64
591.04	30735.92
591.20	31311.69
591.35	30913.80
591.51	31189.98
591.67	31145.51
591.83	31051.89
591.99	31372.54
592.15	31096.36
592.31	31028.48
592.46	30944.22
592.62	30771.02
592.78	31058.91
592.94	30988.69
593.10	30878.69
593.26	31000.40
593.41	31398.29
593.57	31047.21
593.73	30785.07
593.89	31058.91
594.05	31353.82
594.20	31042.53
594.36	31002.74
594.52	31152.53
594.68	30951.24
594.84	30899.75
594.99	31325.73
595.15	31143.17
595.31	31304.67
595.47	31204.02
595.62	31302.32
595.78	31466.16
595.94	31101.04
596.10	31159.55
596.25	31206.36
596.41	31192.32
596.57	30934.86
596.73	31175.94
596.88	31206.36
597.04	31660.43
597.20	31304.67
597.36	30932.52
597.51	31440.42
597.67	31246.15
597.83	31180.62
597.99	31058.91
598.14	30654.00
598.30	30899.75
598.46	31206.36
598.61	31049.55
598.77	31126.78
598.93	31714.26
599.09	31302.32
599.24	31473.18
599.40	31723.62
599.56	31431.05
599.71	31239.13
599.87	31419.35
600.03	31302.32
600.18	31297.64
600.34	31290.62
600.50	31262.54
600.65	31321.05
600.81	31299.98
600.97	31386.58
601.12	31599.57
601.28	31346.79
601.44	31414.67
601.59	31583.19
601.75	31323.39
601.91	31374.88
602.06	30841.24
602.22	31087.00
602.37	31161.89
602.53	31335.09
602.69	31330.41
602.84	31119.76
603.00	31527.02
603.16	31529.36
603.31	31267.22
603.47	31105.72
603.62	31225.09
603.78	31559.78
603.94	31283.60
604.09	31346.79
604.25	31115.08
604.40	31199.34
604.56	30913.80
604.71	31510.63
604.87	31323.39
605.03	31365.52
605.18	31335.09
605.34	30831.88
605.49	31199.34
605.65	31070.61
605.80	31072.95
605.96	31051.89
606.12	31035.50
606.27	31494.25
606.43	31187.64
606.58	31491.91
606.74	31119.76
606.89	30951.24
607.05	31620.64
607.20	31615.96
607.36	31194.66
607.51	31206.36
607.67	31178.28
607.82	31054.23
607.98	31257.85
608.13	31000.40
608.29	30862.30
608.44	31065.93
608.60	31197.00
608.75	31353.82
608.91	31091.68
609.06	31150.19
609.22	31065.93
609.37	31145.51
609.53	31033.16
609.68	31379.56
609.84	30855.28
609.99	31194.66
610.15	31019.12
610.30	31117.42
610.46	30632.93
610.61	31002.74
610.76	31152.53
610.92	30581.44
611.07	30761.66
611.23	30930.18
611.38	30909.11
611.54	30888.05
611.69	30382.49
611.84	30604.84
612.00	30841.24
612.15	30969.97
612.31	30742.94
612.46	30745.28
612.62	30965.29
612.77	31147.85
612.92	31040.18
613.08	30576.76
613.23	31185.30
613.39	30579.10
613.54	30448.03
613.69	30333.34
613.85	30607.19
614.00	30391.86
614.15	30724.21
614.31	30813.15
614.46	30885.71
614.62	30658.68
614.77	30576.76
614.92	30789.75
615.08	30703.15
615.23	30923.16
615.38	30710.17
615.54	30352.07
615.69	30462.07
615.84	30398.88
616.00	30235.04
616.15	30171.85
616.30	30661.02
616.46	30555.69
616.61	30508.88
616.76	30937.20
616.92	30146.10
617.07	30862.30
617.22	30637.61
617.37	30717.19
617.53	30321.64
617.68	30845.92
617.83	30108.65
617.99	30448.03
618.14	29972.90
618.29	30321.64
618.45	30059.50
618.60	30394.20
618.75	30345.05
618.90	30118.01
619.06	30471.43
619.21	30274.83
619.36	30036.09
619.51	30043.12
619.67	29752.89
619.82	30061.84
619.97	30141.42
620.12	30153.12
620.28	30155.46
620.43	30518.25
620.58	30569.74
620.73	30019.71
620.89	30483.14
621.04	30302.92
621.19	29881.62
621.34	30242.06
621.49	29940.13
621.65	30190.57
621.80	29790.34
621.95	29539.90
622.10	30389.52
622.25	29813.74
622.41	30333.34
622.56	30132.06
622.71	29956.52
622.86	29996.31
623.01	29687.36
623.16	29780.98
623.32	29802.04
623.47	29659.27
623.62	29715.44
623.77	29546.92
623.92	29441.60
624.07	29584.37
624.23	29942.47
624.38	29762.25
624.53	29879.28
624.68	29961.20
624.83	29734.17
624.98	30089.93
625.13	29614.80
625.29	29673.31
625.44	29827.79
625.59	29322.23
625.74	29589.05
625.89	29179.46
626.04	29219.25
626.19	29331.59
626.34	29703.74
626.49	29434.58
626.65	29050.73
626.80	29586.71
626.95	29202.86
627.10	29626.50
627.25	29186.48
627.40	29167.76
627.55	28952.43
627.70	28720.71
627.85	28872.85
628.00	29242.65
628.15	29296.49
628.30	29088.18
628.45	29284.78
628.60	29055.41
628.76	28917.32
628.91	29284.78
629.06	29142.01
629.21	29170.10
629.36	28919.66
629.51	29270.74
629.66	28835.40
629.81	28727.74
629.96	28622.41
630.11	28875.19
630.26	28776.89
630.41	28622.41
630.56	28985.19
630.71	28835.40
630.86	29113.92
631.01	28804.97
631.16	29092.86
631.31	28737.10
631.46	28772.21
631.61	29205.20
631.76	28690.29
631.91	28896.25
632.06	28699.65
632.21	28694.97
632.36	28767.52
632.51	28746.46
632.66	28765.18
632.81	28608.37
632.96	28811.99
633.10	28844.76
633.25	28816.68
633.40	28863.49
633.55	28737.10
633.70	28339.21
633.85	28636.45
634.00	28266.65
634.15	28158.99
634.30	28236.22
634.45	28222.18
634.60	28208.14
634.75	28533.47
634.90	28198.77
635.05	28769.86
635.19	28519.43
635.34	28793.27
635.49	28945.41
635.64	28493.68
635.79	28421.13
635.94	28182.39
636.09	28311.12
636.24	28027.92
636.39	27969.40
636.53	28070.04
636.68	28458.57
636.83	27866.42
636.98	28601.35
637.13	28100.47
637.28	28364.95
637.43	28353.25
637.57	28350.91
637.72	28400.06
637.87	27803.22
638.02	27988.13
638.17	27922.59
638.32	27934.29
638.46	27707.26
638.61	27950.68
638.76	27859.40
638.91	27967.06
639.06	27840.67
639.20	27946.00
639.35	28105.15
639.50	28182.39
639.65	28219.84
639.80	28093.45
639.94	27585.55
640.09	28252.61
640.24	27709.60
640.39	27744.71
640.54	27496.61
640.68	27243.84
640.83	27674.49
640.98	27702.58
641.13	27594.92
641.27	27744.71
641.42	27803.22
641.57	27583.21
641.72	27756.41
641.86	27639.39
642.01	27351.50
642.16	27358.52
642.31	27679.18
642.45	27625.34
642.60	27311.71
642.75	27576.19
642.90	27559.81
643.04	27314.05
643.19	27372.57
643.34	27487.25
643.48	27381.93
643.63	27332.78
643.78	27433.42
643.93	28006.85
644.07	27779.82
644.22	27545.76
644.37	27222.77
644.51	27300.01
644.66	27098.72
644.81	27178.30
644.95	27328.10
645.10	27473.21
645.25	27541.08
645.39	27000.42
645.54	27103.40
645.69	26757.00
645.83	27386.61
645.98	27393.63
646.13	27154.90
646.27	27211.07
646.42	27182.98
646.57	26675.09
646.71	27051.91
646.86	27314.05
647.00	27232.13
647.15	26808.50
647.30	27084.68
647.44	27072.98
647.59	26789.77
647.74	26813.18
647.88	26630.62
648.03	26962.97
648.17	27070.64
648.32	27056.59
648.47	26899.78
648.61	26902.12
648.76	27115.11
648.90	27536.40
649.05	27054.25
649.20	26822.54
649.34	26906.80
649.49	26644.66
649.63	26494.86
649.78	26565.08
649.92	26476.14
650.07	26803.82
650.21	26417.63
650.36	26555.72
650.51	26431.67
650.65	26843.60
650.80	26422.31
650.94	26665.72
651.09	26508.91
651.23	26403.58
651.38	26558.06
651.52	26525.29
651.67	26637.64
651.81	26551.04
651.96	26895.10
652.10	26349.75
652.25	26536.99
652.39	26677.43
652.54	26536.99
652.68	26761.69
652.83	26574.44
652.97	26682.11
653.12	26665.72
653.26	26520.61
653.41	26396.56
653.55	26473.80
653.70	26012.71
653.84	26171.87
653.99	26384.86
654.13	26080.59
654.27	26410.60
654.42	26174.21
654.56	26164.85
654.71	26410.60
654.85	26424.65
655.00	26295.92
655.14	26068.89
655.29	26096.97
655.43	26593.17
655.57	26382.52
655.72	26106.34
655.86	25879.30
656.01	26129.74
656.15	26089.95
656.30	26073.57
656.44	26302.94
656.58	25944.84
656.73	25930.80
656.87	26125.06
657.01	26092.29
657.16	25467.37
657.30	26019.74
657.45	25631.21
657.59	25640.57
657.73	25898.03
657.88	26038.46
658.02	25881.64
658.16	25558.65
658.31	25759.94
658.45	25460.35
658.60	25495.46
658.74	25928.45
658.88	25860.58
659.03	25443.96
659.17	25752.91
659.31	25879.30
659.46	25359.70
659.60	25603.12
659.74	25963.56
659.89	25722.49
660.03	25252.04
660.17	25546.95
660.32	25268.42
660.46	25266.08
660.60	25001.60
660.74	24954.79
660.89	25139.69
661.03	25055.43
661.17	25048.41
661.32	25144.38
661.46	25268.42
661.60	25298.85
661.74	24828.40
661.89	24912.66
662.03	25158.42
662.17	24929.05
662.31	24812.02
662.46	25135.01
662.60	25027.35
662.74	24730.10
662.88	24872.87
663.03	24694.99
663.17	24734.78
663.31	24428.17
663.45	24889.26
663.60	24285.40
663.74	24573.28
663.88	24666.91
664.02	24594.35
664.17	24507.75
664.31	24503.07
664.45	24517.11
664.59	24479.66
664.73	24669.25
664.88	24430.51
665.02	23845.38
665.16	24039.64
665.30	24109.86
665.44	24063.05
665.59	24051.34
665.73	24250.29
665.87	23852.40
666.01	24332.21
666.15	23793.89
666.29	23929.64
666.44	24159.01
666.58	23616.01
666.72	23824.31
666.86	23868.78
667.00	24034.96
667.14	23828.99
667.28	23728.35
667.43	23716.65
667.57	23651.11
667.71	23711.97
667.85	24182.42
667.99	23597.28
668.13	23618.35
668.27	23555.15
668.41	23414.72
668.56	23763.46
668.70	23405.36
668.84	23482.59
668.98	23564.51
669.12	23318.76
669.26	23040.23
669.40	23367.91
669.54	23440.47
669.68	23548.13
669.82	23208.75
669.96	23171.30
670.10	22932.57
670.25	23147.90
670.39	23131.51
670.53	22616.60
670.67	22920.87
670.81	23346.84
670.95	22686.81
671.09	22881.08
671.23	22904.48
671.37	23129.17
671.51	22864.69
671.65	23232.16
671.79	22829.59
671.93	22845.97
672.07	22675.11
672.21	22785.12
672.35	22380.20
672.49	22288.92
672.63	22520.63
672.77	22279.56
672.91	22190.62
673.05	22546.38
673.19	22153.17
673.33	22089.98
673.47	22284.24
673.61	22328.71
673.75	22141.47
673.89	22260.84
674.03	22040.82
674.17	21907.41
674.31	22038.48
674.45	21949.54
674.59	21879.33
674.73	21996.35
674.87	21816.13
675.01	21525.91
675.15	21764.64
675.29	21436.97
675.43	21525.91
675.56	21692.08
675.70	21404.20
675.84	21582.08
675.98	20753.53
676.12	21315.26
676.26	21823.16
676.40	21099.93
676.54	21043.76
676.68	21057.80
676.82	20975.88
676.96	21200.57
677.10	21048.44
677.23	20821.41
677.37	20912.69
677.51	20734.81
677.65	20823.75
677.79	20486.71
677.93	20566.29
678.07	20437.56
678.21	20327.55
678.34	20266.70
678.48	20383.73
678.62	20357.98
678.76	20194.14
678.90	19934.34
679.04	20297.13
679.18	20072.43
679.31	20009.24
679.45	19807.95
679.59	19538.79
679.73	20013.92
679.87	19613.69
680.00	19442.83
680.14	19733.06
680.28	19594.96
680.42	19536.45
680.56	19522.41
680.70	19489.64
680.83	19625.39
680.97	19377.30
681.11	19337.51
681.25	19264.95
681.39	18906.85
681.52	18993.45
681.66	19028.56
681.80	18965.36
681.94	18843.65
682.07	18977.06
682.21	19150.26
682.35	18480.87
682.49	19089.41
682.62	18494.91
682.76	18424.70
682.90	18743.01
683.04	18389.59
683.17	18427.04
683.31	18483.21
683.45	18307.67
683.59	18312.35
683.72	18499.59
683.86	18022.12
684.00	18153.20
684.13	18295.97
684.27	18080.64
684.41	17827.86
684.55	17837.22
684.68	17703.81
684.82	17659.34
684.96	17523.59
685.09	17759.98
685.23	17715.51
685.37	17390.18
685.50	17912.12
685.64	17514.23
685.78	17380.82
685.91	17481.46
686.05	17661.68
686.19	17373.80
686.32	17188.89
686.46	17336.35
686.60	17046.12
686.73	16999.31
686.87	16992.29
687.01	16924.41
687.14	16940.80
687.28	16510.14
687.42	16849.52
687.55	16556.95
687.69	16933.78
687.82	16514.82
687.96	16533.54
688.10	16137.99
688.23	16681.00
688.37	16582.70
688.50	16381.41
688.64	16285.45
688.78	16243.32
688.91	16123.95
689.05	16145.02
689.18	16292.47
689.32	15576.27
689.46	15929.69
689.59	15531.80
689.73	15772.87
689.86	15719.04
690.00	15983.52
690.13	15798.62
690.27	15534.14
690.41	15861.81
690.54	15548.18
690.68	15712.02
690.81	15494.35
690.95	15328.17
691.08	15447.54
691.22	15396.04
691.35	15241.57
691.49	15222.84
691.62	14972.41
691.76	15075.39
691.89	14958.36
692.03	14698.56
692.16	14846.02
692.30	14675.16
692.43	14583.88
692.57	14707.93
692.70	14504.30
692.84	14647.07
692.97	14558.13
693.11	14359.19
693.24	14410.68
693.38	14583.88
693.51	14066.62
693.65	14363.87
693.78	14139.18
693.92	14389.61
694.05	14249.18
694.19	14052.58
694.32	14085.34
694.45	13884.06
694.59	13891.08
694.72	13680.43
694.86	13736.60
694.99	13645.32
695.13	13547.02
695.26	13558.72
695.39	13547.02
695.53	13561.06
695.66	13544.68
695.80	13235.73
695.93	13654.69
696.07	13509.57
696.20	13502.55
696.33	13291.90
696.47	13469.78
696.60	13273.18
696.73	13308.29
696.87	13118.70
697.00	12931.46
697.14	13057.85
697.27	12507.82
697.40	12828.48
697.54	12678.68
697.67	12538.25
697.80	12425.90
697.94	12863.58
698.07	12601.44
698.21	12411.86
698.34	12718.47
698.47	12496.12
698.61	12503.14
698.74	12308.88
698.87	12248.02
699.01	12245.68
699.14	12255.04
699.27	11798.64
699.40	12039.72
699.54	12070.14
699.67	12028.01
699.80	11985.88
699.94	12042.06
700.07	11786.94
700.20	11765.87
700.34	11660.55
700.47	11637.14
700.60	11882.90
700.73	11735.45
700.87	11545.86
701.00	11276.70
701.13	11337.56
701.26	11452.24
701.40	11611.40
701.53	11534.16
701.66	11389.05
701.79	11293.08
701.93	10998.18
702.06	11033.29
702.19	11063.71
702.32	10848.38
702.46	10654.12
702.59	10644.76
702.72	10558.16
702.85	10679.86
702.99	10668.16
703.12	10705.61
703.25	10721.99
703.38	10663.48
703.51	10530.07
703.65	10539.43
703.78	10370.91
703.91	10391.98
704.04	10513.69
704.17	10457.51
704.31	10525.39
704.44	10242.18
704.57	10244.52
704.70	10050.26
704.83	10209.42
704.96	9968.34
705.10	9944.94
705.23	9860.68
>>>>>End Processed Spectral Data<<<<<
