SpectraSuite Data File
++++++++++++++++++++++++++++++++++++
Date: Fri Oct 18 13:58:22 GMT-05:00 2013
User: bianchi
Dark Spectrum Present: No
Reference Spectrum Present: No
Number of Sampled Component Spectra: 1
Spectrometers: USB2+H05261
Integration Time (usec): 50000 (USB2+H05261)
Spectra Averaged: 1 (USB2+H05261)
Boxcar Smoothing: 0 (USB2+H05261)
Correct for Electrical Dark: No (USB2+H05261)
Strobe/Lamp Enabled: No (USB2+H05261)
Correct for Detector Non-linearity: No (USB2+H05261)
Correct for Stray Light: No (USB2+H05261)
Number of Pixels in Processed Spectrum: 2048
>>>>>Begin Processed Spectral Data<<<<<
365.73	0.00
365.92	0.00
366.12	0.00
366.32	0.00
366.52	0.00
366.72	0.00
366.91	0.00
367.11	0.00
367.31	0.00
367.51	0.00
367.70	0.00
367.90	0.00
368.10	0.00
368.30	0.00
368.49	0.00
368.69	0.00
368.89	0.00
369.09	0.00
369.28	0.00
369.48	0.00
369.68	0.00
369.87	0.00
370.07	0.00
370.27	0.00
370.47	0.00
370.66	110.01
370.86	131.07
371.06	163.84
371.25	117.03
371.45	117.03
371.65	196.60
371.84	194.26
372.04	175.54
372.24	170.86
372.44	170.86
372.63	161.50
372.83	177.88
373.03	194.26
373.22	229.37
373.42	262.14
373.62	238.73
373.81	173.20
374.01	198.95
374.21	238.73
374.40	241.08
374.60	294.91
374.79	287.89
374.99	196.60
375.19	175.54
375.38	287.89
375.58	241.08
375.78	280.86
375.97	187.24
376.17	318.31
376.37	201.29
376.56	208.31
376.76	177.88
376.95	224.69
377.15	264.48
377.35	241.08
377.54	184.90
377.74	278.52
377.93	252.78
378.13	236.39
378.33	231.71
378.52	259.80
378.72	339.38
378.91	358.10
379.11	358.10
379.31	290.23
379.50	236.39
379.70	220.01
379.89	372.15
380.09	308.95
380.28	327.68
380.48	327.68
380.68	266.82
380.87	236.39
381.07	280.86
381.26	334.70
381.46	358.10
381.65	358.10
381.85	311.29
382.04	388.53
382.24	374.49
382.43	374.49
382.63	283.20
382.83	414.27
383.02	337.04
383.22	355.76
383.41	297.25
383.61	348.74
383.80	360.44
384.00	428.32
384.19	381.51
384.39	397.89
384.58	430.66
384.78	346.40
384.97	372.15
385.17	369.80
385.36	428.32
385.56	367.46
385.75	425.98
385.95	355.76
386.14	409.59
386.34	463.43
386.53	407.25
386.72	395.55
386.92	425.98
387.11	395.55
387.31	393.21
387.50	367.46
387.70	418.96
387.89	416.62
388.09	376.83
388.28	442.36
388.48	454.06
388.67	486.83
388.86	355.76
389.06	451.72
389.25	437.68
389.45	358.10
389.64	437.68
389.84	454.06
390.03	514.92
390.22	519.60
390.42	465.77
390.61	449.38
390.81	425.98
391.00	475.13
391.19	552.37
391.39	458.74
391.58	465.77
391.78	463.43
391.97	465.77
392.16	470.45
392.36	533.64
392.55	479.81
392.75	475.13
392.94	566.41
393.13	578.11
393.33	507.90
393.52	559.39
393.71	521.94
393.91	571.09
394.10	566.41
394.29	571.09
394.49	559.39
394.68	531.30
394.88	599.18
395.07	571.09
395.26	631.94
395.46	610.88
395.65	655.35
395.84	578.11
396.04	699.82
396.23	650.67
396.42	697.48
396.62	528.96
396.81	638.97
397.00	594.50
397.19	624.92
397.39	716.20
397.58	617.90
397.77	660.03
397.97	702.16
398.16	662.37
398.35	648.33
398.55	638.97
398.74	685.78
398.93	784.08
399.12	720.88
399.32	695.14
399.51	622.58
399.70	739.61
399.90	805.14
400.09	753.65
400.28	819.19
400.47	720.88
400.67	772.38
400.86	788.76
401.05	777.06
401.24	819.19
401.44	819.19
401.63	814.51
401.82	851.96
402.01	763.01
402.21	716.20
402.40	823.87
402.59	786.42
402.78	770.04
402.97	903.45
403.17	786.42
403.36	880.04
403.55	748.97
403.74	791.10
403.93	887.06
404.13	952.60
404.32	844.93
404.51	1015.79
404.70	887.06
404.89	1011.11
405.09	1022.81
405.28	938.55
405.47	931.53
405.66	1004.09
405.85	957.28
406.05	964.30
406.24	938.55
406.43	990.05
406.62	1025.15
406.81	1109.41
407.00	1008.77
407.20	983.02
407.39	957.28
407.58	1088.35
407.77	1004.09
407.96	1071.97
408.15	1193.67
408.34	1111.75
408.54	1102.39
408.73	1097.71
408.92	1097.71
409.11	1090.69
409.30	1036.86
409.49	1135.16
409.68	1137.50
409.87	1093.03
410.07	1128.14
410.26	1156.22
410.45	1039.20
410.64	1191.33
410.83	1123.46
411.02	1254.53
411.21	1259.21
411.40	1266.23
411.59	1214.74
411.78	1284.95
411.98	1249.85
412.17	1273.25
412.36	1282.61
412.55	1277.93
412.74	1284.95
412.93	1263.89
413.12	1303.68
413.31	1380.92
413.50	1406.66
413.69	1390.28
413.88	1383.26
414.07	1509.65
414.26	1338.79
414.45	1551.78
414.64	1376.24
414.83	1465.18
415.02	1572.84
415.22	1547.09
415.41	1511.99
415.60	1465.18
415.79	1638.38
415.98	1596.25
416.17	1549.43
416.36	1514.33
416.55	1657.10
416.74	1591.56
416.93	1603.27
417.12	1600.93
417.31	1710.93
417.50	1769.44
417.69	1809.23
417.88	1703.91
418.07	1720.29
418.26	1774.13
418.45	1797.53
418.64	1802.21
418.83	1881.79
419.02	1891.15
419.21	1781.15
419.39	1753.06
419.58	1872.43
419.77	1816.26
419.96	1825.62
420.15	1881.79
420.34	1872.43
420.53	1790.51
420.72	1914.56
420.91	1916.90
421.10	1909.88
421.29	1902.86
421.48	1923.92
421.67	1902.86
421.86	2029.24
422.05	1900.52
422.24	1949.67
422.43	1853.70
422.61	1961.37
422.80	2033.93
422.99	2024.56
423.18	1987.11
423.37	2139.25
423.56	2078.40
423.75	2031.58
423.94	1996.48
424.13	1970.73
424.32	1930.94
424.50	2062.01
424.69	2087.76
424.88	2174.36
425.07	2106.48
425.26	1998.82
425.45	2064.35
425.64	1935.62
425.83	1942.64
426.01	1963.71
426.20	2101.80
426.39	2066.69
426.58	2026.90
426.77	2134.57
426.96	2087.76
427.15	2108.82
427.33	2174.36
427.52	2111.16
427.71	2134.57
427.90	2132.23
428.09	2073.71
428.28	2143.93
428.46	2157.97
428.65	2169.68
428.84	2223.51
429.03	2256.28
429.22	2125.21
429.40	2188.40
429.59	2251.60
429.78	2167.34
429.97	2204.78
430.16	2169.68
430.34	2284.36
430.53	2300.75
430.72	2366.28
430.91	2333.51
431.10	2260.96
431.28	2246.91
431.47	2307.77
431.66	2331.17
431.85	2317.13
432.03	2356.92
432.22	2473.95
432.41	2424.80
432.60	2424.80
432.79	2394.37
432.97	2485.65
433.16	2410.75
433.35	2502.03
433.54	2495.01
433.72	2499.69
433.91	2438.84
434.10	2523.10
434.28	2502.03
434.47	2539.48
434.66	2537.14
434.85	2544.16
435.03	2649.49
435.22	2555.86
435.41	2637.78
435.59	2473.95
435.78	2651.83
435.97	2576.93
436.16	2757.15
436.34	2656.51
436.53	2537.14
436.72	2733.75
436.90	2534.80
437.09	2768.85
437.28	2640.12
437.46	2630.76
437.65	2794.60
437.84	2555.86
438.02	2726.72
438.21	2794.60
438.40	2635.44
438.58	2857.79
438.77	2869.50
438.96	2780.56
439.14	3087.17
439.33	2904.60
439.52	2963.12
439.70	2979.50
439.89	2998.23
440.08	2995.89
440.26	3005.25
440.45	2953.76
440.63	3056.74
440.82	3005.25
441.01	3152.70
441.19	3068.44
441.38	3187.81
441.57	3103.55
441.75	3199.51
441.94	3391.44
442.12	3339.94
442.31	3290.79
442.50	3356.33
442.68	3290.79
442.87	3361.01
443.05	3208.87
443.24	3211.22
443.43	3346.97
443.61	3403.14
443.80	3426.54
443.98	3344.63
444.17	3295.47
444.35	3368.03
444.54	3393.78
444.73	3361.01
444.91	3398.46
445.10	3510.80
445.28	3499.10
445.47	3358.67
445.65	3482.72
445.84	3414.84
446.02	3337.60
446.21	3356.33
446.39	3403.14
446.58	3410.16
446.77	3496.76
446.95	3403.14
447.14	3508.46
447.32	3660.60
447.51	3435.91
447.69	3482.72
447.88	3517.83
448.06	3478.04
448.25	3524.85
448.43	3515.48
448.62	3449.95
448.80	3655.92
448.99	3557.61
449.17	3581.02
449.36	3447.61
449.54	3798.69
449.73	3705.07
449.91	3625.49
450.10	3700.39
450.28	3763.58
450.46	3674.64
450.65	3700.39
450.83	3796.35
451.02	3632.51
451.20	3747.20
451.39	3939.12
451.57	3719.11
451.76	3770.60
451.94	3852.52
452.13	3845.50
452.31	3758.90
452.49	3749.54
452.68	3887.63
452.86	3908.69
453.05	3815.07
453.23	3964.87
453.42	3857.20
453.60	3674.64
453.78	3845.50
453.97	3997.64
454.15	3875.93
454.34	3798.69
454.52	4021.04
454.70	3967.21
454.89	4065.51
455.07	3992.95
455.26	3997.64
455.44	4166.15
455.62	3829.12
455.81	3990.61
455.99	4056.15
456.17	4161.47
456.36	4102.96
456.54	4067.85
456.73	4208.28
456.91	4278.50
457.09	4250.41
457.28	4234.03
457.46	4271.48
457.64	4292.54
457.83	4414.25
458.01	4219.99
458.19	4365.10
458.38	4348.72
458.56	4367.44
458.74	4449.36
458.93	4517.23
459.11	4339.35
459.29	4407.23
459.48	4475.10
459.66	4517.23
459.84	4290.20
460.03	4430.63
460.21	4482.13
460.39	4533.62
460.57	4624.90
460.76	4566.39
460.94	4578.09
461.12	4650.64
461.31	4552.34
461.49	4608.51
461.67	4615.54
461.85	4671.71
462.04	4725.54
462.22	4812.14
462.40	4613.20
462.59	4795.76
462.77	4767.67
462.95	4819.16
463.13	4748.95
463.32	4802.78
463.50	4873.00
463.68	4985.34
463.86	4894.06
464.05	4795.76
464.23	4861.29
464.41	4823.84
464.59	4842.57
464.78	4861.29
464.96	4849.59
465.14	4978.32
465.32	5095.35
465.50	4990.02
465.69	5006.41
465.87	4952.57
466.05	4940.87
466.23	4856.61
466.41	5118.75
466.60	4926.83
466.78	5043.85
466.96	5069.60
467.14	4966.62
467.32	5048.54
467.51	5275.57
467.69	5062.58
467.87	5128.11
468.05	5221.74
468.23	5046.20
468.41	5280.25
468.60	5160.88
468.78	5313.02
468.96	5179.61
469.14	5205.35
469.32	5383.23
469.50	5116.41
469.69	5364.51
469.87	5387.91
470.05	5399.62
470.23	5406.64
470.41	5446.43
470.59	5345.78
470.77	5444.09
470.95	5334.08
471.14	5535.37
471.32	5514.30
471.50	5598.56
471.68	5507.28
471.86	5605.58
472.04	5668.78
472.22	5748.36
472.40	5462.81
472.58	5680.48
472.77	5682.82
472.95	5881.77
473.13	6080.71
473.31	5738.99
473.49	5874.74
473.67	5767.08
473.85	5804.53
474.03	6129.86
474.21	5858.36
474.39	6094.76
474.57	6097.10
474.75	5940.28
474.93	5851.34
475.12	6260.93
475.30	6127.52
475.48	6265.61
475.66	6237.53
475.84	6214.12
476.02	6307.74
476.20	6361.58
476.38	6431.79
476.56	6661.16
476.74	6415.41
476.92	6499.67
477.10	6544.14
477.28	6661.16
477.46	6738.40
477.64	6682.23
477.82	6719.68
478.00	6939.69
478.18	6942.03
478.36	6848.41
478.54	7000.54
478.72	7045.01
478.90	7145.66
479.08	7208.85
479.26	7185.44
479.44	6995.86
479.62	7103.53
479.80	7391.41
479.98	7442.90
480.16	7543.55
480.34	7421.84
480.52	7569.29
480.70	7728.45
480.88	7405.46
481.06	7632.49
481.24	7585.68
481.41	7763.56
481.59	7803.35
481.77	7995.27
481.95	8058.46
482.13	7927.39
482.31	7957.82
482.49	8322.94
482.67	8259.75
482.85	8306.56
483.03	8510.19
483.21	8428.27
483.39	8535.93
483.57	8404.86
483.74	8507.85
483.92	8578.06
484.10	8592.11
484.28	8807.44
484.46	8777.01
484.64	9032.13
484.82	8821.48
485.00	9146.81
485.18	9207.67
485.35	9350.44
485.53	9207.67
485.71	9149.15
485.89	9600.88
486.07	9397.25
486.25	9521.30
486.43	9547.05
486.61	9593.86
486.78	9710.88
486.96	9827.91
487.14	10005.79
487.32	9907.49
487.50	10026.86
487.68	10139.20
487.85	10310.06
488.03	10417.72
488.21	10583.90
488.39	10361.55
488.57	10743.06
488.75	10466.88
488.92	10979.45
489.10	10904.56
489.28	10967.75
489.46	10927.96
489.64	11047.33
489.81	11145.63
489.99	11241.59
490.17	11129.25
490.35	11377.34
490.53	11527.14
490.70	11496.71
490.88	11438.20
491.06	11878.22
491.24	11798.64
491.41	11742.47
491.59	11903.96
491.77	12035.03
491.95	12084.19
492.13	12138.02
492.30	12086.53
492.48	11910.99
492.66	12526.55
492.84	12407.18
493.01	12463.35
493.19	12472.71
493.37	12830.82
493.54	12615.49
493.72	12795.71
493.90	12486.76
494.08	12889.33
494.25	13081.25
494.43	13060.19
494.61	13132.75
494.79	13198.28
494.96	13338.71
495.14	13195.94
495.32	13481.49
495.49	13495.53
495.67	13664.05
495.85	13701.50
496.02	13647.66
496.20	13760.01
496.38	13858.31
496.55	14033.85
496.73	14214.07
496.91	14061.94
497.09	14286.63
497.26	14171.94
497.44	14267.91
497.62	14391.95
497.79	14593.24
497.97	14530.05
498.14	14689.20
498.32	14841.34
498.50	14576.86
498.67	14979.43
498.85	14726.65
499.03	14831.97
499.20	14991.13
499.38	15197.10
499.56	15199.44
499.73	15173.69
499.91	15325.83
500.08	15391.36
500.26	15213.48
500.44	15220.50
500.61	15419.45
500.79	15428.81
500.97	15494.35
501.14	16023.31
501.32	15974.16
501.49	15611.37
501.67	15573.92
501.84	15971.82
502.02	15910.96
502.20	15908.62
502.37	16166.08
502.55	16217.57
502.72	15941.39
502.90	15971.82
503.07	16020.97
503.25	16299.49
503.43	16444.60
503.60	16751.21
503.78	16423.54
503.95	16271.40
504.13	16622.48
504.30	16498.44
504.48	16823.77
504.65	16730.15
504.83	16847.18
505.01	16961.86
505.18	17102.29
505.36	17025.06
505.53	16592.06
505.71	16816.75
505.88	17146.76
506.06	16795.68
506.23	17224.00
506.41	17209.96
506.58	17467.42
506.76	17191.23
506.93	17678.07
507.11	17303.58
507.28	17502.53
507.46	17558.70
507.63	17582.10
507.81	18122.77
507.98	17635.94
508.16	17867.65
508.33	17547.00
508.50	17926.16
508.68	17769.35
508.85	18008.08
509.03	18026.81
509.20	17968.29
509.38	18101.70
509.55	18420.02
509.73	18111.07
509.90	18405.97
510.08	18291.29
510.25	18312.35
510.42	18434.06
510.60	18417.68
510.77	18801.52
510.95	18735.99
511.12	18223.41
511.30	18743.01
511.47	18724.29
511.64	18595.56
511.82	19103.45
511.99	18778.12
512.17	19000.47
512.34	18871.74
512.51	18883.44
512.69	18995.79
512.86	19094.09
513.04	19494.32
513.21	19403.04
513.38	19356.23
513.56	19246.23
513.73	19440.49
513.90	19552.84
514.08	19379.64
514.25	19499.00
514.43	19522.41
514.60	19641.78
514.77	19784.55
514.95	19969.45
515.12	19852.42
515.29	19576.24
515.47	19716.67
515.64	20030.30
515.81	19999.88
515.99	20051.37
516.16	20479.69
516.33	20177.76
516.51	20308.83
516.68	20100.52
516.85	20130.95
517.03	20194.14
517.20	20423.51
517.37	20374.36
517.54	20306.49
517.72	20458.62
517.89	20491.39
518.06	21001.63
518.24	20615.44
518.41	20453.94
518.58	20585.01
518.75	20819.07
518.93	20655.23
519.10	20950.14
519.27	20769.91
519.45	20673.95
519.62	20856.51
519.79	20807.36
519.96	21263.77
520.14	21343.35
520.31	21184.19
520.48	21132.70
520.65	20989.92
520.83	21296.53
521.00	21226.32
521.17	21188.87
521.34	21221.64
521.52	21301.22
521.69	21509.52
521.86	21678.04
522.03	21687.40
522.20	21717.83
522.38	21813.79
522.55	21628.89
522.72	21762.30
522.89	22066.57
523.07	22253.81
523.24	21699.11
523.41	22054.87
523.58	21975.29
523.75	22164.87
523.92	22050.19
524.10	21820.81
524.27	22302.96
524.44	22174.24
524.61	22548.72
524.78	22272.54
524.96	22340.41
525.13	22340.41
525.30	22553.40
525.47	22333.39
525.64	22656.39
525.81	22632.98
525.98	22951.29
526.16	22803.84
526.33	22668.09
526.50	22803.84
526.67	22712.56
526.84	22925.55
527.01	22588.51
527.18	22661.07
527.36	23089.38
527.53	23002.78
527.70	23234.50
527.87	23573.88
528.04	23218.11
528.21	22963.00
528.38	23227.48
528.55	23356.21
528.72	23058.96
528.89	23175.98
529.07	23351.52
529.24	23274.29
529.41	22974.70
529.58	23321.10
529.75	23222.80
529.92	23393.65
530.09	23087.04
530.26	23346.84
530.43	23585.58
530.60	23522.38
530.77	23896.87
530.94	23704.95
531.11	23620.69
531.28	23751.76
531.46	23686.22
531.63	23644.09
531.80	23779.84
531.97	23847.72
532.14	23976.45
532.31	23817.29
532.48	24098.16
532.65	24009.22
532.82	24182.42
532.99	24133.26
533.16	23864.10
533.33	24524.13
533.50	24449.24
533.67	24219.86
533.84	24077.09
534.01	24196.46
534.18	24353.27
534.35	24343.91
534.52	24507.75
534.69	24615.41
534.86	24343.91
535.03	24524.13
535.20	24449.24
535.37	24538.18
535.54	24746.48
535.71	24201.14
535.88	24725.42
536.05	24573.28
536.22	25167.78
536.38	24858.83
536.55	24891.60
536.72	25050.75
536.89	24657.54
537.06	25102.25
537.23	25039.05
537.40	25043.73
537.57	24453.92
537.74	24926.71
537.91	25298.85
538.08	25544.61
538.25	24964.15
538.42	25413.54
538.59	25010.96
538.75	25104.59
538.92	25130.33
539.09	25600.78
539.26	25364.39
539.43	25135.01
539.60	25268.42
539.77	25776.32
539.94	25577.37
540.11	25319.92
540.28	25694.40
540.44	25490.77
540.61	25422.90
540.78	25050.75
540.95	25661.63
541.12	25612.48
541.29	25745.89
541.46	25387.79
541.62	25593.76
541.79	25593.76
541.96	25355.02
542.13	25530.56
542.30	25729.51
542.47	26143.78
542.63	26010.37
542.80	26326.35
542.97	26017.40
543.14	26246.77
543.31	26183.57
543.48	26309.96
543.64	26714.87
543.81	26106.34
543.98	26380.18
544.15	26485.50
544.32	26700.83
544.48	26742.96
544.65	26480.82
544.82	26263.15
544.99	26251.45
545.16	26319.32
545.32	26462.10
545.49	26560.40
545.66	26499.55
545.83	26588.49
546.00	26686.79
546.16	26579.12
546.33	26675.09
546.50	26260.81
546.67	26415.29
546.83	26665.72
547.00	26614.23
547.17	26661.04
547.34	26974.67
547.50	26972.33
547.67	27049.57
547.84	27056.59
548.00	27213.41
548.17	26824.88
548.34	26850.63
548.51	27182.98
548.67	27007.44
548.84	27051.91
549.01	27101.06
549.18	27278.94
549.34	27215.75
549.51	27080.00
549.68	26995.74
549.84	27152.55
550.01	27484.91
550.18	27459.16
550.34	27374.91
550.51	27552.79
550.68	27304.69
550.84	27047.23
551.01	27384.27
551.18	27337.46
551.34	27185.32
551.51	27307.03
551.68	27133.83
551.84	27648.75
552.01	27583.21
552.18	27658.11
552.34	27304.69
552.51	27941.32
552.68	26988.72
552.84	27637.05
553.01	27566.83
553.18	27648.75
553.34	27637.05
553.51	27814.93
553.67	27981.10
553.84	27828.97
554.01	27728.33
554.17	27728.33
554.34	27798.54
554.51	27679.18
554.67	27892.16
554.84	28079.41
555.00	27901.53
555.17	28023.23
555.33	27990.47
555.50	27702.58
555.67	27969.40
555.83	28112.17
556.00	28444.53
556.16	28435.17
556.33	27927.27
556.50	27887.48
556.66	28191.75
556.83	28119.20
556.99	28430.49
557.16	28446.87
557.32	28329.84
557.49	28276.01
557.65	28236.22
557.82	28215.16
557.98	27903.87
558.15	28294.74
558.32	28168.35
558.48	28070.04
558.65	28526.45
558.81	28446.87
558.98	28580.28
559.14	28315.80
559.31	28954.77
559.47	28491.34
559.64	28671.56
559.80	28524.11
559.97	28753.48
560.13	28463.25
560.30	28517.09
560.46	28762.84
560.63	28549.85
560.79	28491.34
560.96	28512.41
561.12	28648.16
561.29	28577.94
561.45	28868.17
561.61	28797.95
561.78	28879.87
561.94	28877.53
562.11	28690.29
562.27	28711.35
562.44	28706.67
562.60	29027.32
562.77	28800.29
562.93	28606.03
563.10	28795.61
563.26	28751.14
563.42	28842.42
563.59	28584.96
563.75	28718.37
563.92	29139.67
564.08	28889.23
564.24	28968.81
564.41	28364.95
564.57	28662.20
564.74	28940.72
564.90	28900.94
565.07	28929.02
565.23	29034.35
565.39	28964.13
565.56	29142.01
565.72	28577.94
565.88	28891.57
566.05	28713.69
566.21	29006.26
566.38	28659.86
566.54	29034.35
566.70	29535.22
566.87	29127.97
567.03	29226.27
567.19	29586.71
567.36	29214.57
567.52	29106.90
567.68	29062.43
567.85	29149.03
568.01	29039.03
568.17	28793.27
568.34	29230.95
568.50	29486.07
568.66	29359.68
568.83	29479.05
568.99	29223.93
569.15	28905.62
569.32	29263.72
569.48	28732.42
569.64	28774.55
569.81	28966.47
569.97	29188.82
570.13	29120.95
570.30	29338.62
570.46	29373.72
570.62	29340.96
570.78	29298.83
570.95	28917.32
571.11	29270.74
571.27	29085.84
571.43	28709.01
571.60	29408.83
571.76	28982.85
571.92	29446.28
572.09	29347.98
572.25	29525.86
572.41	29385.43
572.57	29282.44
572.74	29645.23
572.90	29401.81
573.06	29355.00
573.22	29125.63
573.38	29242.65
573.55	29310.53
573.71	29628.84
573.87	29923.75
574.03	29212.23
574.20	29532.88
574.36	29598.41
574.52	29532.88
574.68	29088.18
574.84	29476.71
575.01	29467.34
575.17	29668.63
575.33	29144.35
575.49	29345.64
575.65	29521.18
575.82	29467.34
575.98	29457.98
576.14	29457.98
576.30	29429.90
576.46	29202.86
576.62	29242.65
576.79	29490.75
576.95	29457.98
577.11	29539.90
577.27	29179.46
577.43	29738.85
577.59	29521.18
577.75	29385.43
577.92	29364.36
578.08	29518.84
578.24	29841.83
578.40	29441.60
578.56	29603.10
578.72	29546.92
578.88	29975.24
579.04	29926.09
579.21	29883.96
579.37	29717.78
579.53	29926.09
579.69	29411.17
579.85	29488.41
580.01	29549.26
580.17	29387.77
580.33	29443.94
580.49	29722.46
580.65	29675.65
580.82	29951.84
580.98	29663.95
581.14	29825.45
581.30	29827.79
581.46	29493.09
581.62	29490.75
581.78	29722.46
581.94	29965.88
582.10	29525.86
582.26	29895.66
582.42	29670.97
582.58	29963.54
582.74	29752.89
582.90	29724.80
583.06	29558.63
583.22	29734.17
583.38	30057.16
583.54	29497.77
583.70	29298.83
583.86	29666.29
584.02	29523.52
584.18	29823.11
584.34	30092.27
584.50	29905.02
584.66	30017.37
584.82	29769.27
584.98	29862.90
585.14	29788.00
585.30	29298.83
585.46	29766.93
585.62	29390.11
585.78	29890.98
585.94	29692.04
586.10	30022.05
586.26	29776.30
586.42	29666.29
586.58	30321.64
586.74	29387.77
586.90	29584.37
587.06	29376.06
587.22	29752.89
587.38	29745.87
587.54	29841.83
587.70	30167.16
587.86	30153.12
588.02	30024.39
588.18	29823.11
588.34	29881.62
588.49	29748.21
588.65	29895.66
588.81	29804.38
588.97	29898.00
589.13	30033.75
589.29	29706.08
589.45	30108.65
589.61	30302.92
589.77	30429.30
589.93	30103.97
590.08	30120.35
590.24	30221.00
590.40	29792.68
590.56	30038.44
590.72	29687.36
590.88	29743.53
591.04	29778.64
591.20	30279.51
591.35	30211.64
591.51	30342.70
591.67	30473.78
591.83	30560.37
591.99	30309.94
592.15	30089.93
592.31	30132.06
592.46	30068.86
592.62	30005.67
592.78	29942.47
592.94	30153.12
593.10	30082.91
593.26	30242.06
593.41	30272.49
593.57	30122.69
593.73	30415.26
593.89	30335.68
594.05	30471.43
594.20	30265.47
594.36	30043.12
594.52	29993.97
594.68	29890.98
594.84	30127.38
594.99	30361.43
595.15	29656.93
595.31	30600.16
595.47	30331.00
595.62	30171.85
595.78	30305.26
595.94	29876.94
596.10	30384.83
596.25	30288.87
596.41	29750.55
596.57	29982.26
596.73	30237.38
596.88	30125.04
597.04	30499.52
597.20	30148.44
597.36	30536.97
597.51	30417.60
597.67	30103.97
597.83	29668.63
597.99	30253.76
598.14	30139.08
598.30	30132.06
598.46	30190.57
598.61	30003.33
598.77	30565.06
598.93	30082.91
599.09	30139.08
599.24	30817.83
599.40	30625.91
599.56	30244.40
599.71	30391.86
599.87	29914.39
600.03	29907.37
600.18	30120.35
600.34	30178.87
600.50	30272.49
600.65	30274.83
600.81	30581.44
600.97	30553.35
601.12	30363.77
601.28	30572.08
601.44	30251.42
601.59	30689.10
601.75	30356.75
601.91	30099.29
602.06	30412.92
602.22	29888.64
602.37	30029.07
602.53	30352.07
602.69	30518.25
602.84	30211.64
603.00	30560.37
603.16	30197.59
603.31	30342.70
603.47	30469.09
603.62	30258.45
603.78	30286.53
603.94	30082.91
604.09	30195.25
604.25	30125.04
604.40	30101.63
604.56	30661.02
604.71	30911.46
604.87	30548.67
605.03	30213.98
605.18	30302.92
605.34	30546.33
605.49	30178.87
605.65	29935.45
605.80	30134.40
605.96	30160.14
606.12	30197.59
606.27	30103.97
606.43	30188.23
606.58	30436.33
606.74	30426.96
606.89	30251.42
607.05	30230.36
607.20	30431.65
607.36	30246.74
607.51	30426.96
607.67	29940.13
607.82	29668.63
607.98	30045.46
608.13	30494.84
608.29	30288.87
608.44	30167.16
608.60	30272.49
608.75	30132.06
608.91	29930.77
609.06	29940.13
609.22	30235.04
609.37	29989.28
609.53	29839.49
609.68	29958.86
609.84	30213.98
609.99	30106.31
610.15	29514.16
610.30	29996.31
610.46	30244.40
610.61	30396.54
610.76	29816.08
610.92	30054.82
611.07	29645.23
611.23	30010.35
611.38	29727.14
611.54	29621.82
611.69	29802.04
611.84	29722.46
612.00	29631.18
612.15	29804.38
612.31	30171.85
612.46	30148.44
612.62	29862.90
612.77	29914.39
612.92	30096.95
613.08	29626.50
613.23	29359.68
613.39	29490.75
613.54	29640.54
613.69	29282.44
613.85	29825.45
614.00	29584.37
614.15	29935.45
614.31	29893.32
614.46	29879.28
614.62	29729.48
614.77	29860.55
614.92	29591.39
615.08	29575.01
615.23	29766.93
615.38	29830.13
615.54	29411.17
615.69	29773.95
615.84	29610.12
616.00	29448.62
616.15	29357.34
616.30	29303.51
616.46	29369.04
616.61	29626.50
616.76	29876.94
616.92	29600.76
617.07	29371.38
617.22	29521.18
617.37	29078.82
617.53	29575.01
617.68	29511.81
617.83	29106.90
617.99	29631.18
618.14	29338.62
618.29	29448.62
618.45	29305.85
618.60	29078.82
618.75	29329.25
618.90	29312.87
619.06	29633.52
619.21	29090.52
619.36	29434.58
619.51	29153.71
619.67	28847.10
619.82	28737.10
619.97	29214.57
620.12	29046.05
620.28	28959.45
620.43	28992.22
620.58	29523.52
620.73	29032.00
620.89	29179.46
621.04	29137.33
621.19	29282.44
621.34	29118.60
621.49	29064.77
621.65	28809.65
621.80	29179.46
621.95	29102.22
622.10	29205.20
622.25	28701.99
622.41	28308.78
622.56	28858.81
622.71	28989.88
622.86	29284.78
623.01	29067.11
623.16	28842.42
623.32	29223.93
623.47	28999.24
623.62	28914.98
623.77	28435.17
623.92	28751.14
624.07	28751.14
624.23	28809.65
624.38	28826.04
624.53	28545.17
624.68	29057.75
624.83	28954.77
624.98	28816.68
625.13	28856.46
625.29	28833.06
625.44	28566.24
625.59	28416.44
625.74	28458.57
625.89	28437.51
626.04	28383.68
626.19	28510.07
626.34	28334.53
626.49	28130.90
626.65	28257.29
626.80	28411.76
626.95	28489.00
627.10	28259.63
627.25	28299.42
627.40	28130.90
627.55	28470.28
627.70	28226.86
627.85	28180.05
628.00	28325.16
628.15	28283.03
628.30	28067.70
628.45	28276.01
628.60	27948.34
628.76	28226.86
628.91	28121.54
629.06	28582.62
629.21	28119.20
629.36	28257.29
629.51	28388.36
629.66	28112.17
629.81	27988.13
629.96	27906.21
630.11	27964.72
630.26	27618.32
630.41	27854.72
630.56	27864.08
630.71	28224.52
630.86	27910.89
631.01	28343.89
631.16	28170.69
631.31	27503.64
631.46	27843.01
631.61	28116.86
631.76	27555.13
631.91	27875.78
632.06	27894.50
632.21	27417.04
632.36	28053.66
632.51	27566.83
632.66	27580.87
632.81	27606.62
632.96	27632.36
633.10	27733.01
633.25	27934.29
633.40	27747.05
633.55	27445.12
633.70	27758.75
633.85	27304.69
634.00	27367.88
634.15	27232.13
634.30	27342.14
634.45	27646.41
634.60	27606.62
634.75	27644.07
634.90	27040.21
635.05	27428.74
635.19	27819.61
635.34	27796.20
635.49	27332.78
635.64	27417.04
635.79	27648.75
635.94	27662.79
636.09	27644.07
636.24	27204.05
636.39	27077.66
636.53	27283.62
636.68	27122.13
636.83	26951.27
636.98	27243.84
637.13	27358.52
637.28	27185.32
637.43	27381.93
637.57	27309.37
637.72	27089.36
637.87	27166.60
638.02	27021.48
638.17	27115.11
638.32	26773.39
638.46	26731.26
638.61	26939.57
638.76	27536.40
638.91	26775.73
639.06	27152.55
639.20	26941.91
639.35	26918.50
639.50	27105.74
639.65	27241.50
639.80	26937.23
639.94	27082.34
640.09	27168.94
640.24	27019.14
640.39	26691.47
640.54	26452.73
640.68	26792.11
640.83	26904.46
640.98	27098.72
641.13	26623.59
641.27	26639.98
641.42	26742.96
641.57	27056.59
641.72	26665.72
641.86	26487.84
642.01	26651.68
642.16	26663.38
642.31	26307.62
642.45	26609.55
642.60	26536.99
642.75	26281.88
642.90	26274.85
643.04	26408.26
643.19	26321.66
643.34	26436.35
643.48	26686.79
643.63	26391.88
643.78	26340.39
643.93	26773.39
644.07	26555.72
644.22	26717.22
644.37	26242.09
644.51	26649.34
644.66	26382.52
644.81	26361.45
644.95	26309.96
645.10	26174.21
645.25	26178.89
645.39	26167.19
645.54	26242.09
645.69	26094.63
645.83	26518.27
645.98	26419.97
646.13	26497.20
646.27	26658.70
646.42	26445.71
646.57	26099.31
646.71	26342.73
646.86	26342.73
647.00	26169.53
647.15	26071.23
647.30	26288.90
647.44	25844.20
647.59	25965.90
647.74	25724.83
647.88	25685.04
648.03	25895.69
648.17	26445.71
648.32	25963.56
648.47	26155.49
648.61	25989.31
648.76	25933.14
648.90	26082.93
649.05	25827.81
649.20	25998.67
649.34	25773.98
649.49	25666.31
649.63	25743.55
649.78	25696.74
649.92	25757.60
650.07	26139.10
650.21	25706.10
650.36	25743.55
650.51	25624.18
650.65	25937.82
650.80	25535.24
650.94	25638.23
651.09	25181.82
651.23	25572.69
651.38	25795.04
651.52	25511.84
651.67	25422.90
651.81	25837.17
651.96	26022.08
652.10	25640.57
652.25	25752.91
652.39	25493.12
652.54	25635.89
652.68	25563.33
652.83	25713.13
652.97	25834.83
653.12	25582.06
653.26	25380.77
653.41	25481.41
653.55	25294.17
653.70	25195.87
653.84	25411.20
653.99	25214.59
654.13	25310.55
654.27	25252.04
654.42	24982.88
654.56	25036.71
654.71	25259.06
654.85	25516.52
655.00	25692.06
655.14	25434.60
655.29	25191.19
655.43	25378.43
655.57	25305.87
655.72	25195.87
655.86	24959.47
656.01	25336.30
656.15	25221.61
656.30	25308.21
656.44	24992.24
656.58	24723.08
656.73	24844.79
656.87	25135.01
657.01	25064.80
657.16	25301.19
657.30	25404.17
657.45	24884.58
657.59	24772.23
657.73	24503.07
657.88	24964.15
658.02	24610.73
658.16	24734.78
658.31	24624.78
658.45	24830.74
658.60	24589.67
658.74	24809.68
658.88	24531.15
659.03	24589.67
659.17	24758.19
659.31	24989.90
659.46	24650.52
659.60	24762.87
659.74	24608.39
659.89	24479.66
660.03	24266.67
660.17	24666.91
660.32	24264.33
660.46	24498.39
660.60	24259.65
660.74	24411.79
660.89	24278.38
661.03	24304.12
661.17	24308.80
661.32	24049.00
661.46	24201.14
661.60	24133.26
661.74	24554.56
661.89	24180.07
662.03	24329.87
662.17	24297.10
662.31	23903.89
662.46	24273.70
662.60	23758.78
662.74	24039.64
662.88	23604.30
663.03	23917.93
663.17	23548.13
663.31	23613.66
663.45	23733.03
663.60	23777.50
663.74	23756.44
663.88	23880.49
664.02	23632.39
664.17	24009.22
664.31	23592.60
664.45	23285.99
664.59	23550.47
664.73	23363.23
664.88	23370.25
665.02	23183.01
665.16	23498.98
665.30	23257.90
665.44	23136.20
665.59	23194.71
665.73	23206.41
665.87	23187.69
666.01	23201.73
666.15	23089.38
666.29	23241.52
666.44	23161.94
666.58	23178.33
666.72	22974.70
666.86	23218.11
667.00	23147.90
667.14	22780.43
667.28	22794.48
667.43	22796.82
667.57	22693.83
667.71	22876.40
667.85	23042.57
667.99	22806.18
668.13	22855.33
668.27	22686.81
668.41	22630.64
668.56	22436.38
668.70	22794.48
668.84	22764.05
668.98	22419.99
669.12	22733.62
669.26	22773.41
669.40	22677.45
669.54	22394.25
669.68	22181.26
669.82	22317.01
669.96	22424.67
670.10	22050.19
670.25	22188.28
670.39	22040.82
670.53	22134.45
670.67	21834.86
670.81	22139.13
670.95	22284.24
671.09	22094.66
671.23	22089.98
671.37	22092.32
671.51	21827.84
671.65	22089.98
671.79	21961.25
671.93	22008.06
672.07	21830.18
672.21	21668.68
672.35	21453.35
672.49	21451.01
672.63	21483.78
672.77	21383.13
672.91	21596.12
673.05	21713.15
673.19	21385.47
673.33	21668.68
673.47	21343.35
673.61	21329.30
673.75	21605.49
673.89	21451.01
674.03	21490.80
674.17	21132.70
674.31	20912.69
674.45	21015.67
674.59	20992.26
674.73	21057.80
674.87	21149.08
675.01	20978.22
675.15	20826.09
675.29	21022.69
675.43	20809.70
675.56	20580.33
675.70	20510.11
675.84	20851.83
675.98	20002.22
676.12	20788.64
676.26	20877.58
676.40	20842.47
676.54	20500.75
676.68	20519.48
676.82	20142.65
676.96	20467.98
677.10	20400.11
677.23	20215.21
677.37	19885.19
677.51	20107.54
677.65	20060.73
677.79	19536.45
677.93	19578.58
678.07	19747.10
678.21	19520.07
678.34	19520.07
678.48	19297.72
678.62	19515.39
678.76	19403.04
678.90	19433.47
679.04	19580.92
679.18	19417.08
679.31	19147.92
679.45	19040.26
679.59	18892.80
679.73	18925.57
679.87	18984.09
680.00	18951.32
680.14	19166.65
680.28	18841.31
680.42	18864.72
680.56	18911.53
680.70	18684.50
680.83	18803.86
680.97	18743.01
681.11	18396.61
681.25	18307.67
681.39	18644.71
681.52	18515.98
681.66	18476.19
681.80	18480.87
681.94	18361.50
682.07	18059.57
682.21	18106.38
682.35	17989.36
682.49	17961.27
682.62	17816.16
682.76	17975.31
682.90	18024.47
683.04	17734.24
683.17	17846.58
683.31	17788.07
683.45	17907.44
683.59	17802.11
683.72	17537.63
683.86	17556.36
684.00	17823.18
684.13	17256.77
684.27	17193.58
684.41	17212.30
684.55	16994.63
684.68	16879.94
684.82	16950.16
684.96	16971.22
685.09	16917.39
685.23	16669.30
685.37	16877.60
685.50	16982.93
685.64	16833.13
685.78	16751.21
685.91	16863.56
686.05	16772.28
686.19	16493.76
686.32	16781.64
686.46	16353.32
686.60	16418.86
686.73	16500.78
686.87	16119.27
687.01	16322.90
687.14	16224.59
687.28	15995.22
687.42	16039.69
687.55	15953.09
687.69	16093.52
687.82	15913.30
687.96	16121.61
688.10	16102.89
688.23	15894.58
688.37	15777.55
688.50	15917.98
688.64	15620.74
688.78	15822.02
688.91	15815.00
689.05	15269.66
689.18	15625.42
689.32	15213.48
689.46	15243.91
689.59	15248.59
689.73	15201.78
689.86	15335.19
690.00	14841.34
690.13	15112.84
690.27	15082.41
690.41	15131.56
690.54	15288.38
690.68	14721.97
690.81	14934.96
690.95	14780.48
691.08	14836.66
691.22	14925.60
691.35	14721.97
691.49	14668.14
691.62	14614.30
691.76	14516.00
691.89	14464.51
692.03	14244.50
692.16	14075.98
692.30	14230.46
692.43	13858.31
692.57	14057.26
692.70	14183.65
692.84	14092.37
692.97	13858.31
693.11	14001.08
693.24	13954.27
693.38	13891.08
693.51	14029.17
693.65	13837.25
693.78	13750.65
693.92	13818.52
694.05	13668.73
694.19	13429.99
694.32	13455.74
694.45	13214.66
694.59	13324.67
694.72	13109.34
694.86	13235.73
694.99	13060.19
695.13	12940.82
695.26	13109.34
695.39	12924.44
695.53	12889.33
695.66	13142.11
695.80	13004.02
695.93	12723.15
696.07	12954.87
696.20	12805.07
696.33	12734.85
696.47	12807.41
696.60	12727.83
696.73	12564.00
696.87	12872.95
697.00	12608.47
697.14	12521.87
697.27	12311.22
697.40	12273.77
697.54	12107.59
697.67	12346.33
697.80	12306.54
697.94	12226.96
698.07	11903.96
698.21	12091.21
698.34	11985.88
698.47	12159.08
698.61	11920.35
698.74	12102.91
698.87	12013.97
699.01	11927.37
699.14	11627.78
699.27	11602.04
699.40	11625.44
699.54	11438.20
699.67	11541.18
699.80	11250.96
699.94	11265.00
700.07	11307.13
700.20	11152.65
700.34	11126.91
700.47	10820.30
700.60	11136.27
700.73	11260.32
700.87	11105.84
701.00	11080.10
701.13	11040.31
701.26	11117.54
701.40	11110.52
701.53	11101.16
701.66	10839.02
701.79	10523.05
701.93	10750.08
702.06	10810.93
702.19	10429.43
702.32	10396.66
702.46	10492.62
702.59	10595.61
702.72	10394.32
702.85	10232.82
702.99	10331.12
703.12	10167.29
703.25	10092.39
703.38	10328.78
703.51	10090.05
703.65	10284.31
703.78	9980.04
703.91	10127.50
704.04	10036.22
704.17	10029.20
704.31	10083.03
704.44	9813.87
704.57	9996.43
704.70	9769.40
704.83	9448.74
704.96	9696.84
705.10	9575.13
705.23	9643.01
>>>>>End Processed Spectral Data<<<<<
