SpectraSuite Data File
++++++++++++++++++++++++++++++++++++
Date: Fri Oct 18 13:58:09 GMT-05:00 2013
User: bianchi
Dark Spectrum Present: No
Reference Spectrum Present: No
Number of Sampled Component Spectra: 1
Spectrometers: USB2+H05261
Integration Time (usec): 50000 (USB2+H05261)
Spectra Averaged: 1 (USB2+H05261)
Boxcar Smoothing: 0 (USB2+H05261)
Correct for Electrical Dark: No (USB2+H05261)
Strobe/Lamp Enabled: No (USB2+H05261)
Correct for Detector Non-linearity: No (USB2+H05261)
Correct for Stray Light: No (USB2+H05261)
Number of Pixels in Processed Spectrum: 2048
>>>>>Begin Processed Spectral Data<<<<<
365.73	0.00
365.92	0.00
366.12	0.00
366.32	0.00
366.52	0.00
366.72	0.00
366.91	0.00
367.11	0.00
367.31	0.00
367.51	0.00
367.70	0.00
367.90	0.00
368.10	0.00
368.30	0.00
368.49	0.00
368.69	0.00
368.89	0.00
369.09	0.00
369.28	0.00
369.48	0.00
369.68	0.00
369.87	0.00
370.07	0.00
370.27	0.00
370.47	0.00
370.66	142.77
370.86	140.43
371.06	105.32
371.25	121.71
371.45	105.32
371.65	145.11
371.84	124.05
372.04	117.03
372.24	210.65
372.44	177.88
372.63	114.69
372.83	147.45
373.03	170.86
373.22	156.82
373.42	224.69
373.62	248.10
373.81	208.31
374.01	322.99
374.21	248.10
374.40	229.37
374.60	299.59
374.79	201.29
374.99	208.31
375.19	252.78
375.38	205.97
375.58	241.08
375.78	266.82
375.97	271.50
376.17	311.29
376.37	341.72
376.56	241.08
376.76	220.01
376.95	337.04
377.15	241.08
377.35	311.29
377.54	315.97
377.74	292.57
377.93	297.25
378.13	334.70
378.33	327.68
378.52	285.55
378.72	276.18
378.91	320.65
379.11	269.16
379.31	294.91
379.50	313.63
379.70	276.18
379.89	407.25
380.09	280.86
380.28	330.02
380.48	271.50
380.68	271.50
380.87	318.31
381.07	334.70
381.26	383.85
381.46	304.27
381.65	386.19
381.85	395.55
382.04	308.95
382.24	325.33
382.43	311.29
382.63	285.55
382.83	355.76
383.02	409.59
383.22	404.91
383.41	418.96
383.61	280.86
383.80	339.38
384.00	341.72
384.19	383.85
384.39	397.89
384.58	344.06
384.78	388.53
384.97	330.02
385.17	372.15
385.36	400.23
385.56	362.78
385.75	365.12
385.95	470.45
386.14	430.66
386.34	435.34
386.53	365.12
386.72	388.53
386.92	411.93
387.11	475.13
387.31	465.77
387.50	472.79
387.70	461.09
387.89	472.79
388.09	449.38
388.28	472.79
388.48	374.49
388.67	435.34
388.86	428.32
389.06	531.30
389.25	430.66
389.45	444.70
389.64	540.66
389.84	557.05
390.03	458.74
390.22	507.90
390.42	486.83
390.61	505.56
390.81	437.68
391.00	491.51
391.19	554.71
391.39	538.32
391.58	526.62
391.78	510.24
391.97	547.69
392.16	538.32
392.36	535.98
392.55	592.16
392.75	582.79
392.94	657.69
393.13	524.28
393.33	512.58
393.52	603.86
393.71	514.92
393.91	601.52
394.10	631.94
394.29	585.13
394.49	582.79
394.68	645.99
394.88	517.26
395.07	622.58
395.26	587.47
395.46	601.52
395.65	645.99
395.84	650.67
396.04	643.65
396.23	573.43
396.42	613.22
396.62	615.56
396.81	585.13
397.00	688.12
397.19	765.36
397.39	746.63
397.58	681.10
397.77	643.65
397.97	734.93
398.16	723.23
398.35	681.10
398.55	744.29
398.74	753.65
398.93	798.12
399.12	713.86
399.32	732.59
399.51	638.97
399.70	826.21
399.90	798.12
400.09	770.04
400.28	774.72
400.47	737.27
400.67	858.98
400.86	819.19
401.05	837.91
401.24	802.80
401.44	847.27
401.63	889.40
401.82	861.32
402.01	744.29
402.21	833.23
402.40	858.98
402.59	781.74
402.78	842.59
402.97	781.74
403.17	898.77
403.36	940.90
403.55	861.32
403.74	861.32
403.93	964.30
404.13	922.17
404.32	868.34
404.51	943.24
404.70	919.83
404.89	938.55
405.09	954.94
405.28	990.05
405.47	931.53
405.66	973.66
405.85	971.32
406.05	983.02
406.24	978.34
406.43	985.37
406.62	971.32
406.81	1041.54
407.00	1043.88
407.20	1071.97
407.39	1081.33
407.58	1062.60
407.77	1057.92
407.96	1083.67
408.15	1109.41
408.34	1102.39
408.54	1083.67
408.73	1170.27
408.92	1191.33
409.11	1158.57
409.30	1114.10
409.49	1198.35
409.68	1212.40
409.87	1207.72
410.07	1256.87
410.26	1116.44
410.45	1252.19
410.64	1224.10
410.83	1301.34
411.02	1315.38
411.21	1245.16
411.40	1184.31
411.59	1371.55
411.78	1355.17
411.98	1324.74
412.17	1266.23
412.36	1320.06
412.55	1277.93
412.74	1397.30
412.93	1322.40
413.12	1343.47
413.31	1409.00
413.50	1444.11
413.69	1521.35
413.88	1460.49
414.07	1451.13
414.26	1516.67
414.45	1589.22
414.64	1544.75
414.83	1638.38
415.02	1507.30
415.22	1605.61
415.41	1626.67
415.60	1617.31
415.79	1652.42
415.98	1631.35
416.17	1591.56
416.36	1680.50
416.55	1689.87
416.74	1713.27
416.93	1795.19
417.12	1708.59
417.31	1659.44
417.50	1701.57
417.69	1774.13
417.88	1771.79
418.07	1820.94
418.26	1734.34
418.45	1802.21
418.64	1907.54
418.83	1860.73
419.02	1802.21
419.21	1827.96
419.39	1952.01
419.58	1863.07
419.77	1853.70
419.96	1785.83
420.15	1952.01
420.34	1942.64
420.53	1884.13
420.72	1980.09
420.91	1898.17
421.10	2045.63
421.29	2026.90
421.48	1921.58
421.67	1966.05
421.86	2022.22
422.05	1970.73
422.24	1991.80
422.43	2069.03
422.61	1996.48
422.80	1944.99
422.99	2038.61
423.18	1987.11
423.37	2069.03
423.56	2029.24
423.75	2069.03
423.94	2029.24
424.13	1930.94
424.32	1872.43
424.50	1991.80
424.69	2073.71
424.88	2136.91
425.07	1914.56
425.26	2026.90
425.45	1994.14
425.64	1944.99
425.83	1973.07
426.01	2085.42
426.20	2207.13
426.39	2031.58
426.58	2015.20
426.77	2125.21
426.96	2176.70
427.15	2190.74
427.33	2066.69
427.52	2146.27
427.71	2181.38
427.90	2179.04
428.09	2225.85
428.28	2282.02
428.46	2408.41
428.65	2305.43
428.84	2232.87
429.03	2298.41
429.22	2286.70
429.40	2354.58
429.59	2335.85
429.78	2167.34
429.97	2272.66
430.16	2218.83
430.34	2352.24
430.53	2422.45
430.72	2230.53
430.91	2331.17
431.10	2408.41
431.28	2335.85
431.47	2267.98
431.66	2492.67
431.85	2385.01
432.03	2534.80
432.22	2441.18
432.41	2377.98
432.60	2499.69
432.79	2410.75
432.97	2558.21
433.16	2588.63
433.35	2499.69
433.54	2464.58
433.72	2499.69
433.91	2483.31
434.10	2487.99
434.28	2539.48
434.47	2654.17
434.66	2597.99
434.85	2553.52
435.03	2626.08
435.22	2562.89
435.41	2750.13
435.59	2665.87
435.78	2736.09
435.97	2794.60
436.16	2708.00
436.34	2738.43
436.53	2644.81
436.72	2693.96
436.90	2719.70
437.09	2836.73
437.28	2810.98
437.46	2736.09
437.65	2757.15
437.84	2780.56
438.02	2766.51
438.21	2864.82
438.40	2864.82
438.58	2918.65
438.77	2920.99
438.96	2869.50
439.14	2986.52
439.33	3117.59
439.52	2867.16
439.70	3094.19
439.89	3173.77
440.08	3162.06
440.26	3002.91
440.45	3066.10
440.63	3157.38
440.82	3295.47
441.01	3122.27
441.19	3185.47
441.38	3295.47
441.57	3215.90
441.75	3262.71
441.94	3183.13
442.12	3255.69
442.31	3393.78
442.50	3400.80
442.68	3487.40
442.87	3304.84
443.05	3426.54
443.24	3506.12
443.43	3445.27
443.61	3508.46
443.80	3674.64
443.98	3382.07
444.17	3197.17
444.35	3602.08
444.54	3506.12
444.73	3501.44
444.91	3517.83
445.10	3485.06
445.28	3391.44
445.47	3480.38
445.65	3524.85
445.84	3698.05
446.02	3602.08
446.21	3508.46
446.39	3492.08
446.58	3599.74
446.77	3501.44
446.95	3407.82
447.14	3492.08
447.32	3648.90
447.51	3609.11
447.69	3569.32
447.88	3611.45
448.06	3613.79
448.25	3538.89
448.43	3576.34
448.62	3538.89
448.80	3630.17
448.99	3695.71
449.17	3646.55
449.36	3609.11
449.54	3751.88
449.73	3808.05
449.91	3847.84
450.10	3810.39
450.28	3728.47
450.46	3894.65
450.65	3665.28
450.83	3836.14
451.02	3723.79
451.20	3934.44
451.39	3782.31
451.57	3798.69
451.76	3964.87
451.94	3817.41
452.13	3918.06
452.31	3943.80
452.49	3833.80
452.68	3786.99
452.86	3880.61
453.05	4114.66
453.23	4119.34
453.42	4009.34
453.60	3997.64
453.78	4044.45
453.97	3988.27
454.15	3960.19
454.34	3936.78
454.52	4051.47
454.70	4060.83
454.89	4173.18
455.07	4222.33
455.26	4058.49
455.44	4077.21
455.62	4030.40
455.81	4257.43
455.99	4161.47
456.17	4168.49
456.36	4264.46
456.54	4292.54
456.73	4367.44
456.91	4297.22
457.09	4381.48
457.28	4404.89
457.46	4344.03
457.64	4318.29
457.83	4479.79
458.01	4360.42
458.19	4470.42
458.38	4526.60
458.56	4571.07
458.74	4521.92
458.93	4416.59
459.11	4526.60
459.29	4444.68
459.48	4669.37
459.66	4547.66
459.84	4652.98
460.03	4657.67
460.21	4671.71
460.39	4559.36
460.57	4613.20
460.76	4573.41
460.94	4753.63
461.12	4798.10
461.31	4678.73
461.49	4671.71
461.67	4737.24
461.85	4835.55
462.04	4716.18
462.22	5020.45
462.40	4868.31
462.59	4772.35
462.77	4819.16
462.95	4933.85
463.13	4755.97
463.32	4957.25
463.50	4905.76
463.68	4828.53
463.86	4837.89
464.05	4835.55
464.23	4945.55
464.41	4950.23
464.59	4929.17
464.78	5050.88
464.96	5006.41
465.14	4952.57
465.32	5104.71
465.50	5118.75
465.69	5116.41
465.87	5100.03
466.05	5177.26
466.23	5018.11
466.41	5156.20
466.60	5329.40
466.78	5205.35
466.96	5102.37
467.14	5062.58
467.32	5174.92
467.51	5448.77
467.69	5167.90
467.87	5268.55
468.05	5160.88
468.23	5231.10
468.41	5132.79
468.60	4994.70
468.78	5373.87
468.96	5313.02
469.14	5392.59
469.32	5460.47
469.50	5331.74
469.69	5586.86
469.87	5408.98
470.05	5359.83
470.23	5518.98
470.41	5275.57
470.59	5598.56
470.77	5598.56
470.95	5430.04
471.14	5488.56
471.32	5579.84
471.50	5495.58
471.68	5682.82
471.86	5762.40
472.04	5820.91
472.22	5659.42
472.40	5809.21
472.58	5722.61
472.77	5825.59
472.95	5879.43
473.13	6141.57
473.31	5881.77
473.49	5996.45
473.67	5959.00
473.85	5893.47
474.03	6146.25
474.21	6143.91
474.39	6085.39
474.57	6356.90
474.75	6080.71
474.93	6237.53
475.12	6127.52
475.30	6249.23
475.48	6361.58
475.66	6389.66
475.84	6483.28
476.02	6394.34
476.20	6539.46
476.38	6595.63
476.56	6719.68
476.74	6527.75
476.92	6726.70
477.10	6729.04
477.28	6579.25
477.46	6476.26
477.64	6899.90
477.82	6897.56
478.00	7227.57
478.18	6984.16
478.36	6998.20
478.54	7194.81
478.72	6965.43
478.90	7194.81
479.08	7515.46
479.26	7485.03
479.44	7641.85
479.62	7332.90
479.80	7660.57
479.98	7545.89
480.16	7733.13
480.34	7463.97
480.52	7749.51
480.70	7742.49
480.88	7822.07
481.06	7796.32
481.24	7691.00
481.41	8163.79
481.59	8030.38
481.77	8273.79
481.95	8203.58
482.13	8224.64
482.31	8285.50
482.49	8512.53
482.67	8409.54
482.85	8498.49
483.03	8816.80
483.21	8608.49
483.39	8699.77
483.57	8746.58
483.74	8919.78
483.92	8908.08
484.10	8870.63
484.28	9039.15
484.46	9198.31
484.64	9224.05
484.82	9217.03
485.00	9327.03
485.18	9451.08
485.35	9355.12
485.53	9425.34
485.71	9664.07
485.89	9696.84
486.07	9825.57
486.25	9776.42
486.43	10024.51
486.61	9991.75
486.78	10251.55
486.96	10090.05
487.14	10260.91
487.32	10071.33
487.50	10202.40
487.68	10525.39
487.85	10633.05
488.03	10871.79
488.21	10611.99
488.39	10658.80
488.57	10944.34
488.75	10984.13
488.92	11152.65
489.10	10984.13
489.28	11173.72
489.46	11419.47
489.64	11344.58
489.81	11693.32
489.99	11599.70
490.17	11665.23
490.35	11789.28
490.53	11838.43
490.70	11726.08
490.88	11903.96
491.06	11969.50
491.24	12028.01
491.41	12105.25
491.59	12025.67
491.77	12109.93
491.95	12486.76
492.13	12430.59
492.30	12505.48
492.48	12599.10
492.66	12615.49
492.84	12613.15
493.01	12877.63
493.19	12791.03
493.37	12720.81
493.54	13179.56
493.72	13097.64
493.90	13064.87
494.08	13465.10
494.25	13317.65
494.43	13511.91
494.61	13549.36
494.79	13818.52
494.96	13474.46
495.14	13455.74
495.32	13870.01
495.49	13837.25
495.67	13984.70
495.85	14057.26
496.02	14150.88
496.20	14169.60
496.38	14312.38
496.55	14272.59
496.73	14457.49
496.91	14504.30
497.09	14462.17
497.26	14644.73
497.44	14544.09
497.62	14764.10
497.79	14651.75
497.97	14995.81
498.14	15023.90
498.32	14960.70
498.50	15178.37
498.67	15227.53
498.85	15037.94
499.03	15377.32
499.20	15328.17
499.38	15545.84
499.56	15442.85
499.73	15407.75
499.91	15770.53
500.08	15807.98
500.26	15707.34
500.44	15777.55
500.61	15822.02
500.79	15964.79
500.97	15948.41
501.14	16243.32
501.32	16224.59
501.49	16287.79
501.67	16411.84
501.84	16077.14
502.02	16177.78
502.20	16273.74
502.37	16360.34
502.55	16641.21
502.72	16397.79
502.90	16828.45
503.07	16545.25
503.25	16678.66
503.43	16720.79
503.60	17104.64
503.78	16957.18
503.95	16929.09
504.13	17057.82
504.30	16844.84
504.48	16849.52
504.65	17179.53
504.83	17205.28
505.01	17343.37
505.18	17153.79
505.36	17720.20
505.53	17514.23
505.71	17472.10
505.88	17640.62
506.06	17596.15
506.23	17460.40
506.41	17724.88
506.58	17619.55
506.76	17832.54
506.93	17860.63
507.11	17769.35
507.28	17963.61
507.46	17944.89
507.63	18221.07
507.81	18221.07
507.98	17965.95
508.16	18157.88
508.33	18143.83
508.50	18209.37
508.68	18171.92
508.85	18609.60
509.03	18284.26
509.20	18764.07
509.38	18951.32
509.55	19124.52
509.73	18693.86
509.90	18691.52
510.08	18483.21
510.25	18541.72
510.42	18773.44
510.60	18895.14
510.77	19384.32
510.95	18721.95
511.12	19171.33
511.30	19073.03
511.47	19309.42
511.64	19255.59
511.82	19669.86
511.99	19569.22
512.17	19396.02
512.34	19398.36
512.51	19655.82
512.69	19723.69
512.86	19576.24
513.04	19756.46
513.21	19829.02
513.38	20030.30
513.56	19915.62
513.73	19822.00
513.90	19644.12
514.08	20009.24
514.25	20147.33
514.43	20042.01
514.60	20245.63
514.77	20156.69
514.95	20294.79
515.12	20245.63
515.29	20049.03
515.47	20444.58
515.64	20355.64
515.81	20617.78
515.99	20348.62
516.16	20945.45
516.33	20957.16
516.51	20795.66
516.68	20739.49
516.85	20716.08
517.03	20816.72
517.20	20926.73
517.37	21062.48
517.54	20790.98
517.72	21177.17
517.89	20685.65
518.06	21195.89
518.24	21280.15
518.41	21319.94
518.58	21317.60
518.75	21228.66
518.93	21095.25
519.10	21654.64
519.27	21441.65
519.45	21504.84
519.62	21422.92
519.79	21900.39
519.96	21678.04
520.14	21701.45
520.31	21570.38
520.48	21668.68
520.65	22031.46
520.83	22061.89
521.00	21825.50
521.17	21825.50
521.34	22026.78
521.52	22485.53
521.69	22146.15
521.86	22010.40
522.03	22258.49
522.20	22450.42
522.38	22230.41
522.55	22375.52
522.72	22380.20
522.89	22511.27
523.07	22630.64
523.24	22597.87
523.41	22167.21
523.58	22373.18
523.75	22508.93
523.92	22361.48
524.10	22766.39
524.27	22815.54
524.44	22647.02
524.61	22930.23
524.78	22960.66
524.96	23103.43
525.13	23101.09
525.30	23084.70
525.47	22979.38
525.64	23058.96
525.81	22958.31
525.98	23215.77
526.16	23463.87
526.33	23105.77
526.50	23475.57
526.67	22923.21
526.84	23417.06
527.01	23386.63
527.18	23501.32
527.36	23428.76
527.53	23594.94
527.70	23896.87
527.87	23903.89
528.04	23697.92
528.21	24137.94
528.38	23592.60
528.55	23740.05
528.72	23864.10
528.89	24161.35
529.07	23885.17
529.24	23810.27
529.41	23962.40
529.58	24301.78
529.75	24137.94
529.92	24240.93
530.09	24325.19
530.26	24098.16
530.43	24159.01
530.60	24166.03
530.77	24095.82
530.94	24577.97
531.11	24460.94
531.28	24049.00
531.46	24388.38
531.63	24599.03
531.80	24549.88
531.97	24779.25
532.14	24662.22
532.31	24587.33
532.48	24732.44
532.65	24561.58
532.82	24416.47
532.99	24952.45
533.16	24599.03
533.33	24671.59
533.50	24971.18
533.67	24968.84
533.84	24982.88
534.01	24886.92
534.18	24725.42
534.35	25303.53
534.52	25020.33
534.69	25390.13
534.86	25509.50
535.03	25214.59
535.20	25025.01
535.37	25319.92
535.54	25235.66
535.71	25282.47
535.88	25415.88
536.05	24940.75
536.22	25624.18
536.38	25458.01
536.55	25532.90
536.72	25663.97
536.89	25268.42
537.06	25556.31
537.23	25841.85
537.40	25401.83
537.57	25425.24
537.74	26075.91
537.91	25682.70
538.08	25816.11
538.25	26024.42
538.42	26043.14
538.59	25893.35
538.75	25582.06
538.92	25699.08
539.09	26185.91
539.26	26260.81
539.43	26195.28
539.60	26225.70
539.77	25820.79
539.94	26099.31
540.11	25956.54
540.28	26206.98
540.44	26146.12
540.61	25996.33
540.78	25951.86
540.95	26574.44
541.12	26291.24
541.29	26085.27
541.46	26396.56
541.62	25970.58
541.79	26621.25
541.96	26094.63
542.13	26373.16
542.30	26527.63
542.47	26824.88
542.63	26749.98
542.80	26565.08
542.97	26902.12
543.14	27463.85
543.31	26965.31
543.48	27047.23
543.64	27201.71
543.81	27250.86
543.98	27182.98
544.15	26967.65
544.32	27080.00
544.48	27021.48
544.65	27063.61
544.82	27213.41
544.99	26796.79
545.16	27267.24
545.32	27260.22
545.49	27587.89
545.66	27569.17
545.83	27527.04
546.00	27435.76
546.16	27232.13
546.33	27091.70
546.50	27505.98
546.67	27164.26
546.83	27175.96
547.00	27651.09
547.17	27185.32
547.34	27548.11
547.50	27559.81
547.67	28053.66
547.84	27707.26
548.00	27779.82
548.17	27784.50
548.34	27910.89
548.51	28196.43
548.67	27978.76
548.84	28184.73
549.01	27894.50
549.18	28271.33
549.34	28084.09
549.51	28081.75
549.68	27934.29
549.84	27751.73
550.01	27718.96
550.18	28058.34
550.34	28140.26
550.51	28395.38
550.68	28350.91
550.84	28173.03
551.01	28004.51
551.18	28016.21
551.34	28343.89
551.51	28247.93
551.68	28292.40
551.84	28496.02
552.01	28203.46
552.18	28332.18
552.34	28137.92
552.51	28538.15
552.68	28531.13
552.84	28533.47
553.01	28540.49
553.18	28374.31
553.34	28687.95
553.51	28503.04
553.67	28816.68
553.84	28723.05
554.01	28865.83
554.17	28519.43
554.34	28739.44
554.51	28917.32
554.67	28617.73
554.84	28673.90
555.00	28854.12
555.17	28800.29
555.33	29263.72
555.50	28795.61
555.67	28809.65
555.83	29181.80
556.00	28748.80
556.16	29287.12
556.33	28849.44
556.50	28968.81
556.66	29317.55
556.83	28554.54
556.99	29434.58
557.16	29441.60
557.32	29067.11
557.49	29099.88
557.65	28882.21
557.82	29242.65
557.98	29020.30
558.15	29429.90
558.32	29340.96
558.48	29280.10
558.65	29177.12
558.81	29549.26
558.98	29209.89
559.14	29090.52
559.31	29111.58
559.47	29205.20
559.64	29259.04
559.80	29326.91
559.97	29652.25
560.13	29408.83
560.30	29113.92
560.46	29160.73
560.63	29551.60
560.79	29577.35
560.96	29682.67
561.12	29383.09
561.29	29546.92
561.45	29476.71
561.61	29862.90
561.78	29998.65
561.94	29825.45
562.11	29818.42
562.27	29380.74
562.44	29453.30
562.60	29668.63
562.77	29839.49
562.93	29366.70
563.10	29928.43
563.26	29696.72
563.42	30045.46
563.59	29584.37
563.75	29809.06
563.92	29809.06
564.08	29666.29
564.24	29441.60
564.41	29474.37
564.57	29717.78
564.74	29727.14
564.90	29467.34
565.07	30281.85
565.23	30000.99
565.39	29993.97
565.56	30040.78
565.72	29640.54
565.88	30038.44
566.05	30024.39
566.21	29832.47
566.38	29860.55
566.54	29905.02
566.70	30146.10
566.87	30256.11
567.03	30656.34
567.19	30305.26
567.36	30209.29
567.52	30099.29
567.68	30256.11
567.85	30064.18
568.01	30019.71
568.17	30054.82
568.34	30075.88
568.50	30132.06
568.66	30251.42
568.83	30382.49
568.99	30359.09
569.15	30199.93
569.32	29975.24
569.48	29956.52
569.64	30223.34
569.81	30279.51
569.97	30405.90
570.13	30300.58
570.30	30064.18
570.46	30328.66
570.62	30075.88
570.78	29954.18
570.95	30235.04
571.11	30338.02
571.27	29975.24
571.43	30228.02
571.60	30256.11
571.76	30113.33
571.92	30277.17
572.09	30431.65
572.25	30366.11
572.41	30307.60
572.57	30501.86
572.74	30752.30
572.90	30160.14
573.06	30118.01
573.22	30305.26
573.38	30113.33
573.55	30590.80
573.71	30373.13
573.87	30539.31
574.03	30312.28
574.20	30377.81
574.36	30188.23
574.52	30384.83
574.68	30525.27
574.84	30813.15
575.01	30202.27
575.17	30560.37
575.33	30480.80
575.49	30321.64
575.65	30632.93
575.82	30646.97
575.98	30567.40
576.14	30366.11
576.30	29968.22
576.46	30464.41
576.62	30345.05
576.79	30403.56
576.95	30504.20
577.11	30338.02
577.27	30373.13
577.43	30705.49
577.59	30478.46
577.75	30256.11
577.92	30265.47
578.08	30429.30
578.24	30270.15
578.40	30630.59
578.56	30522.93
578.72	30532.29
578.88	30717.19
579.04	30457.39
579.21	30368.45
579.37	30859.96
579.53	30696.13
579.69	30455.05
579.85	30829.54
580.01	30904.43
580.17	30354.41
580.33	30576.76
580.49	30558.03
580.65	30658.68
580.82	30609.53
580.98	30733.57
581.14	30576.76
581.30	30738.26
581.46	30885.71
581.62	30623.57
581.78	30527.61
581.94	30459.73
582.10	30675.06
582.26	30534.63
582.42	30712.51
582.58	31051.89
582.74	30696.13
582.90	30986.35
583.06	30508.88
583.22	30946.56
583.38	30752.30
583.54	30764.00
583.70	30684.42
583.86	30714.85
584.02	30490.16
584.18	30838.90
584.34	30925.50
584.50	30677.40
584.66	30551.01
584.82	30349.73
584.98	30553.35
585.14	30785.07
585.30	30691.44
585.46	30576.76
585.62	30230.36
585.78	30920.82
585.94	30590.80
586.10	30738.26
586.26	30955.93
586.42	30923.16
586.58	30838.90
586.74	30813.15
586.90	31094.02
587.06	30562.72
587.22	30838.90
587.38	30639.95
587.54	30651.66
587.70	30874.01
587.86	31187.64
588.02	31089.34
588.18	31119.76
588.34	30857.62
588.49	30679.74
588.65	30890.39
588.81	30637.61
588.97	31204.02
589.13	30717.19
589.29	31030.82
589.45	31000.40
589.61	30787.41
589.77	30993.37
589.93	30998.06
590.08	31119.76
590.24	31377.22
590.40	31082.31
590.56	31412.33
590.72	31000.40
590.88	31260.20
591.04	31049.55
591.20	31058.91
591.35	31089.34
591.51	31529.36
591.67	31400.63
591.83	31679.15
591.99	31374.88
592.15	31449.78
592.31	31035.50
592.46	30923.16
592.62	30944.22
592.78	31220.41
592.94	31314.03
593.10	31079.97
593.26	31480.21
593.41	31402.97
593.57	30764.00
593.73	30916.14
593.89	31555.10
594.05	31255.51
594.20	31075.29
594.36	31445.10
594.52	31009.76
594.68	30691.44
594.84	31236.79
594.99	31199.34
595.15	31094.02
595.31	31487.23
595.47	31101.04
595.62	31412.33
595.78	31206.36
595.94	31381.90
596.10	31468.50
596.25	31204.02
596.41	31381.90
596.57	30995.71
596.73	31344.45
596.88	31213.38
597.04	31665.11
597.20	31627.66
597.36	31545.74
597.51	31335.09
597.67	31386.58
597.83	31241.47
597.99	31299.98
598.14	31328.07
598.30	31005.08
598.46	31068.27
598.61	31126.78
598.77	31166.57
598.93	31681.49
599.09	31288.28
599.24	31709.58
599.40	31484.89
599.56	31630.00
599.71	31651.06
599.87	31798.52
600.03	31435.74
600.18	31281.26
600.34	31000.40
600.50	31576.17
600.65	30902.09
600.81	31402.97
600.97	31630.00
601.12	31878.10
601.28	31814.90
601.44	31592.55
601.59	31599.57
601.75	31433.39
601.91	31393.61
602.06	31534.04
602.22	31686.17
602.37	31491.91
602.53	31367.86
602.69	31431.05
602.84	31435.74
603.00	31634.68
603.16	31316.37
603.31	31571.49
603.47	31550.42
603.62	31269.56
603.78	31454.46
603.94	31529.36
604.09	31091.68
604.25	31409.99
604.40	31510.63
604.56	31548.08
604.71	31831.29
604.87	31498.93
605.03	31503.61
605.18	31812.56
605.34	31452.12
605.49	31262.54
605.65	31304.67
605.80	31309.35
605.96	31161.89
606.12	31562.12
606.27	31131.47
606.43	31225.09
606.58	31571.49
606.74	31421.69
606.89	31321.05
607.05	31365.52
607.20	31637.02
607.36	31250.83
607.51	31377.22
607.67	31058.91
607.82	31346.79
607.98	31014.44
608.13	31192.32
608.29	31147.85
608.44	31063.59
608.60	31145.51
608.75	31395.95
608.91	31129.12
609.06	31391.26
609.22	31477.86
609.37	30869.33
609.53	31009.76
609.68	31302.32
609.84	30972.31
609.99	31349.14
610.15	31318.71
610.30	31243.81
610.46	31175.94
610.61	31414.67
610.76	31278.92
610.92	31075.29
611.07	31068.27
611.23	30775.70
611.38	30911.46
611.54	30712.51
611.69	31007.42
611.84	30675.06
612.00	31189.98
612.15	30871.67
612.31	31555.10
612.46	30911.46
612.62	30883.37
612.77	30686.76
612.92	30876.35
613.08	30817.83
613.23	31143.17
613.39	30892.73
613.54	30338.02
613.69	30663.36
613.85	30930.18
614.00	30778.04
614.15	30960.61
614.31	30808.47
614.46	31440.42
614.62	30738.26
614.77	30810.81
614.92	30668.04
615.08	30738.26
615.23	30806.13
615.38	30693.79
615.54	30625.91
615.69	30263.13
615.84	30764.00
616.00	30923.16
616.15	30403.56
616.30	30628.25
616.46	30286.53
616.61	30462.07
616.76	30700.81
616.92	30621.23
617.07	30691.44
617.22	30583.78
617.37	30831.88
617.53	30668.04
617.68	30291.21
617.83	30265.47
617.99	30125.04
618.14	30450.37
618.29	30670.38
618.45	30459.73
618.60	30429.30
618.75	30389.52
618.90	30497.18
619.06	30721.87
619.21	30384.83
619.36	30511.22
619.51	30134.40
619.67	29984.60
619.82	30225.68
619.97	30024.39
620.12	30052.48
620.28	30132.06
620.43	30359.09
620.58	30494.84
620.73	30473.78
620.89	30373.13
621.04	30080.56
621.19	30665.70
621.34	30134.40
621.49	29511.81
621.65	30015.03
621.80	30267.81
621.95	29626.50
622.10	30335.68
622.25	30174.19
622.41	30160.14
622.56	29500.11
622.71	30057.16
622.86	30216.32
623.01	30094.61
623.16	29696.72
623.32	29589.05
623.47	29713.10
623.62	29872.26
623.77	29677.99
623.92	29713.10
624.07	29614.80
624.23	29462.66
624.38	29759.91
624.53	29481.39
624.68	29965.88
624.83	29804.38
624.98	29783.32
625.13	29724.80
625.29	30040.78
625.44	29956.52
625.59	29584.37
625.74	29706.08
625.89	29462.66
626.04	29355.00
626.19	29507.13
626.34	29869.92
626.49	29237.97
626.65	29511.81
626.80	29511.81
626.95	29249.67
627.10	29532.88
627.25	29502.45
627.40	29472.03
627.55	29376.06
627.70	29266.06
627.85	28914.98
628.00	29619.48
628.15	28968.81
628.30	29450.96
628.45	28999.24
628.60	29212.23
628.76	29322.23
628.91	29172.44
629.06	29333.93
629.21	29441.60
629.36	29397.13
629.51	29102.22
629.66	29415.85
629.81	29275.42
629.96	29106.90
630.11	28709.01
630.26	28816.68
630.41	29046.05
630.56	28999.24
630.71	28992.22
630.86	29172.44
631.01	28861.15
631.16	28898.59
631.31	29095.20
631.46	28772.21
631.61	28725.39
631.76	29104.56
631.91	28606.03
632.06	28538.15
632.21	28762.84
632.36	28849.44
632.51	28472.62
632.66	28723.05
632.81	28802.63
632.96	28711.35
633.10	28514.75
633.25	28858.81
633.40	28854.12
633.55	28980.51
633.70	28584.96
633.85	28570.92
634.00	28793.27
634.15	28491.34
634.30	28629.43
634.45	28669.22
634.60	28308.78
634.75	28772.21
634.90	28388.36
635.05	28903.28
635.19	28734.76
635.34	28772.21
635.49	28577.94
635.64	28779.23
635.79	28268.99
635.94	28030.26
636.09	28732.42
636.24	28322.82
636.39	28161.33
636.53	28306.44
636.68	27971.74
636.83	28294.74
636.98	28357.93
637.13	28580.28
637.28	28620.07
637.43	28512.41
637.57	28268.99
637.72	27901.53
637.87	27828.97
638.02	28467.94
638.17	27889.82
638.32	28163.67
638.46	27957.70
638.61	27688.54
638.76	27733.01
638.91	27765.78
639.06	27892.16
639.20	28308.78
639.35	27917.91
639.50	27873.44
639.65	28514.75
639.80	28084.09
639.94	28137.92
640.09	28163.67
640.24	27821.95
640.39	27833.65
640.54	27859.40
640.68	27030.85
640.83	27953.02
640.98	27601.94
641.13	27033.19
641.27	28311.12
641.42	27796.20
641.57	27868.76
641.72	27857.06
641.86	27676.83
642.01	27332.78
642.16	27585.55
642.31	27784.50
642.45	27344.48
642.60	27515.34
642.75	27023.83
642.90	27414.69
643.04	27330.44
643.19	27339.80
643.34	27253.20
643.48	27550.45
643.63	27826.63
643.78	27218.09
643.93	27290.65
644.07	27796.20
644.22	27489.59
644.37	27215.75
644.51	27709.60
644.66	27236.81
644.81	27199.37
644.95	27538.74
645.10	27501.29
645.25	27204.05
645.39	27178.30
645.54	27431.08
645.69	27477.89
645.83	26944.25
645.98	27295.33
646.13	27417.04
646.27	27733.01
646.42	26773.39
646.57	26932.54
646.71	26705.51
646.86	27080.00
647.00	27400.65
647.15	27325.75
647.30	26796.79
647.44	26649.34
647.59	26974.67
647.74	26974.67
647.88	26902.12
648.03	27108.08
648.17	27288.31
648.32	27482.57
648.47	27384.27
648.61	27030.85
648.76	27091.70
648.90	27182.98
649.05	27197.02
649.20	26916.16
649.34	26623.59
649.49	26558.06
649.63	26359.11
649.78	26691.47
649.92	26654.02
650.07	26810.84
650.21	26871.69
650.36	26541.68
650.51	26331.03
650.65	26740.62
650.80	26845.94
650.94	26548.70
651.09	26539.33
651.23	26567.42
651.38	26682.11
651.52	26609.55
651.67	26616.57
651.81	26366.13
651.96	26342.73
652.10	26625.93
652.25	26761.69
652.39	26628.27
652.54	26611.89
652.68	26534.65
652.83	26962.97
652.97	26745.30
653.12	26782.75
653.26	26677.43
653.41	26494.86
653.55	26497.20
653.70	26370.82
653.84	26302.94
653.99	26223.36
654.13	26455.08
654.27	26391.88
654.42	26057.18
654.56	26363.79
654.71	26036.12
654.85	25949.52
655.00	26167.19
655.14	26436.35
655.29	26089.95
655.43	26445.71
655.57	26143.78
655.72	26298.26
655.86	25940.16
656.01	26480.82
656.15	26192.94
656.30	26017.40
656.44	26078.25
656.58	26040.80
656.73	26115.70
656.87	25989.31
657.01	26078.25
657.16	26148.46
657.30	26209.32
657.45	26099.31
657.59	26223.36
657.73	25940.16
657.88	25930.80
658.02	25785.68
658.16	25823.13
658.31	25771.64
658.45	25553.97
658.60	25385.45
658.74	25731.85
658.88	25820.79
659.03	25619.50
659.17	25568.01
659.31	25544.61
659.46	25348.00
659.60	25722.49
659.74	25729.51
659.89	25394.81
660.03	25593.76
660.17	25069.48
660.32	25266.08
660.46	25441.62
660.60	25315.23
660.74	25275.45
660.89	25303.53
661.03	24879.89
661.17	25542.27
661.32	25560.99
661.46	25458.01
661.60	24734.78
661.74	25296.51
661.89	25324.60
662.03	25591.42
662.17	24765.21
662.31	24985.22
662.46	25308.21
662.60	24898.62
662.74	24732.44
662.88	24732.44
663.03	24613.07
663.17	24432.85
663.31	24547.54
663.45	24734.78
663.60	24814.36
663.74	24510.09
663.88	24781.59
664.02	24657.54
664.17	24739.46
664.31	24631.80
664.45	24444.56
664.59	24388.38
664.73	24505.41
664.88	24467.96
665.02	24215.18
665.16	24240.93
665.30	23939.00
665.44	24250.29
665.59	24285.40
665.73	24112.20
665.87	23587.92
666.01	24144.97
666.15	24250.29
666.29	24210.50
666.44	24114.54
666.58	23990.49
666.72	24053.69
666.86	23990.49
667.00	23903.89
667.14	23896.87
667.28	23906.23
667.43	24254.97
667.57	23754.10
667.71	23779.84
667.85	23695.58
667.99	23407.70
668.13	23414.72
668.27	23524.72
668.41	23843.04
668.56	23480.25
668.70	23468.55
668.84	23627.71
668.98	23578.56
669.12	23412.38
669.26	23351.52
669.40	23295.35
669.54	23096.41
669.68	23311.74
669.82	23103.43
669.96	23522.38
670.10	23197.05
670.25	23030.87
670.39	23112.79
670.53	22803.84
670.67	22735.96
670.81	22937.25
670.95	22848.31
671.09	23161.94
671.23	22808.52
671.37	22775.75
671.51	22939.59
671.65	22941.93
671.79	22740.64
671.93	22885.76
672.07	22974.70
672.21	22579.15
672.35	22394.25
672.49	22637.66
672.63	22607.23
672.77	22244.45
672.91	22335.73
673.05	22340.41
673.19	22293.60
673.33	22499.57
673.47	22073.59
673.61	22302.96
673.75	22352.12
673.89	22185.94
674.03	22174.24
674.17	21916.78
674.31	22176.58
674.45	22225.73
674.59	21799.75
674.73	21844.22
674.87	22097.00
675.01	21855.92
675.15	21750.60
675.29	21446.33
675.43	21212.28
675.56	21813.79
675.70	21879.33
675.84	21366.75
675.98	21055.46
676.12	21778.68
676.26	21305.90
676.40	21240.36
676.54	21359.73
676.68	20968.86
676.82	20779.28
676.96	21256.75
677.10	21238.02
677.23	20751.19
677.37	20830.77
677.51	20898.64
677.65	20615.44
677.79	20795.66
677.93	20568.63
678.07	20369.68
678.21	20421.17
678.34	20547.56
678.48	20428.20
678.62	20592.03
678.76	20327.55
678.90	20236.27
679.04	20142.65
679.18	20278.40
679.31	19976.47
679.45	19592.62
679.59	19730.72
679.73	19693.27
679.87	19391.34
680.00	19562.20
680.14	19583.26
680.28	19765.82
680.42	19538.79
680.56	19864.13
680.70	19529.43
680.83	19693.27
680.97	19580.92
681.11	19199.41
681.25	19618.37
681.39	19578.58
681.52	19021.53
681.66	19161.97
681.80	19061.32
681.94	19143.24
682.07	19250.91
682.21	18890.46
682.35	18897.49
682.49	18677.48
682.62	18677.48
682.76	18539.38
682.90	18853.02
683.04	18457.46
683.17	18925.57
683.31	18984.09
683.45	18726.63
683.59	18534.70
683.72	18466.83
683.86	18518.32
684.00	18153.20
684.13	18040.85
684.27	17900.42
684.41	18017.44
684.55	17844.24
684.68	17785.73
684.82	17708.49
684.96	17694.45
685.09	17832.54
685.23	17542.32
685.37	17467.42
685.50	17633.60
685.64	17703.81
685.78	17860.63
685.91	17589.13
686.05	17516.57
686.19	17474.44
686.32	17446.35
686.46	17259.11
686.60	17256.77
686.73	16985.27
686.87	16950.16
687.01	16697.38
687.14	16861.22
687.28	16748.87
687.42	16924.41
687.55	16695.04
687.69	17057.82
687.82	16498.44
687.96	16547.59
688.10	16610.78
688.23	16442.26
688.37	16313.53
688.50	16465.67
688.64	16332.26
688.78	16472.69
688.91	15992.88
689.05	16229.27
689.18	16332.26
689.32	16088.84
689.46	15744.78
689.59	15915.64
689.73	16011.60
689.86	15915.64
690.00	15571.58
690.13	15784.57
690.27	15847.77
690.41	15550.52
690.54	15798.62
690.68	15583.29
690.81	15690.95
690.95	15730.74
691.08	15686.27
691.22	15550.52
691.35	15204.12
691.49	15346.89
691.62	15337.53
691.76	15150.29
691.89	15222.84
692.03	14733.67
692.16	14843.68
692.30	14995.81
692.43	14988.79
692.57	14726.65
692.70	14733.67
692.84	14808.57
692.97	14579.20
693.11	14377.91
693.24	14576.86
693.38	14396.64
693.51	14523.02
693.65	14518.34
693.78	14066.62
693.92	14157.90
694.05	14190.67
694.19	14321.74
694.32	14141.52
694.45	13832.57
694.59	13785.76
694.72	13565.74
694.86	13603.19
694.99	13617.24
695.13	13795.12
695.26	13640.64
695.39	13600.85
695.53	13628.94
695.66	13774.05
695.80	13490.85
695.93	13518.93
696.07	13434.68
696.20	13535.32
696.33	13596.17
696.47	13284.88
696.60	13214.66
696.73	12959.55
696.87	13240.41
697.00	13076.57
697.14	12758.26
697.27	12870.61
697.40	12638.89
697.54	12779.32
697.67	12624.85
697.80	12559.31
697.94	12547.61
698.07	12491.44
698.21	12470.37
698.34	12453.99
698.47	12589.74
698.61	12294.83
698.74	12353.35
698.87	12386.12
699.01	12262.07
699.14	12285.47
699.27	12294.83
699.40	12278.45
699.54	11941.41
699.67	11988.22
699.80	12079.50
699.94	11906.31
700.07	11925.03
700.20	11737.79
700.34	11733.11
700.47	11899.28
700.60	11529.48
700.73	11859.49
700.87	11595.01
701.00	11686.29
701.13	11639.48
701.26	11538.84
701.40	11391.39
701.53	11375.00
701.66	11335.21
701.79	11337.56
701.93	11204.14
702.06	11073.07
702.19	11187.76
702.32	11000.52
702.46	10895.19
702.59	10780.51
702.72	10977.11
702.85	10696.25
702.99	10853.06
703.12	10548.79
703.25	10808.59
703.38	10654.12
703.51	10743.06
703.65	10509.01
703.78	10534.75
703.91	10607.31
704.04	10340.49
704.17	10782.85
704.31	10546.45
704.44	9975.36
704.57	10094.73
704.70	10347.51
704.83	10209.42
704.96	10218.78
705.10	9881.74
705.23	9940.26
>>>>>End Processed Spectral Data<<<<<
