SpectraSuite Data File
++++++++++++++++++++++++++++++++++++
Date: Fri Oct 18 13:57:55 GMT-05:00 2013
User: bianchi
Dark Spectrum Present: No
Reference Spectrum Present: No
Number of Sampled Component Spectra: 1
Spectrometers: USB2+H05261
Integration Time (usec): 50000 (USB2+H05261)
Spectra Averaged: 1 (USB2+H05261)
Boxcar Smoothing: 0 (USB2+H05261)
Correct for Electrical Dark: No (USB2+H05261)
Strobe/Lamp Enabled: No (USB2+H05261)
Correct for Detector Non-linearity: No (USB2+H05261)
Correct for Stray Light: No (USB2+H05261)
Number of Pixels in Processed Spectrum: 2048
>>>>>Begin Processed Spectral Data<<<<<
365.73	0.00
365.92	0.00
366.12	0.00
366.32	0.00
366.52	0.00
366.72	0.00
366.91	0.00
367.11	0.00
367.31	0.00
367.51	0.00
367.70	0.00
367.90	0.00
368.10	0.00
368.30	0.00
368.49	0.00
368.69	0.00
368.89	0.00
369.09	0.00
369.28	0.00
369.48	0.00
369.68	0.00
369.87	0.00
370.07	0.00
370.27	0.00
370.47	0.00
370.66	74.90
370.86	49.15
371.06	91.28
371.25	95.96
371.45	131.07
371.65	126.39
371.84	184.90
372.04	180.22
372.24	184.90
372.44	212.99
372.63	154.48
372.83	234.05
373.03	194.26
373.22	154.48
373.42	124.05
373.62	166.18
373.81	203.63
374.01	177.88
374.21	362.78
374.40	212.99
374.60	227.03
374.79	285.55
374.99	255.12
375.19	243.42
375.38	395.55
375.58	257.46
375.78	313.63
375.97	259.80
376.17	238.73
376.37	210.65
376.56	271.50
376.76	355.76
376.95	301.93
377.15	220.01
377.35	285.55
377.54	236.39
377.74	245.76
377.93	248.10
378.13	198.95
378.33	285.55
378.52	229.37
378.72	327.68
378.91	325.33
379.11	257.46
379.31	255.12
379.50	304.27
379.70	308.95
379.89	285.55
380.09	259.80
380.28	308.95
380.48	337.04
380.68	294.91
380.87	273.84
381.07	257.46
381.26	414.27
381.46	322.99
381.65	411.93
381.85	294.91
382.04	287.89
382.24	400.23
382.43	315.97
382.63	344.06
382.83	358.10
383.02	404.91
383.22	372.15
383.41	318.31
383.61	414.27
383.80	301.93
384.00	369.80
384.19	428.32
384.39	344.06
384.58	383.85
384.78	390.87
384.97	402.57
385.17	346.40
385.36	381.51
385.56	444.70
385.75	414.27
385.95	409.59
386.14	407.25
386.34	416.62
386.53	407.25
386.72	386.19
386.92	475.13
387.11	547.69
387.31	400.23
387.50	475.13
387.70	454.06
387.89	477.47
388.09	510.24
388.28	475.13
388.48	440.02
388.67	397.89
388.86	421.30
389.06	458.74
389.25	484.49
389.45	498.53
389.64	491.51
389.84	447.04
390.03	484.49
390.22	505.56
390.42	543.00
390.61	468.11
390.81	456.40
391.00	554.71
391.19	571.09
391.39	615.56
391.58	491.51
391.78	552.37
391.97	528.96
392.16	559.39
392.36	606.20
392.55	528.96
392.75	617.90
392.94	526.62
393.13	524.28
393.33	550.03
393.52	554.71
393.71	575.77
393.91	538.32
394.10	592.16
394.29	571.09
394.49	638.97
394.68	589.82
394.88	662.37
395.07	603.86
395.26	610.88
395.46	608.54
395.65	599.18
395.84	645.99
396.04	603.86
396.23	697.48
396.42	669.39
396.62	690.46
396.81	690.46
397.00	702.16
397.19	741.95
397.39	669.39
397.58	737.27
397.77	624.92
397.97	758.33
398.16	636.63
398.35	720.88
398.55	755.99
398.74	758.33
398.93	767.70
399.12	777.06
399.32	788.76
399.51	737.27
399.70	737.27
399.90	812.17
400.09	812.17
400.28	704.50
400.47	727.91
400.67	821.53
400.86	791.10
401.05	798.12
401.24	727.91
401.44	793.44
401.63	894.08
401.82	767.70
402.01	826.21
402.21	751.31
402.40	816.85
402.59	828.55
402.78	795.78
402.97	795.78
403.17	840.25
403.36	908.13
403.55	868.34
403.74	891.74
403.93	795.78
404.13	933.87
404.32	917.49
404.51	915.15
404.70	901.11
404.89	936.21
405.09	1020.47
405.28	1013.45
405.47	940.90
405.66	954.94
405.85	976.00
406.05	978.34
406.24	999.41
406.43	976.00
406.62	1067.28
406.81	1046.22
407.00	1104.73
407.20	1043.88
407.39	1083.67
407.58	1121.12
407.77	1100.05
407.96	1172.61
408.15	1069.62
408.34	1121.12
408.54	1107.07
408.73	1011.11
408.92	1193.67
409.11	1207.72
409.30	1139.84
409.49	1137.50
409.68	1188.99
409.87	1102.39
410.07	1198.35
410.26	1165.59
410.45	1188.99
410.64	1247.51
410.83	1320.06
411.02	1217.08
411.21	1266.23
411.40	1273.25
411.59	1345.81
411.78	1282.61
411.98	1334.11
412.17	1345.81
412.36	1308.36
412.55	1371.55
412.74	1357.51
412.93	1266.23
413.12	1444.11
413.31	1488.58
413.50	1369.21
413.69	1465.18
413.88	1465.18
414.07	1488.58
414.26	1427.73
414.45	1345.81
414.64	1521.35
414.83	1619.65
415.02	1631.35
415.22	1535.39
415.41	1645.40
415.60	1624.33
415.79	1617.31
415.98	1504.96
416.17	1584.54
416.36	1570.50
416.55	1675.82
416.74	1600.93
416.93	1631.35
417.12	1689.87
417.31	1682.85
417.50	1696.89
417.69	1717.95
417.88	1708.59
418.07	1795.19
418.26	1741.36
418.45	1743.70
418.64	1802.21
418.83	1905.20
419.02	1832.64
419.21	1856.04
419.39	1956.69
419.58	1916.90
419.77	1856.04
419.96	1973.07
420.15	2045.63
420.34	1959.03
420.53	1881.79
420.72	1902.86
420.91	1994.14
421.10	1956.69
421.29	2008.18
421.48	1944.99
421.67	2024.56
421.86	1984.77
422.05	2111.16
422.24	1963.71
422.43	2059.67
422.61	1994.14
422.80	2073.71
422.99	2092.44
423.18	2038.61
423.37	2059.67
423.56	2169.68
423.75	2111.16
423.94	2040.95
424.13	1970.73
424.32	1975.41
424.50	2069.03
424.69	2225.85
424.88	2120.53
425.07	2038.61
425.26	2097.12
425.45	1977.75
425.64	2033.93
425.83	2054.99
426.01	2064.35
426.20	2111.16
426.39	2153.29
426.58	2090.10
426.77	2066.69
426.96	2122.87
427.15	2155.63
427.33	2221.17
427.52	2169.68
427.71	2235.21
427.90	2160.31
428.09	2232.87
428.28	2211.81
428.46	2289.04
428.65	2296.07
428.84	2403.73
429.03	2300.75
429.22	2157.97
429.40	2279.68
429.59	2244.57
429.78	2186.06
429.97	2139.25
430.16	2300.75
430.34	2335.85
430.53	2410.75
430.72	2335.85
430.91	2239.89
431.10	2328.83
431.28	2452.88
431.47	2422.45
431.66	2408.41
431.85	2614.38
432.03	2574.59
432.22	2548.84
432.41	2534.80
432.60	2469.27
432.79	2581.61
432.97	2476.29
433.16	2523.10
433.35	2485.65
433.54	2499.69
433.72	2520.76
433.91	2600.34
434.10	2708.00
434.28	2565.23
434.47	2579.27
434.66	2672.89
434.85	2633.10
435.03	2626.08
435.22	2593.31
435.41	2595.65
435.59	2668.21
435.78	2703.32
435.97	2663.53
436.16	2715.02
436.34	2752.47
436.53	2700.98
436.72	2850.77
436.90	2736.09
437.09	2773.53
437.28	2738.43
437.46	2825.03
437.65	2869.50
437.84	2972.48
438.02	2743.11
438.21	2878.86
438.40	2787.58
438.58	2953.76
438.77	3030.99
438.96	2965.46
439.14	3101.21
439.33	3112.91
439.52	3227.60
439.70	3171.43
439.89	3173.77
440.08	3070.78
440.26	3222.92
440.45	3101.21
440.63	3124.62
440.82	3169.09
441.01	3155.04
441.19	3187.81
441.38	3349.31
441.57	3234.62
441.75	3251.00
441.94	3375.05
442.12	3445.27
442.31	3447.61
442.50	3403.14
442.68	3396.12
442.87	3353.99
443.05	3456.97
443.24	3501.44
443.43	3473.36
443.61	3508.46
443.80	3632.51
443.98	3382.07
444.17	3365.69
444.35	3391.44
444.54	3576.34
444.73	3599.74
444.91	3538.89
445.10	3492.08
445.28	3442.93
445.47	3496.76
445.65	3459.31
445.84	3515.48
446.02	3637.19
446.21	3421.86
446.39	3564.64
446.58	3726.13
446.77	3550.59
446.95	3529.53
447.14	3583.36
447.32	3555.27
447.51	3595.06
447.69	3559.95
447.88	3651.24
448.06	3712.09
448.25	3627.83
448.43	3688.68
448.62	3557.61
448.80	3578.68
448.99	3667.62
449.17	3777.62
449.36	3604.42
449.54	3700.39
449.73	3768.26
449.91	3796.35
450.10	3758.90
450.28	3845.50
450.46	3777.62
450.65	3770.60
450.83	3838.48
451.02	3761.24
451.20	4060.83
451.39	4039.76
451.57	3934.44
451.76	3894.65
451.94	3920.40
452.13	4037.42
452.31	3997.64
452.49	3899.33
452.68	4053.81
452.86	4065.51
453.05	4215.30
453.23	4100.62
453.42	3978.91
453.60	4119.34
453.78	3960.19
453.97	3992.95
454.15	3964.87
454.34	3878.27
454.52	4358.08
454.70	4180.20
454.89	4191.90
455.07	4074.87
455.26	4257.43
455.44	4159.13
455.62	4306.59
455.81	4173.18
455.99	4189.56
456.17	4126.36
456.36	4215.30
456.54	4198.92
456.73	4348.72
456.91	4503.19
457.09	4257.43
457.28	4489.15
457.46	4428.29
457.64	4489.15
457.83	4472.76
458.01	4444.68
458.19	4582.77
458.38	4498.51
458.56	4477.44
458.74	4472.76
458.93	4393.19
459.11	4592.13
459.29	4421.27
459.48	4557.02
459.66	4627.24
459.84	4554.68
460.03	4645.96
460.21	4585.11
460.39	4575.75
460.57	4547.66
460.76	4650.64
460.94	4676.39
461.12	4716.18
461.31	4805.12
461.49	4781.71
461.67	4685.75
461.85	4767.67
462.04	4795.76
462.22	5198.33
462.40	4816.82
462.59	4983.00
462.77	5022.79
462.95	5008.75
463.13	4990.02
463.32	4915.12
463.50	5015.77
463.68	4968.96
463.86	4882.36
464.05	5039.17
464.23	5174.92
464.41	4985.34
464.59	4936.19
464.78	5020.45
464.96	4971.30
465.14	5053.22
465.32	5114.07
465.50	5114.07
465.69	5420.68
465.87	5195.99
466.05	4868.31
466.23	5235.78
466.41	5210.03
466.60	5298.97
466.78	5151.52
466.96	5308.34
467.14	5130.45
467.32	5376.21
467.51	5441.75
467.69	5090.67
467.87	5240.46
468.05	5336.42
468.23	5277.91
468.41	5305.99
468.60	5322.38
468.78	5444.09
468.96	5315.36
469.14	5523.66
469.32	5500.26
469.50	5310.68
469.69	5373.87
469.87	5446.43
470.05	5621.97
470.23	5577.50
470.41	5535.37
470.59	5757.72
470.77	5591.54
470.95	5659.42
471.14	5816.23
471.32	5549.41
471.50	5851.34
471.68	5785.80
471.86	5715.59
472.04	5834.96
472.22	5926.24
472.40	5750.70
472.58	5825.59
472.77	5806.87
472.95	6001.13
473.13	6312.42
473.31	5940.28
473.49	5930.92
473.67	6019.86
473.85	6146.25
474.03	6307.74
474.21	6324.13
474.39	6188.38
474.57	6113.48
474.75	6207.10
474.93	6619.04
475.12	6286.68
475.30	6443.49
475.48	6422.43
475.66	6443.49
475.84	6466.90
476.02	6509.03
476.20	6640.10
476.38	6684.57
476.56	6796.92
476.74	6696.27
476.92	6700.95
477.10	6764.15
477.28	6825.00
477.46	6862.45
477.64	6979.48
477.82	7030.97
478.00	7162.04
478.18	7143.32
478.36	7145.66
478.54	7164.38
478.72	7265.02
478.90	7365.67
479.08	7269.70
479.26	7400.77
479.44	7543.55
479.62	7548.23
479.80	7655.89
479.98	7705.04
480.16	7880.58
480.34	7723.77
480.52	7871.22
480.70	7918.03
480.88	7852.50
481.06	8042.08
481.24	7887.61
481.41	8011.65
481.59	8201.24
481.77	8121.66
481.95	8306.56
482.13	8456.36
482.31	8299.54
482.49	8493.80
482.67	8538.27
482.85	8624.87
483.03	8664.66
483.21	8943.19
483.39	8664.66
483.57	8919.78
483.74	8908.08
483.92	8877.65
484.10	8964.25
484.28	9371.50
484.46	9231.07
484.64	9415.98
484.82	9507.26
485.00	9537.68
485.18	9533.00
485.35	9551.73
485.53	9509.60
485.71	9996.43
485.89	9600.88
486.07	9760.03
486.25	10078.35
486.43	9851.31
486.61	10267.93
486.78	10092.39
486.96	10324.10
487.14	10483.26
487.32	10417.72
487.50	10424.75
487.68	10642.42
487.85	10827.32
488.03	10576.88
488.21	10925.62
488.39	10806.25
488.57	10869.45
488.75	10923.28
488.92	11145.63
489.10	11117.54
489.28	11145.63
489.46	11470.97
489.64	11473.31
489.81	11726.08
489.99	11716.72
490.17	11651.19
490.35	11555.22
490.53	11880.56
490.70	11875.88
490.88	12030.35
491.06	12077.16
491.24	12081.85
491.41	12322.92
491.59	12320.58
491.77	12262.07
491.95	12629.53
492.13	12554.63
492.30	12610.81
492.48	12435.27
492.66	12877.63
492.84	12910.40
493.01	12905.71
493.19	13008.70
493.37	13004.02
493.54	13495.53
493.72	13287.22
493.90	13369.14
494.08	13277.86
494.25	13628.94
494.43	13823.20
494.61	13554.04
494.79	13905.12
494.96	13877.04
495.14	13851.29
495.32	13872.36
495.49	14057.26
495.67	13902.78
495.85	14218.75
496.02	14441.11
496.20	14361.53
496.38	14265.57
496.55	14291.31
496.73	14621.33
496.91	14644.73
497.09	14640.05
497.26	14949.00
497.44	14663.46
497.62	14738.35
497.79	14831.97
497.97	15197.10
498.14	15225.18
498.32	15543.50
498.50	15391.36
498.67	15510.73
498.85	15269.66
499.03	15386.68
499.20	15606.69
499.38	15414.77
499.56	15906.28
499.73	15688.61
499.91	15908.62
500.08	16004.58
500.26	15749.46
500.44	16067.78
500.61	16020.97
500.79	16163.74
500.97	16259.70
501.14	16650.57
501.32	16334.60
501.49	16358.00
501.67	16580.36
501.84	16294.81
502.02	16596.74
502.20	16669.30
502.37	16924.41
502.55	16552.27
502.72	16716.11
502.90	16690.36
503.07	16699.72
503.25	16903.35
503.43	16840.15
503.60	17081.23
503.78	17153.79
503.95	17029.74
504.13	17195.92
504.30	17165.49
504.48	17212.30
504.65	17652.32
504.83	17357.41
505.01	17923.82
505.18	17551.68
505.36	17757.64
505.53	17359.75
505.71	18029.15
505.88	17727.22
506.06	17516.57
506.23	18181.28
506.41	17956.59
506.58	17909.78
506.76	17916.80
506.93	17998.72
507.11	18122.77
507.28	18008.08
507.46	18207.03
507.63	18317.03
507.81	18476.19
507.98	18478.53
508.16	18480.87
508.33	18417.68
508.50	18284.26
508.68	18527.68
508.85	18740.67
509.03	18754.71
509.20	18747.69
509.38	18782.80
509.55	18876.42
509.73	19023.87
509.90	18895.14
510.08	19150.26
510.25	18960.68
510.42	19110.47
510.60	19243.88
510.77	19316.44
510.95	19611.35
511.12	19000.47
511.30	19381.98
511.47	19491.98
511.64	19662.84
511.82	19473.26
511.99	19447.51
512.17	19988.18
512.34	19660.50
512.51	19922.64
512.69	19908.60
512.86	20093.50
513.04	20030.30
513.21	20243.29
513.38	19672.20
513.56	20077.12
513.73	20290.10
513.90	20187.12
514.08	20163.72
514.25	20226.91
514.43	20379.04
514.60	20629.48
514.77	20610.76
514.95	20680.97
515.12	20411.81
515.29	20538.20
515.47	20720.76
515.64	20814.38
515.81	20931.41
515.99	20924.39
516.16	21429.94
516.33	20908.01
516.51	20954.82
516.68	20872.90
516.85	20709.06
517.03	21149.08
517.20	21362.07
517.37	20837.79
517.54	21188.87
517.72	21436.97
517.89	21710.81
518.06	21525.91
518.24	21083.55
518.41	21333.98
518.58	21514.20
518.75	21247.38
518.93	22019.76
519.10	21633.57
519.27	21640.59
519.45	21982.31
519.62	21593.78
519.79	21603.14
519.96	22136.79
520.14	21895.71
520.31	22064.23
520.48	21954.22
520.65	22127.42
520.83	22312.33
521.00	22253.81
521.17	22272.54
521.34	22513.61
521.52	22401.27
521.69	22579.15
521.86	22572.13
522.03	22590.85
522.20	22754.69
522.38	22473.82
522.55	22757.03
522.72	22607.23
522.89	22579.15
523.07	23311.74
523.24	22799.16
523.41	23180.67
523.58	22668.09
523.75	23147.90
523.92	23098.75
524.10	22881.08
524.27	23311.74
524.44	23316.42
524.61	23323.44
524.78	23452.17
524.96	23094.07
525.13	23459.19
525.30	23358.55
525.47	23396.00
525.64	23510.68
525.81	23597.28
525.98	23742.39
526.16	23527.06
526.33	23531.75
526.50	24112.20
526.67	23545.79
526.84	23606.64
527.01	23910.91
527.18	23990.49
527.36	23690.90
527.53	24163.69
527.70	24107.52
527.87	24184.76
528.04	23850.06
528.21	24119.22
528.38	24584.99
528.55	24196.46
528.72	24170.71
528.89	24126.24
529.07	24226.89
529.24	24168.37
529.41	24575.62
529.58	24147.31
529.75	24243.27
529.92	24130.92
530.09	24379.02
530.26	24346.25
530.43	24428.17
530.60	24489.03
530.77	24428.17
530.94	24631.80
531.11	24580.31
531.28	24748.82
531.46	24769.89
531.63	24938.41
531.80	24849.47
531.97	25153.74
532.14	24669.25
532.31	25315.23
532.48	25144.38
532.65	25453.33
532.82	25221.61
532.99	24797.98
533.16	24943.09
533.33	25408.86
533.50	25425.24
533.67	25560.99
533.84	25013.31
534.01	25282.47
534.18	25362.04
534.35	25411.20
534.52	25261.40
534.69	25834.83
534.86	25488.43
535.03	25261.40
535.20	25439.28
535.37	25755.26
535.54	25771.64
535.71	25153.74
535.88	25673.34
536.05	25528.22
536.22	25902.71
536.38	25986.97
536.55	25928.45
536.72	25781.00
536.89	25570.35
537.06	25862.92
537.23	25813.77
537.40	25926.11
537.57	26031.44
537.74	26026.76
537.91	26279.54
538.08	26075.91
538.25	26087.61
538.42	26415.29
538.59	26246.77
538.75	25886.32
538.92	26008.03
539.09	26546.36
539.26	26260.81
539.43	26445.71
539.60	26462.10
539.77	26302.94
539.94	26541.68
540.11	26214.00
540.28	26464.44
540.44	26492.52
540.61	26520.61
540.78	26387.20
540.95	26759.34
541.12	26782.75
541.29	26696.15
541.46	26881.05
541.62	26677.43
541.79	26302.94
541.96	26874.03
542.13	26576.78
542.30	26558.06
542.47	26951.27
542.63	27138.51
542.80	27112.77
542.97	27346.82
543.14	27414.69
543.31	27007.44
543.48	27381.93
543.64	27108.08
543.81	27522.36
543.98	27868.76
544.15	27613.64
544.32	27573.85
544.48	28013.87
544.65	27372.57
544.82	27599.60
544.99	27239.15
545.16	27543.42
545.32	27555.13
545.49	27751.73
545.66	27955.36
545.83	27555.13
546.00	28243.24
546.16	27665.13
546.33	27772.80
546.50	26984.04
546.67	27885.14
546.83	27290.65
547.00	27721.30
547.17	27938.97
547.34	28009.19
547.50	28233.88
547.67	27960.04
547.84	28355.59
548.00	28100.47
548.17	27866.42
548.34	28079.41
548.51	28130.90
548.67	28170.69
548.84	28149.62
549.01	28521.77
549.18	28657.52
549.34	28460.91
549.51	28126.22
549.68	28137.92
549.84	28226.86
550.01	28662.20
550.18	28613.05
550.34	28315.80
550.51	28584.96
550.68	28353.25
550.84	28645.82
551.01	28599.01
551.18	28753.48
551.34	28369.63
551.51	28491.34
551.68	28692.63
551.84	28622.41
552.01	28797.95
552.18	28769.86
552.34	28606.03
552.51	28669.22
552.68	28814.34
552.84	28837.74
553.01	29036.69
553.18	28788.59
553.34	29041.37
553.51	28680.92
553.67	29350.32
553.84	29242.65
554.01	28914.98
554.17	29254.36
554.34	28814.34
554.51	28732.42
554.67	29366.70
554.84	29144.35
555.00	29310.53
555.17	29205.20
555.33	29259.04
555.50	29085.84
555.67	29191.16
555.83	29130.31
556.00	29340.96
556.16	29268.40
556.33	29596.07
556.50	29392.45
556.66	29434.58
556.83	29460.32
556.99	29472.03
557.16	29837.15
557.32	29881.62
557.49	29813.74
557.65	29734.17
557.82	29488.41
557.98	29542.24
558.15	29373.72
558.32	29556.28
558.48	29694.38
558.65	29785.66
558.81	29654.59
558.98	29759.91
559.14	29755.23
559.31	29741.19
559.47	29654.59
559.64	30008.01
559.80	29717.78
559.97	29979.92
560.13	29748.21
560.30	30064.18
560.46	29713.10
560.63	29841.83
560.79	29830.13
560.96	29977.58
561.12	29317.55
561.29	29862.90
561.45	29919.07
561.61	30022.05
561.78	29916.73
561.94	29867.58
562.11	29776.30
562.27	29982.26
562.44	30174.19
562.60	29919.07
562.77	29743.53
562.93	29979.92
563.10	30085.25
563.26	29874.60
563.42	30312.28
563.59	30015.03
563.75	30253.76
563.92	30347.39
564.08	29933.11
564.24	30206.95
564.41	30272.49
564.57	30068.86
564.74	30286.53
564.90	30326.32
565.07	30038.44
565.23	30094.61
565.39	30033.75
565.56	30562.72
565.72	30155.46
565.88	30267.81
566.05	30445.69
566.21	29956.52
566.38	30349.73
566.54	30422.28
566.70	30801.45
566.87	30761.66
567.03	30593.14
567.19	30487.82
567.36	30675.06
567.52	30515.90
567.68	30548.67
567.85	30405.90
568.01	30490.16
568.17	30319.30
568.34	30717.19
568.50	30630.59
568.66	30546.33
568.83	30745.28
568.99	30565.06
569.15	30656.34
569.32	30382.49
569.48	30230.36
569.64	30441.01
569.81	30581.44
569.97	30955.93
570.13	30993.37
570.30	30513.56
570.46	30899.75
570.62	31197.00
570.78	30855.28
570.95	30354.41
571.11	30829.54
571.27	30527.61
571.43	30710.17
571.60	30721.87
571.76	30902.09
571.92	30588.46
572.09	30551.01
572.25	30609.53
572.41	30621.23
572.57	30707.83
572.74	30691.44
572.90	30433.99
573.06	30616.55
573.22	30710.17
573.38	31037.84
573.55	30595.48
573.71	30696.13
573.87	31105.72
574.03	30885.71
574.20	30799.11
574.36	30670.38
574.52	31185.30
574.68	30539.31
574.84	30984.01
575.01	30717.19
575.17	31157.21
575.33	30759.32
575.49	30866.98
575.65	31049.55
575.82	31353.82
575.98	31058.91
576.14	31051.89
576.30	31007.42
576.46	30981.67
576.62	30953.58
576.79	30969.97
576.95	31140.83
577.11	30904.43
577.27	30682.08
577.43	30976.99
577.59	30836.56
577.75	31292.96
577.92	30808.47
578.08	30661.02
578.24	30450.37
578.40	30668.04
578.56	30855.28
578.72	31124.44
578.88	31618.30
579.04	31489.57
579.21	31445.10
579.37	31197.00
579.53	31208.70
579.69	30745.28
579.85	30738.26
580.01	31105.72
580.17	30492.50
580.33	30686.76
580.49	31009.76
580.65	31075.29
580.82	31035.50
580.98	31220.41
581.14	30897.41
581.30	31194.66
581.46	30934.86
581.62	30834.22
581.78	30871.67
581.94	31232.11
582.10	31194.66
582.26	31110.40
582.42	31019.12
582.58	31049.55
582.74	31360.84
582.90	31379.56
583.06	30960.61
583.22	31239.13
583.38	31171.25
583.54	31072.95
583.70	31002.74
583.86	31152.53
584.02	31072.95
584.18	31433.39
584.34	31337.43
584.50	31414.67
584.66	31466.16
584.82	31438.08
584.98	31468.50
585.14	31175.94
585.30	31346.79
585.46	31075.29
585.62	31578.51
585.78	31098.70
585.94	30703.15
586.10	31459.14
586.26	31253.17
586.42	31323.39
586.58	31531.70
586.74	31250.83
586.90	31005.08
587.06	30874.01
587.22	31398.29
587.38	31201.68
587.54	31220.41
587.70	31147.85
587.86	31505.95
588.02	31147.85
588.18	31424.03
588.34	31225.09
588.49	31400.63
588.65	31211.04
588.81	31297.64
588.97	31498.93
589.13	31089.34
589.29	31145.51
589.45	31466.16
589.61	31761.07
589.77	31852.35
589.93	31735.32
590.08	31620.64
590.24	31339.77
590.40	31622.98
590.56	31653.40
590.72	31175.94
590.88	31314.03
591.04	31477.86
591.20	31929.59
591.35	31779.79
591.51	32051.30
591.67	31735.32
591.83	31859.37
591.99	31346.79
592.15	31651.06
592.31	31931.93
592.46	31585.53
592.62	31562.12
592.78	31587.87
592.94	31414.67
593.10	31409.99
593.26	31541.06
593.41	31899.16
593.57	31388.92
593.73	31562.12
593.89	31618.30
594.05	31889.80
594.20	31627.66
594.36	31402.97
594.52	31763.41
594.68	31299.98
594.84	31445.10
594.99	31693.19
595.15	31363.18
595.31	31915.54
595.47	31615.96
595.62	31828.95
595.78	31995.12
595.94	31569.15
596.10	31571.49
596.25	31445.10
596.41	31725.96
596.57	31573.83
596.73	31878.10
596.88	31702.56
597.04	32027.89
597.20	31924.91
597.36	31700.22
597.51	32290.03
597.67	31920.23
597.83	31779.79
597.99	32128.53
598.14	31550.42
598.30	32119.17
598.46	31826.60
598.61	32088.74
598.77	31477.86
598.93	31730.64
599.09	32072.36
599.24	32376.63
599.40	32091.09
599.56	32416.42
599.71	31927.25
599.87	31775.11
600.03	31948.31
600.18	31775.11
600.34	31901.50
600.50	31915.54
600.65	31641.70
600.81	32023.21
600.97	31957.67
601.12	32280.67
601.28	32004.49
601.44	31934.27
601.59	32058.32
601.75	31850.01
601.91	31660.43
602.06	32009.17
602.22	31702.56
602.37	31672.13
602.53	31878.10
602.69	32245.56
602.84	31957.67
603.00	31899.16
603.16	32112.15
603.31	31943.63
603.47	32002.14
603.62	32119.17
603.78	32121.51
603.94	31796.18
604.09	31798.52
604.25	31695.53
604.40	31821.92
604.56	32039.59
604.71	31929.59
604.87	32070.02
605.03	32194.07
605.18	32245.56
605.34	31807.88
605.49	31805.54
605.65	31952.99
605.80	31704.90
605.96	31885.12
606.12	31971.72
606.27	31938.95
606.43	31592.55
606.58	32055.98
606.74	31702.56
606.89	32144.92
607.05	32112.15
607.20	32467.91
607.36	31775.11
607.51	31857.03
607.67	31601.91
607.82	31447.44
607.98	31826.60
608.13	31988.10
608.29	31697.88
608.44	31796.18
608.60	31765.75
608.75	31964.70
608.91	31770.43
609.06	31332.75
609.22	31648.72
609.37	30965.29
609.53	31367.86
609.68	31220.41
609.84	31257.85
609.99	31676.81
610.15	31356.16
610.30	31967.04
610.46	31789.16
610.61	31725.96
610.76	31632.34
610.92	31812.56
611.07	31625.32
611.23	31730.64
611.38	31681.49
611.54	31440.42
611.69	31632.34
611.84	31482.55
612.00	31491.91
612.15	31253.17
612.31	31487.23
612.46	31817.24
612.62	31723.62
612.77	31681.49
612.92	31337.43
613.08	31477.86
613.23	31358.50
613.39	31346.79
613.54	31302.32
613.69	31335.09
613.85	31358.50
614.00	31374.88
614.15	31747.03
614.31	31344.45
614.46	31077.63
614.62	31374.88
614.77	31646.38
614.92	31255.51
615.08	31222.75
615.23	31131.47
615.38	31091.68
615.54	31026.14
615.69	31447.44
615.84	31168.91
616.00	31339.77
616.15	31049.55
616.30	31342.11
616.46	30897.41
616.61	31178.28
616.76	31189.98
616.92	31707.24
617.07	30735.92
617.22	31016.78
617.37	30920.82
617.53	31285.94
617.68	30981.67
617.83	30639.95
617.99	30766.34
618.14	30845.92
618.29	31117.42
618.45	30965.29
618.60	30801.45
618.75	30787.41
618.90	30857.62
619.06	31002.74
619.21	30679.74
619.36	30958.27
619.51	30529.95
619.67	30754.64
619.82	30824.86
619.97	30948.90
620.12	30403.56
620.28	30698.47
620.43	30885.71
620.58	31192.32
620.73	30838.90
620.89	30958.27
621.04	31098.70
621.19	30988.69
621.34	30614.21
621.49	30232.70
621.65	30103.97
621.80	30654.00
621.95	30298.23
622.10	30534.63
622.25	30340.36
622.41	30476.12
622.56	30520.59
622.71	30422.28
622.86	30551.01
623.01	30803.79
623.16	30160.14
623.32	30265.47
623.47	30424.62
623.62	30792.09
623.77	30417.60
623.92	30181.21
624.07	30204.61
624.23	30143.76
624.38	30375.47
624.53	30614.21
624.68	30506.54
624.83	30581.44
624.98	30326.32
625.13	30160.14
625.29	30359.09
625.44	30445.69
625.59	29879.28
625.74	30052.48
625.89	30038.44
626.04	29923.75
626.19	29692.04
626.34	29752.89
626.49	29783.32
626.65	30054.82
626.80	29902.68
626.95	29755.23
627.10	30225.68
627.25	30162.48
627.40	29968.22
627.55	29701.40
627.70	29685.01
627.85	29841.83
628.00	29572.67
628.15	29776.30
628.30	29380.74
628.45	29495.43
628.60	29401.81
628.76	30132.06
628.91	29949.50
629.06	29699.06
629.21	29949.50
629.36	29582.03
629.51	29465.00
629.66	29259.04
629.81	29560.97
629.96	29535.22
630.11	29514.16
630.26	29605.44
630.41	29453.30
630.56	29266.06
630.71	29237.97
630.86	29415.85
631.01	29247.33
631.16	29668.63
631.31	29521.18
631.46	29532.88
631.61	29397.13
631.76	29577.35
631.91	29383.09
632.06	29308.19
632.21	29345.64
632.36	29783.32
632.51	29113.92
632.66	29560.97
632.81	28802.63
632.96	29642.88
633.10	29319.89
633.25	29736.51
633.40	29221.59
633.55	29624.16
633.70	29099.88
633.85	29043.71
634.00	29282.44
634.15	29024.98
634.30	29263.72
634.45	29097.54
634.60	29041.37
634.75	28744.12
634.90	29076.48
635.05	29319.89
635.19	28847.10
635.34	29369.04
635.49	29305.85
635.64	29020.30
635.79	29118.60
635.94	28669.22
636.09	28629.43
636.24	28912.64
636.39	28524.11
636.53	28982.85
636.68	28795.61
636.83	28655.18
636.98	28879.87
637.13	28863.49
637.28	29214.57
637.43	28542.83
637.57	28905.62
637.72	28676.24
637.87	28821.36
638.02	28364.95
638.17	28533.47
638.32	28739.44
638.46	28491.34
638.61	28720.71
638.76	28114.52
638.91	28070.04
639.06	28386.02
639.20	28519.43
639.35	28542.83
639.50	28624.75
639.65	28507.72
639.80	28709.01
639.94	28470.28
640.09	28437.51
640.24	28577.94
640.39	28489.00
640.54	28432.83
640.68	28510.07
640.83	28477.30
640.98	28283.03
641.13	28187.07
641.27	28158.99
641.42	28046.64
641.57	28549.85
641.72	28610.71
641.86	27976.42
642.01	28362.61
642.16	28142.60
642.31	27997.49
642.45	28086.43
642.60	28081.75
642.75	27608.96
642.90	27683.86
643.04	28119.20
643.19	27686.20
643.34	28198.77
643.48	27922.59
643.63	27859.40
643.78	27711.94
643.93	27943.66
644.07	28350.91
644.22	28343.89
644.37	28149.62
644.51	27981.10
644.66	27957.70
644.81	27594.92
644.95	27569.17
645.10	27590.24
645.25	27634.71
645.39	27824.29
645.54	27611.30
645.69	27969.40
645.83	28336.87
645.98	27655.77
646.13	27786.84
646.27	28039.62
646.42	27742.37
646.57	27667.47
646.71	27398.31
646.86	27356.18
647.00	27468.53
647.15	27414.69
647.30	27583.21
647.44	27491.93
647.59	27623.00
647.74	27744.71
647.88	27314.05
648.03	27742.37
648.17	27285.97
648.32	27590.24
648.47	27931.95
648.61	27395.97
648.76	27913.23
648.90	27438.10
649.05	27559.81
649.20	27470.87
649.34	27463.85
649.49	27178.30
649.63	27166.60
649.78	27365.54
649.92	27185.32
650.07	27435.76
650.21	26958.29
650.36	27220.43
650.51	27098.72
650.65	27304.69
650.80	27360.86
650.94	26911.48
651.09	27494.27
651.23	26719.56
651.38	26937.23
651.52	27087.02
651.67	27065.96
651.81	27178.30
651.96	26998.08
652.10	27016.80
652.25	27117.45
652.39	27314.05
652.54	27072.98
652.68	27049.57
652.83	27218.09
652.97	27077.66
653.12	26974.67
653.26	27040.21
653.41	27388.95
653.55	26721.90
653.70	26382.52
653.84	26855.31
653.99	27138.51
654.13	26757.00
654.27	26806.16
654.42	26703.17
654.56	27023.83
654.71	26693.81
654.85	26927.86
655.00	27166.60
655.14	26916.16
655.29	26553.38
655.43	26656.36
655.57	26745.30
655.72	26684.45
655.86	26700.83
656.01	26443.37
656.15	26377.84
656.30	26354.43
656.44	26611.89
656.58	26558.06
656.73	26204.64
656.87	26347.41
657.01	26359.11
657.16	26221.02
657.30	26539.33
657.45	26588.49
657.59	26492.52
657.73	26068.89
657.88	26525.29
658.02	26225.70
658.16	26366.13
658.31	26178.89
658.45	26134.42
658.60	26195.28
658.74	25776.32
658.88	26073.57
659.03	25898.03
659.17	26211.66
659.31	25984.63
659.46	26127.40
659.60	25928.45
659.74	26125.06
659.89	25853.56
660.03	25806.75
660.17	25792.70
660.32	25919.09
660.46	25944.84
660.60	25546.95
660.74	25443.96
660.89	25628.87
661.03	25729.51
661.17	25788.02
661.32	25495.46
661.46	25769.30
661.60	25640.57
661.74	25771.64
661.89	25671.00
662.03	25781.00
662.17	25348.00
662.31	25380.77
662.46	25532.90
662.60	25448.64
662.74	25516.52
662.88	25202.89
663.03	25125.65
663.17	25238.00
663.31	25008.62
663.45	25092.88
663.60	25139.69
663.74	24673.93
663.88	24751.17
664.02	25228.63
664.17	25345.66
664.31	25188.85
664.45	24982.88
664.59	25142.03
664.73	24856.49
664.88	25137.35
665.02	24568.60
665.16	24465.62
665.30	24711.38
665.44	24830.74
665.59	24540.52
665.73	24561.58
665.87	24449.24
666.01	24727.76
666.15	24643.50
666.29	24535.84
666.44	24755.85
666.58	24320.51
666.72	24559.24
666.86	24140.29
667.00	24664.57
667.14	24137.94
667.28	24350.93
667.43	24362.64
667.57	24322.85
667.71	24159.01
667.85	24236.25
667.99	23920.28
668.13	24166.03
668.27	23946.02
668.41	24027.94
668.56	24016.24
668.70	24194.12
668.84	24065.39
668.98	23974.11
669.12	24163.69
669.26	23995.17
669.40	24030.28
669.54	23744.73
669.68	23667.50
669.82	23763.46
669.96	23718.99
670.10	23330.46
670.25	23201.73
670.39	23564.51
670.53	23360.89
670.67	23403.02
670.81	23377.27
670.95	23426.42
671.09	23564.51
671.23	23213.43
671.37	23627.71
671.51	23199.39
671.65	23442.81
671.79	23302.37
671.93	22888.10
672.07	23082.36
672.21	22871.72
672.35	23028.53
672.49	22640.00
672.63	22602.55
672.77	22483.19
672.91	22710.22
673.05	22698.52
673.19	22693.83
673.33	22815.54
673.47	22691.49
673.61	22988.74
673.75	22515.95
673.89	22773.41
674.03	22380.20
674.17	22548.72
674.31	22431.69
674.45	22464.46
674.59	22487.87
674.73	22003.38
674.87	22045.51
675.01	21869.97
675.15	22370.84
675.29	21792.73
675.43	22050.19
675.56	21923.80
675.70	21872.31
675.84	21905.07
675.98	21324.62
676.12	22214.02
676.26	22305.31
676.40	21797.41
676.54	21841.88
676.68	22008.06
676.82	21600.80
676.96	21481.44
677.10	21469.73
677.23	21336.32
677.37	21123.33
677.51	21378.45
677.65	21081.21
677.79	21046.10
677.93	20882.26
678.07	20908.01
678.21	20805.02
678.34	20596.71
678.48	20957.16
678.62	20549.90
678.76	20369.68
678.90	20685.65
679.04	20435.22
679.18	20690.34
679.31	20790.98
679.45	20397.77
679.59	20599.05
679.73	20152.01
679.87	20009.24
680.00	20067.75
680.14	19901.58
680.28	20086.48
680.42	19915.62
680.56	20039.67
680.70	19887.53
680.83	19840.72
680.97	19913.28
681.11	19690.93
681.25	19864.13
681.39	19625.39
681.52	19772.85
681.66	19550.49
681.80	19489.64
681.94	19534.11
682.07	19410.06
682.21	19300.06
682.35	19180.69
682.49	19180.69
682.62	19047.28
682.76	19082.39
682.90	18864.72
683.04	19084.73
683.17	19159.63
683.31	18970.04
683.45	18728.97
683.59	18855.36
683.72	18829.61
683.86	18494.91
684.00	18705.56
684.13	18595.56
684.27	18625.98
684.41	18380.23
684.55	18029.15
684.68	18155.54
684.82	18253.84
684.96	17888.71
685.09	18300.65
685.23	18111.07
685.37	17980.00
685.50	17961.27
685.64	17984.68
685.78	17757.64
685.91	17898.08
686.05	18148.51
686.19	17724.88
686.32	17554.02
686.46	17633.60
686.60	17511.89
686.73	17282.52
686.87	17249.75
687.01	17263.79
687.14	17111.66
687.28	17111.66
687.42	17097.61
687.55	17109.32
687.69	16886.97
687.82	16791.00
687.96	17151.45
688.10	16779.30
688.23	16711.42
688.37	16788.66
688.50	16980.59
688.64	16664.61
688.78	16779.30
688.91	16755.90
689.05	16460.99
689.18	16353.32
689.32	15969.48
689.46	16248.00
689.59	16339.28
689.73	16039.69
689.86	16187.14
690.00	15913.30
690.13	15920.32
690.27	16035.01
690.41	16236.30
690.54	16051.39
690.68	15941.39
690.81	15632.44
690.95	15974.16
691.08	15810.32
691.22	15625.42
691.35	15484.98
691.49	15932.03
691.62	15410.09
691.76	15302.42
691.89	15370.30
692.03	15358.60
692.16	14991.13
692.30	15367.96
692.43	15208.80
692.57	14871.76
692.70	15185.40
692.84	14871.76
692.97	14864.74
693.11	14925.60
693.24	14820.27
693.38	14892.83
693.51	14960.70
693.65	14658.78
693.78	14380.25
693.92	14649.41
694.05	14637.71
694.19	14534.73
694.32	14427.06
694.45	14494.94
694.59	14345.14
694.72	13998.74
694.86	13769.37
694.99	13724.90
695.13	14256.20
695.26	13862.99
695.39	13818.52
695.53	13888.74
695.66	14026.83
695.80	13706.18
695.93	13898.10
696.07	13771.71
696.20	13575.11
696.33	13628.94
696.47	13490.85
696.60	13455.74
696.73	13268.50
696.87	13404.25
697.00	13383.18
697.14	12837.84
697.27	12915.08
697.40	13256.79
697.54	13046.15
697.67	12908.05
697.80	12807.41
697.94	12823.80
698.07	12540.59
698.21	12746.56
698.34	12648.26
698.47	12662.30
698.61	12791.03
698.74	12624.85
698.87	12643.57
699.01	12622.51
699.14	12446.97
699.27	12187.17
699.40	12362.71
699.54	12182.49
699.67	12156.74
699.80	12020.99
699.94	12140.36
700.07	12042.06
700.20	11981.20
700.34	11910.99
700.47	11796.30
700.60	12009.29
700.73	11829.07
700.87	11751.83
701.00	11662.89
701.13	11707.36
701.26	11763.53
701.40	11744.81
701.53	11620.76
701.66	11590.33
701.79	11555.22
701.93	11517.78
702.06	11379.68
702.19	11115.20
702.32	11145.63
702.46	10991.16
702.59	11110.52
702.72	11000.52
702.85	10902.22
702.99	10923.28
703.12	10890.51
703.25	10766.46
703.38	10654.12
703.51	10906.90
703.65	10857.75
703.78	10853.06
703.91	10555.82
704.04	10740.72
704.17	10665.82
704.31	10712.63
704.44	10523.05
704.57	10539.43
704.70	10384.96
704.83	10354.53
704.96	10167.29
705.10	10324.10
705.23	10099.41
>>>>>End Processed Spectral Data<<<<<
