SpectraSuite Data File
++++++++++++++++++++++++++++++++++++
Date: Fri Oct 18 13:58:08 GMT-05:00 2013
User: bianchi
Dark Spectrum Present: No
Reference Spectrum Present: No
Number of Sampled Component Spectra: 1
Spectrometers: USB2+H05261
Integration Time (usec): 50000 (USB2+H05261)
Spectra Averaged: 1 (USB2+H05261)
Boxcar Smoothing: 0 (USB2+H05261)
Correct for Electrical Dark: No (USB2+H05261)
Strobe/Lamp Enabled: No (USB2+H05261)
Correct for Detector Non-linearity: No (USB2+H05261)
Correct for Stray Light: No (USB2+H05261)
Number of Pixels in Processed Spectrum: 2048
>>>>>Begin Processed Spectral Data<<<<<
365.73	0.00
365.92	0.00
366.12	0.00
366.32	0.00
366.52	0.00
366.72	0.00
366.91	0.00
367.11	0.00
367.31	0.00
367.51	0.00
367.70	0.00
367.90	0.00
368.10	0.00
368.30	0.00
368.49	0.00
368.69	0.00
368.89	0.00
369.09	0.00
369.28	0.00
369.48	0.00
369.68	0.00
369.87	0.00
370.07	0.00
370.27	0.00
370.47	0.00
370.66	23.41
370.86	121.71
371.06	88.94
371.25	182.56
371.45	14.04
371.65	222.35
371.84	173.20
372.04	107.66
372.24	177.88
372.44	236.39
372.63	182.56
372.83	301.93
373.03	145.11
373.22	227.03
373.42	175.54
373.62	220.01
373.81	320.65
374.01	203.63
374.21	301.93
374.40	266.82
374.60	308.95
374.79	187.24
374.99	245.76
375.19	290.23
375.38	257.46
375.58	217.67
375.78	243.42
375.97	294.91
376.17	259.80
376.37	327.68
376.56	311.29
376.76	306.61
376.95	217.67
377.15	278.52
377.35	301.93
377.54	250.44
377.74	306.61
377.93	339.38
378.13	234.05
378.33	297.25
378.52	280.86
378.72	250.44
378.91	255.12
379.11	224.69
379.31	355.76
379.50	299.59
379.70	269.16
379.89	273.84
380.09	292.57
380.28	320.65
380.48	220.01
380.68	278.52
380.87	301.93
381.07	308.95
381.26	318.31
381.46	388.53
381.65	320.65
381.85	360.44
382.04	325.33
382.24	367.46
382.43	332.36
382.63	358.10
382.83	285.55
383.02	330.02
383.22	376.83
383.41	351.08
383.61	330.02
383.80	362.78
384.00	383.85
384.19	320.65
384.39	416.62
384.58	390.87
384.78	430.66
384.97	367.46
385.17	369.80
385.36	355.76
385.56	353.42
385.75	442.36
385.95	409.59
386.14	390.87
386.34	376.83
386.53	339.38
386.72	353.42
386.92	449.38
387.11	386.19
387.31	433.00
387.50	411.93
387.70	390.87
387.89	465.77
388.09	477.47
388.28	470.45
388.48	414.27
388.67	397.89
388.86	477.47
389.06	484.49
389.25	416.62
389.45	465.77
389.64	552.37
389.84	550.03
390.03	451.72
390.22	505.56
390.42	545.34
390.61	519.60
390.81	545.34
391.00	578.11
391.19	486.83
391.39	489.17
391.58	458.74
391.78	510.24
391.97	566.41
392.16	545.34
392.36	606.20
392.55	465.77
392.75	559.39
392.94	543.00
393.13	545.34
393.33	561.73
393.52	547.69
393.71	704.50
393.91	638.97
394.10	678.76
394.29	601.52
394.49	557.05
394.68	615.56
394.88	589.82
395.07	622.58
395.26	564.07
395.46	613.22
395.65	580.45
395.84	582.79
396.04	627.26
396.23	662.37
396.42	669.39
396.62	580.45
396.81	713.86
397.00	667.05
397.19	655.35
397.39	702.16
397.58	704.50
397.77	638.97
397.97	723.23
398.16	683.44
398.35	704.50
398.55	650.67
398.74	683.44
398.93	711.52
399.12	746.63
399.32	746.63
399.51	699.82
399.70	741.95
399.90	788.76
400.09	772.38
400.28	765.36
400.47	830.89
400.67	770.04
400.86	798.12
401.05	737.27
401.24	727.91
401.44	777.06
401.63	802.80
401.82	847.27
402.01	786.42
402.21	746.63
402.40	835.57
402.59	791.10
402.78	861.32
402.97	807.48
403.17	821.53
403.36	933.87
403.55	868.34
403.74	884.72
403.93	903.45
404.13	866.00
404.32	940.90
404.51	880.04
404.70	971.32
404.89	957.28
405.09	947.92
405.28	884.72
405.47	992.39
405.66	1022.81
405.85	1039.20
406.05	964.30
406.24	973.66
406.43	901.11
406.62	1095.37
406.81	1046.22
407.00	1020.47
407.20	997.07
407.39	1013.45
407.58	1048.56
407.77	1088.35
407.96	1123.46
408.15	1090.69
408.34	1057.92
408.54	1163.25
408.73	1053.24
408.92	1123.46
409.11	1219.42
409.30	1184.31
409.49	1174.95
409.68	1139.84
409.87	1011.11
410.07	1188.99
410.26	1163.25
410.45	1240.48
410.64	1160.91
410.83	1238.14
411.02	1299.00
411.21	1359.85
411.40	1261.55
411.59	1212.40
411.78	1235.80
411.98	1235.80
412.17	1301.34
412.36	1289.64
412.55	1331.76
412.74	1390.28
412.93	1371.55
413.12	1284.95
413.31	1465.18
413.50	1331.76
413.69	1383.26
413.88	1540.07
414.07	1488.58
414.26	1474.54
414.45	1446.45
414.64	1437.09
414.83	1507.30
415.02	1540.07
415.22	1586.88
415.41	1626.67
415.60	1563.48
415.79	1605.61
415.98	1624.33
416.17	1535.39
416.36	1591.56
416.55	1657.10
416.74	1586.88
416.93	1614.97
417.12	1671.14
417.31	1659.44
417.50	1706.25
417.69	1701.57
417.88	1795.19
418.07	1804.55
418.26	1795.19
418.45	1753.06
418.64	1818.60
418.83	1884.13
419.02	1818.60
419.21	1905.20
419.39	1781.15
419.58	1830.30
419.77	1736.68
419.96	1832.64
420.15	1834.98
420.34	1940.30
420.53	1928.60
420.72	1940.30
420.91	1944.99
421.10	1956.69
421.29	1989.46
421.48	1977.75
421.67	1975.41
421.86	1970.73
422.05	2024.56
422.24	1874.77
422.43	1914.56
422.61	2066.69
422.80	1968.39
422.99	2045.63
423.18	2090.10
423.37	2106.48
423.56	1919.24
423.75	2040.95
423.94	2022.22
424.13	1898.17
424.32	2017.54
424.50	2001.16
424.69	2073.71
424.88	1996.48
425.07	2104.14
425.26	2022.22
425.45	2045.63
425.64	2113.50
425.83	2097.12
426.01	2111.16
426.20	2167.34
426.39	2094.78
426.58	2225.85
426.77	2125.21
426.96	2017.54
427.15	2157.97
427.33	2076.06
427.52	2104.14
427.71	2148.61
427.90	2293.72
428.09	2087.76
428.28	2225.85
428.46	2174.36
428.65	2370.96
428.84	2069.03
429.03	2277.34
429.22	2307.77
429.40	2314.79
429.59	2249.25
429.78	2190.74
429.97	2174.36
430.16	2300.75
430.34	2305.43
430.53	2422.45
430.72	2347.56
430.91	2368.62
431.10	2321.81
431.28	2305.43
431.47	2502.03
431.66	2459.90
431.85	2270.32
432.03	2495.01
432.22	2434.16
432.41	2443.52
432.60	2462.24
432.79	2471.61
432.97	2455.22
433.16	2551.18
433.35	2415.43
433.54	2562.89
433.72	2583.95
433.91	2569.91
434.10	2605.02
434.28	2532.46
434.47	2457.56
434.66	2509.05
434.85	2605.02
435.03	2656.51
435.22	2572.25
435.41	2635.44
435.59	2621.40
435.78	2712.68
435.97	2768.85
436.16	2665.87
436.34	2703.32
436.53	2731.41
436.72	2813.32
436.90	2754.81
437.09	2850.77
437.28	2719.70
437.46	2705.66
437.65	2771.19
437.84	2874.18
438.02	2740.77
438.21	2775.88
438.40	2834.39
438.58	2871.84
438.77	2832.05
438.96	2991.20
439.14	2991.20
439.33	2960.78
439.52	3052.06
439.70	2972.48
439.89	3112.91
440.08	3084.83
440.26	3091.85
440.45	2953.76
440.63	3133.98
440.82	3199.51
441.01	3145.68
441.19	3105.89
441.38	3246.32
441.57	3138.66
441.75	3248.66
441.94	3316.54
442.12	3229.94
442.31	3283.77
442.50	3241.64
442.68	3321.22
442.87	3344.63
443.05	3335.26
443.24	3295.47
443.43	3365.69
443.61	3384.41
443.80	3536.55
443.98	3379.73
444.17	3234.62
444.35	3574.00
444.54	3566.98
444.73	3529.53
444.91	3342.28
445.10	3400.80
445.28	3428.88
445.47	3550.59
445.65	3473.36
445.84	3485.06
446.02	3475.70
446.21	3517.83
446.39	3522.51
446.58	3592.72
446.77	3543.57
446.95	3557.61
447.14	3438.25
447.32	3651.24
447.51	3571.66
447.69	3648.90
447.88	3543.57
448.06	3452.29
448.25	3618.47
448.43	3618.47
448.62	3494.42
448.80	3623.15
448.99	3691.02
449.17	3555.27
449.36	3630.17
449.54	3698.05
449.73	3824.44
449.91	3630.17
450.10	3756.56
450.28	3847.84
450.46	3794.01
450.65	3833.80
450.83	3728.47
451.02	3698.05
451.20	3840.82
451.39	3925.08
451.57	3920.40
451.76	3887.63
451.94	3794.01
452.13	3918.06
452.31	3999.98
452.49	3698.05
452.68	3892.31
452.86	3838.48
453.05	3950.82
453.23	3920.40
453.42	3892.31
453.60	3737.84
453.78	4095.94
453.97	4058.49
454.15	4004.66
454.34	3934.44
454.52	3978.91
454.70	4161.47
454.89	4074.87
455.07	4058.49
455.26	4063.17
455.44	4168.49
455.62	4077.21
455.81	4079.55
455.99	4161.47
456.17	4121.68
456.36	4175.52
456.54	4325.31
456.73	4311.27
456.91	4482.13
457.09	4379.14
457.28	4500.85
457.46	4311.27
457.64	4311.27
457.83	4592.13
458.01	4329.99
458.19	4531.28
458.38	4348.72
458.56	4514.89
458.74	4381.48
458.93	4329.99
459.11	4489.15
459.29	4437.66
459.48	4575.75
459.66	4566.39
459.84	4594.47
460.03	4660.01
460.21	4559.36
460.39	4643.62
460.57	4491.49
460.76	4444.68
460.94	4512.55
461.12	4655.33
461.31	4650.64
461.49	4643.62
461.67	4662.35
461.85	4685.75
462.04	4704.48
462.22	5018.11
462.40	4873.00
462.59	4727.88
462.77	4777.03
462.95	4706.82
463.13	4809.80
463.32	4915.12
463.50	4891.72
463.68	4779.37
463.86	4896.40
464.05	4985.34
464.23	4767.67
464.41	4975.98
464.59	4819.16
464.78	5022.79
464.96	4938.53
465.14	4994.70
465.32	4966.62
465.50	5137.48
465.69	5263.86
465.87	5135.14
466.05	5043.85
466.23	4985.34
466.41	5210.03
466.60	5039.17
466.78	4966.62
466.96	4964.28
467.14	5085.98
467.32	5207.69
467.51	5165.56
467.69	5109.39
467.87	5221.74
468.05	5020.45
468.23	5303.65
468.41	5167.90
468.60	5167.90
468.78	5261.52
468.96	5256.84
469.14	5313.02
469.32	5383.23
469.50	5172.58
469.69	5345.78
469.87	5607.92
470.05	5341.10
470.23	5387.91
470.41	5336.42
470.59	5533.03
470.77	5383.23
470.95	5516.64
471.14	5610.26
471.32	5633.67
471.50	5603.24
471.68	5680.48
471.86	5713.25
472.04	5645.37
472.22	5806.87
472.40	5610.26
472.58	5610.26
472.77	5895.81
472.95	5888.79
473.13	5956.66
473.31	5722.61
473.49	5738.99
473.67	5996.45
473.85	6101.78
474.03	6057.31
474.21	5996.45
474.39	6179.01
474.57	6155.61
474.75	6183.70
474.93	6366.26
475.12	6237.53
475.30	6279.66
475.48	6160.29
475.66	6363.92
475.84	6270.30
476.02	6457.54
476.20	6370.94
476.38	6675.21
476.56	6593.29
476.74	6492.65
476.92	6593.29
477.10	6717.34
477.28	6771.17
477.46	6817.98
477.64	6836.70
477.82	7063.74
478.00	7073.10
478.18	6876.49
478.36	7098.84
478.54	7087.14
478.72	7232.26
478.90	7066.08
479.08	7463.97
479.26	7393.75
479.44	7393.75
479.62	7494.40
479.80	7569.29
479.98	7414.82
480.16	7538.87
480.34	7513.12
480.52	7646.53
480.70	7763.56
480.88	7641.85
481.06	7805.69
481.24	7798.66
481.41	7941.44
481.59	8131.02
481.77	8121.66
481.95	8011.65
482.13	8116.98
482.31	8320.60
482.49	8236.35
482.67	8327.63
482.85	8486.78
483.03	8430.61
483.21	8568.70
483.39	8681.05
483.57	8664.66
483.74	8732.54
483.92	8954.89
484.10	8753.60
484.28	9107.02
484.46	9191.28
484.64	9092.98
484.82	9249.80
485.00	9188.94
485.18	9233.41
485.35	9418.32
485.53	9387.89
485.71	9596.20
485.89	9631.30
486.07	9774.08
486.25	9685.14
486.43	9902.81
486.61	10052.60
486.78	10003.45
486.96	10097.07
487.14	10480.92
487.32	10303.04
487.50	10052.60
487.68	10443.47
487.85	10590.92
488.03	10403.68
488.21	10691.57
488.39	10850.72
488.57	10778.17
488.75	10897.53
488.92	11133.93
489.10	11080.10
489.28	10995.84
489.46	11302.45
489.64	11000.52
489.81	11421.81
489.99	11276.70
490.17	11435.86
490.35	11571.61
490.53	11824.39
490.70	11800.98
490.88	11852.47
491.06	11997.59
491.24	11779.92
491.41	12009.29
491.59	11995.25
491.77	12149.72
491.95	12112.27
492.13	12299.52
492.30	12170.79
492.48	12592.08
492.66	12575.70
492.84	12461.01
493.01	12699.75
493.19	12709.11
493.37	12784.01
493.54	12901.03
493.72	13107.00
493.90	12737.20
494.08	13214.66
494.25	13200.62
494.43	13268.50
494.61	13540.00
494.79	13521.27
494.96	13502.55
495.14	13518.93
495.32	13743.63
495.49	13755.33
495.67	13806.82
495.85	13949.59
496.02	13898.10
496.20	14272.59
496.38	14150.88
496.55	14235.14
496.73	14677.50
496.91	14352.16
497.09	14473.87
497.26	14661.12
497.44	14651.75
497.62	14586.22
497.79	14618.99
497.97	14820.27
498.14	14883.47
498.32	15176.03
498.50	14953.68
498.67	15140.93
498.85	14972.41
499.03	15300.08
499.20	15194.76
499.38	15370.30
499.56	15690.95
499.73	15676.91
499.91	15606.69
500.08	15316.47
500.26	15667.55
500.44	15861.81
500.61	15831.38
500.79	15637.12
500.97	16093.52
501.14	16063.10
501.32	16100.55
501.49	16030.33
501.67	15850.11
501.84	16278.43
502.02	16039.69
502.20	16397.79
502.37	16257.36
502.55	16182.46
502.72	16404.81
502.90	16168.42
503.07	16308.85
503.25	16402.47
503.43	16800.37
503.60	16812.07
503.78	16666.95
503.95	16760.58
504.13	16788.66
504.30	16648.23
504.48	16812.07
504.65	17130.38
504.83	16716.11
505.01	17378.48
505.18	17083.57
505.36	17188.89
505.53	17270.81
505.71	17139.74
505.88	17050.80
506.06	17102.29
506.23	17668.70
506.41	17467.42
506.58	17759.98
506.76	17722.54
506.93	17827.86
507.11	17373.80
507.28	17554.02
507.46	17745.94
507.63	17785.73
507.81	17987.02
507.98	17872.33
508.16	17921.48
508.33	18155.54
508.50	18246.82
508.68	18614.28
508.85	18373.21
509.03	18637.69
509.20	18689.18
509.38	18803.86
509.55	18747.69
509.73	18654.07
509.90	18583.85
510.08	18747.69
510.25	18628.32
510.42	18899.83
510.60	18845.99
510.77	19136.22
510.95	19358.57
511.12	18764.07
511.30	18909.19
511.47	18834.29
511.64	19250.91
511.82	19344.53
511.99	19290.70
512.17	19360.91
512.34	19363.25
512.51	19379.64
512.69	19377.30
512.86	19779.87
513.04	19885.19
513.21	19733.06
513.38	19747.10
513.56	19807.95
513.73	19503.68
513.90	19906.26
514.08	19763.48
514.25	20079.46
514.43	19997.54
514.60	20175.42
514.77	20072.43
514.95	20137.97
515.12	20222.23
515.29	20379.04
515.47	20201.16
515.64	20568.63
515.81	20173.08
515.99	20596.71
516.16	20568.63
516.33	20538.20
516.51	20716.08
516.68	20680.97
516.85	20463.30
517.03	20573.31
517.20	20872.90
517.37	20709.06
517.54	20744.17
517.72	20858.85
517.89	21083.55
518.06	20996.95
518.24	20615.44
518.41	20915.03
518.58	21003.97
518.75	20985.24
518.93	21474.42
519.10	21205.25
519.27	21404.20
519.45	21254.40
519.62	21579.74
519.79	21296.53
519.96	21605.49
520.14	21558.67
520.31	21324.62
520.48	21825.50
520.65	21294.19
520.83	22071.25
521.00	21577.40
521.17	21542.29
521.34	21638.25
521.52	21965.93
521.69	22036.14
521.86	22157.85
522.03	22513.61
522.20	22235.09
522.38	21994.01
522.55	22300.62
522.72	22157.85
522.89	22064.23
523.07	22398.93
523.24	22340.41
523.41	22710.22
523.58	22207.00
523.75	22644.68
523.92	22427.01
524.10	22583.83
524.27	22761.71
524.44	22822.56
524.61	23103.43
524.78	22864.69
524.96	22974.70
525.13	23035.55
525.30	22764.05
525.47	23152.58
525.64	22726.60
525.81	23234.50
525.98	23388.97
526.16	23250.88
526.33	23513.02
526.50	23225.14
526.67	23199.39
526.84	23276.63
527.01	22904.48
527.18	23365.57
527.36	23597.28
527.53	23442.81
527.70	23786.86
527.87	23625.37
528.04	23695.58
528.21	23459.19
528.38	23410.04
528.55	23810.27
528.72	23758.78
528.89	23775.16
529.07	23660.48
529.24	23840.70
529.41	23983.47
529.58	23747.08
529.75	23866.44
529.92	23850.06
530.09	24140.29
530.26	23939.00
530.43	24074.75
530.60	24194.12
530.77	24140.29
530.94	24168.37
531.11	24023.26
531.28	23953.04
531.46	23976.45
531.63	24463.28
531.80	24676.27
531.97	24580.31
532.14	24484.34
532.31	24353.27
532.48	24608.39
532.65	24114.54
532.82	24292.42
532.99	24706.70
533.16	24379.02
533.33	24790.95
533.50	24917.34
533.67	25055.43
533.84	24954.79
534.01	24582.65
534.18	24779.25
534.35	25020.33
534.52	24922.02
534.69	25083.52
534.86	25050.75
535.03	25125.65
535.20	25226.29
535.37	25149.06
535.54	25432.26
535.71	24915.00
535.88	24931.39
536.05	25083.52
536.22	25364.39
536.38	25432.26
536.55	25205.23
536.72	25383.11
536.89	25273.10
537.06	25146.72
537.23	25270.76
537.40	25312.89
537.57	25577.37
537.74	25724.83
537.91	25528.22
538.08	25792.70
538.25	25799.73
538.42	25855.90
538.59	25671.00
538.75	25413.54
538.92	25535.24
539.09	26066.55
539.26	25902.71
539.43	26211.66
539.60	25923.77
539.77	26064.21
539.94	26073.57
540.11	25986.97
540.28	26024.42
540.44	25820.79
540.61	25996.33
540.78	26068.89
540.95	26092.29
541.12	26157.83
541.29	26096.97
541.46	26352.09
541.62	26218.68
541.79	26089.95
541.96	25891.01
542.13	26331.03
542.30	26242.09
542.47	26522.95
542.63	26384.86
542.80	26340.39
542.97	26897.44
543.14	27098.72
543.31	26749.98
543.48	26862.33
543.64	26962.97
543.81	26733.60
543.98	26792.11
544.15	27190.00
544.32	26925.52
544.48	27339.80
544.65	26724.24
544.82	27140.85
544.99	26614.23
545.16	26953.61
545.32	26920.84
545.49	27627.68
545.66	27285.97
545.83	27110.43
546.00	27520.02
546.16	27241.50
546.33	27033.19
546.50	26661.04
546.67	27297.67
546.83	27023.83
547.00	27190.00
547.17	27384.27
547.34	27489.59
547.50	27611.30
547.67	27564.49
547.84	27311.71
548.00	27290.65
548.17	27608.96
548.34	27393.63
548.51	27718.96
548.67	27679.18
548.84	27470.87
549.01	27779.82
549.18	27466.19
549.34	27800.88
549.51	27501.29
549.68	27611.30
549.84	27580.87
550.01	27503.64
550.18	28037.28
550.34	28182.39
550.51	27807.90
550.68	28163.67
550.84	27835.99
551.01	27784.50
551.18	27637.05
551.34	27615.98
551.51	27845.35
551.68	27976.42
551.84	28004.51
552.01	28208.14
552.18	28477.30
552.34	27924.93
552.51	28561.56
552.68	28402.40
552.84	28072.39
553.01	28107.49
553.18	28350.91
553.34	28180.05
553.51	28561.56
553.67	28872.85
553.84	28863.49
554.01	28725.39
554.17	28552.20
554.34	28790.93
554.51	28414.10
554.67	28290.06
554.84	28596.67
555.00	28634.11
555.17	28591.98
555.33	28779.23
555.50	28510.07
555.67	28388.36
555.83	28772.21
556.00	28599.01
556.16	29076.48
556.33	28809.65
556.50	29074.13
556.66	28690.29
556.83	28772.21
556.99	28690.29
557.16	29146.69
557.32	29062.43
557.49	28917.32
557.65	28943.06
557.82	28783.91
557.98	28563.90
558.15	28896.25
558.32	28861.15
558.48	29158.39
558.65	29083.50
558.81	28978.17
558.98	29020.30
559.14	28737.10
559.31	28889.23
559.47	29273.08
559.64	29425.22
559.80	29010.94
559.97	29518.84
560.13	28840.08
560.30	29144.35
560.46	29752.89
560.63	29167.76
560.79	29078.82
560.96	29500.11
561.12	29261.38
561.29	29071.79
561.45	29832.47
561.61	29280.10
561.78	29645.23
561.94	29455.64
562.11	29439.26
562.27	29490.75
562.44	29535.22
562.60	29350.32
562.77	29881.62
562.93	29319.89
563.10	29546.92
563.26	29394.79
563.42	29813.74
563.59	29965.88
563.75	29710.76
563.92	29916.73
564.08	29387.77
564.24	29387.77
564.41	29528.20
564.57	29535.22
564.74	29242.65
564.90	29865.24
565.07	29488.41
565.23	29722.46
565.39	29771.61
565.56	30099.29
565.72	29352.66
565.88	29500.11
566.05	29811.40
566.21	29792.68
566.38	29366.70
566.54	29376.06
566.70	30099.29
566.87	30125.04
567.03	29961.20
567.19	30300.58
567.36	30150.78
567.52	30155.46
567.68	29921.41
567.85	29972.90
568.01	30040.78
568.17	29675.65
568.34	29951.84
568.50	30005.67
568.66	29979.92
568.83	30153.12
568.99	29949.50
569.15	29621.82
569.32	29970.56
569.48	30185.89
569.64	30246.74
569.81	30267.81
569.97	29837.15
570.13	29865.24
570.30	30195.25
570.46	30071.20
570.62	30129.72
570.78	29759.91
570.95	29715.44
571.11	29773.95
571.27	29820.77
571.43	29933.11
571.60	30174.19
571.76	30019.71
571.92	30141.42
572.09	29816.08
572.25	30143.76
572.41	30581.44
572.57	30127.38
572.74	30143.76
572.90	30132.06
573.06	30136.74
573.22	29673.31
573.38	30087.59
573.55	29921.41
573.71	30408.24
573.87	30431.65
574.03	29825.45
574.20	30235.04
574.36	30368.45
574.52	30092.27
574.68	30462.07
574.84	30008.01
575.01	29867.58
575.17	30228.02
575.33	30225.68
575.49	30326.32
575.65	30153.12
575.82	30433.99
575.98	30141.42
576.14	30120.35
576.30	30064.18
576.46	30398.88
576.62	30267.81
576.79	29862.90
576.95	30125.04
577.11	30370.79
577.27	30251.42
577.43	30483.14
577.59	30223.34
577.75	29991.62
577.92	29970.56
578.08	29991.62
578.24	29862.90
578.40	30239.72
578.56	30497.18
578.72	30635.27
578.88	30321.64
579.04	30670.38
579.21	29883.96
579.37	30216.32
579.53	30499.52
579.69	30328.66
579.85	30604.84
580.01	30305.26
580.17	30441.01
580.33	30373.13
580.49	30487.82
580.65	30286.53
580.82	30869.33
580.98	30026.73
581.14	30164.82
581.30	30274.83
581.46	30441.01
581.62	30237.38
581.78	30338.02
581.94	30155.46
582.10	30614.21
582.26	30132.06
582.42	30401.22
582.58	30771.02
582.74	30511.22
582.90	30181.21
583.06	30356.75
583.22	30490.16
583.38	30604.84
583.54	30485.48
583.70	30368.45
583.86	30326.32
584.02	30511.22
584.18	30429.30
584.34	30532.29
584.50	30705.49
584.66	30511.22
584.82	30143.76
584.98	30221.00
585.14	30558.03
585.30	30492.50
585.46	30347.39
585.62	30075.88
585.78	30305.26
585.94	30125.04
586.10	30501.86
586.26	30698.47
586.42	31152.53
586.58	30726.55
586.74	30417.60
586.90	30494.84
587.06	30199.93
587.22	30455.05
587.38	30307.60
587.54	30408.24
587.70	30654.00
587.86	30719.53
588.02	30663.36
588.18	30787.41
588.34	30642.29
588.49	30646.97
588.65	30684.42
588.81	30567.40
588.97	30923.16
589.13	30834.22
589.29	30665.70
589.45	30773.36
589.61	30663.36
589.77	30782.73
589.93	31115.08
590.08	30920.82
590.24	30965.29
590.40	30752.30
590.56	30829.54
590.72	30712.51
590.88	30270.15
591.04	30775.70
591.20	30771.02
591.35	31014.44
591.51	31349.14
591.67	30850.60
591.83	31232.11
591.99	31105.72
592.15	31091.68
592.31	30782.73
592.46	30773.36
592.62	30651.66
592.78	30794.43
592.94	31009.76
593.10	30831.88
593.26	31264.88
593.41	31079.97
593.57	31108.06
593.73	31161.89
593.89	31290.62
594.05	31047.21
594.20	30871.67
594.36	31028.48
594.52	30806.13
594.68	30808.47
594.84	30862.30
594.99	30993.37
595.15	30735.92
595.31	31131.47
595.47	31323.39
595.62	31061.25
595.78	31005.08
595.94	30796.77
596.10	31056.57
596.25	30958.27
596.41	30862.30
596.57	30820.17
596.73	31058.91
596.88	31077.63
597.04	30799.11
597.20	31157.21
597.36	31384.24
597.51	31543.40
597.67	31002.74
597.83	30808.47
597.99	31051.89
598.14	30948.90
598.30	31101.04
598.46	31124.44
598.61	30883.37
598.77	31007.42
598.93	31276.58
599.09	31257.85
599.24	30939.54
599.40	31241.47
599.56	31197.00
599.71	31094.02
599.87	31197.00
600.03	31449.78
600.18	31250.83
600.34	31051.89
600.50	30799.11
600.65	30904.43
600.81	31398.29
600.97	31030.82
601.12	31505.95
601.28	31468.50
601.44	31152.53
601.59	31262.54
601.75	30969.97
601.91	31166.57
602.06	30789.75
602.22	31351.48
602.37	31075.29
602.53	31412.33
602.69	31239.13
602.84	31035.50
603.00	31344.45
603.16	31433.39
603.31	31517.65
603.47	31281.26
603.62	30845.92
603.78	31129.12
603.94	31307.01
604.09	31281.26
604.25	30923.16
604.40	31255.51
604.56	30955.93
604.71	31419.35
604.87	31288.28
605.03	31374.88
605.18	31367.86
605.34	31145.51
605.49	30906.77
605.65	31009.76
605.80	30724.21
605.96	30855.28
606.12	31262.54
606.27	31201.68
606.43	30948.90
606.58	31264.88
606.74	30960.61
606.89	30721.87
607.05	31166.57
607.20	31292.96
607.36	31213.38
607.51	31381.90
607.67	30897.41
607.82	30859.96
607.98	30995.71
608.13	30745.28
608.29	30976.99
608.44	30855.28
608.60	30794.43
608.75	31138.49
608.91	31208.70
609.06	30635.27
609.22	30916.14
609.37	30703.15
609.53	30785.07
609.68	30848.26
609.84	31019.12
609.99	31342.11
610.15	30455.05
610.30	30567.40
610.46	30871.67
610.61	31105.72
610.76	30941.88
610.92	30850.60
611.07	31192.32
611.23	30904.43
611.38	30789.75
611.54	30710.17
611.69	30218.66
611.84	30560.37
612.00	30630.59
612.15	30738.26
612.31	30689.10
612.46	31028.48
612.62	30323.98
612.77	30525.27
612.92	30841.24
613.08	30862.30
613.23	30366.11
613.39	30670.38
613.54	30691.44
613.69	30307.60
613.85	30532.29
614.00	30707.83
614.15	30890.39
614.31	30604.84
614.46	30504.20
614.62	30724.21
614.77	30747.62
614.92	30740.60
615.08	30387.18
615.23	30651.66
615.38	30658.68
615.54	29635.86
615.69	30256.11
615.84	30452.71
616.00	30291.21
616.15	30132.06
616.30	30731.23
616.46	30721.87
616.61	30450.37
616.76	30443.35
616.92	30469.09
617.07	30050.14
617.22	30541.65
617.37	30251.42
617.53	30455.05
617.68	30139.08
617.83	29965.88
617.99	30216.32
618.14	30321.64
618.29	30347.39
618.45	29944.81
618.60	30445.69
618.75	29982.26
618.90	30204.61
619.06	30106.31
619.21	30258.45
619.36	30033.75
619.51	30022.05
619.67	29666.29
619.82	29858.21
619.97	30110.99
620.12	30061.84
620.28	30010.35
620.43	30029.07
620.58	30419.94
620.73	30010.35
620.89	30340.36
621.04	29996.31
621.19	30162.48
621.34	29827.79
621.49	29457.98
621.65	29790.34
621.80	29778.64
621.95	29900.34
622.10	29757.57
622.25	29830.13
622.41	29827.79
622.56	29972.90
622.71	30022.05
622.86	29841.83
623.01	29680.33
623.16	29797.36
623.32	29923.75
623.47	29373.72
623.62	29525.86
623.77	29273.08
623.92	29579.69
624.07	29673.31
624.23	29701.40
624.38	29797.36
624.53	29324.57
624.68	29979.92
624.83	29626.50
624.98	29743.53
625.13	29200.52
625.29	29771.61
625.44	29324.57
625.59	29359.68
625.74	29275.42
625.89	29179.46
626.04	28917.32
626.19	29275.42
626.34	29495.43
626.49	29219.25
626.65	29088.18
626.80	29301.17
626.95	29324.57
627.10	29083.50
627.25	29230.95
627.40	29027.32
627.55	28957.11
627.70	29010.94
627.85	29067.11
628.00	29029.66
628.15	28760.50
628.30	28985.19
628.45	28912.64
628.60	28889.23
628.76	29104.56
628.91	29273.08
629.06	29134.99
629.21	29067.11
629.36	28933.70
629.51	29256.70
629.66	29060.09
629.81	28683.27
629.96	28793.27
630.11	28650.50
630.26	28961.79
630.41	28802.63
630.56	28704.33
630.71	28947.75
630.86	29153.71
631.01	28503.04
631.16	28893.91
631.31	28910.30
631.46	28842.42
631.61	28961.79
631.76	28379.00
631.91	28608.37
632.06	28652.84
632.21	27992.81
632.36	28432.83
632.51	28489.00
632.66	28790.93
632.81	28395.38
632.96	28638.80
633.10	28428.15
633.25	28849.44
633.40	28783.91
633.55	28584.96
633.70	28088.77
633.85	28191.75
634.00	28620.07
634.15	28154.30
634.30	28304.10
634.45	28058.34
634.60	28479.64
634.75	28126.22
634.90	28591.98
635.05	28283.03
635.19	28472.62
635.34	28723.05
635.49	28498.36
635.64	28051.32
635.79	28257.29
635.94	28058.34
636.09	28268.99
636.24	28142.60
636.39	28002.17
636.53	28093.45
636.68	27828.97
636.83	28346.23
636.98	28292.40
637.13	28285.37
637.28	27735.35
637.43	28430.49
637.57	28292.40
637.72	27552.79
637.87	27927.27
638.02	28098.13
638.17	28070.04
638.32	27840.67
638.46	28020.89
638.61	27740.03
638.76	27374.91
638.91	28126.22
639.06	27206.39
639.20	27697.90
639.35	28079.41
639.50	27859.40
639.65	28044.30
639.80	28128.56
639.94	27875.78
640.09	27964.72
640.24	27543.42
640.39	27775.14
640.54	27557.47
640.68	27307.03
640.83	27864.08
640.98	27510.66
641.13	27599.60
641.27	27695.56
641.42	27489.59
641.57	27517.68
641.72	27550.45
641.86	27555.13
642.01	27339.80
642.16	27522.36
642.31	27517.68
642.45	27192.34
642.60	27175.96
642.75	27332.78
642.90	27323.41
643.04	27005.10
643.19	27119.79
643.34	27180.64
643.48	27227.45
643.63	27033.19
643.78	27316.39
643.93	27276.60
644.07	27594.92
644.22	27475.55
644.37	27192.34
644.51	27482.57
644.66	27035.53
644.81	27040.21
644.95	26930.20
645.10	26747.64
645.25	27016.80
645.39	27215.75
645.54	27082.34
645.69	27152.55
645.83	27026.17
645.98	26951.27
646.13	27061.27
646.27	26993.40
646.42	27171.28
646.57	26904.46
646.71	26981.70
646.86	26834.24
647.00	26848.29
647.15	26977.01
647.30	26930.20
647.44	26923.18
647.59	26642.32
647.74	26883.39
647.88	26869.35
648.03	27140.85
648.17	27068.30
648.32	26719.56
648.47	27033.19
648.61	26848.29
648.76	26848.29
648.90	26738.28
649.05	26785.09
649.20	26733.60
649.34	26677.43
649.49	26471.46
649.63	26469.12
649.78	26450.39
649.92	26263.15
650.07	26808.50
650.21	26686.79
650.36	26595.51
650.51	26478.48
650.65	26740.62
650.80	26630.62
650.94	26373.16
651.09	26661.04
651.23	26118.04
651.38	26335.71
651.52	26078.25
651.67	26625.93
651.81	26504.23
651.96	26536.99
652.10	26452.73
652.25	26338.05
652.39	26429.33
652.54	26494.86
652.68	26120.38
652.83	26214.00
652.97	26251.45
653.12	26455.08
653.26	26242.09
653.41	26256.13
653.55	25975.27
653.70	26012.71
653.84	26195.28
653.99	25968.24
654.13	26291.24
654.27	26005.69
654.42	26118.04
654.56	25965.90
654.71	26316.98
654.85	26436.35
655.00	26363.79
655.14	26010.37
655.29	26389.54
655.43	26132.08
655.57	26178.89
655.72	25891.01
655.86	25441.62
656.01	25912.07
656.15	25797.38
656.30	25975.27
656.44	25858.24
656.58	25750.57
656.73	25853.56
656.87	25596.10
657.01	25591.42
657.16	26047.82
657.30	25919.09
657.45	26099.31
657.59	25652.27
657.73	25502.48
657.88	25537.59
658.02	25474.39
658.16	25369.07
658.31	25549.29
658.45	25099.90
658.60	25355.02
658.74	25518.86
658.88	25333.96
659.03	25280.13
659.17	25252.04
659.31	25486.09
659.46	25455.67
659.60	25872.28
659.74	25539.93
659.89	25022.67
660.03	25001.60
660.17	25259.06
660.32	25256.72
660.46	25174.80
660.60	24690.31
660.74	25247.36
660.89	24929.05
661.03	24727.76
661.17	24898.62
661.32	24444.56
661.46	25252.04
661.60	25015.65
661.74	25006.28
661.89	25207.57
662.03	25046.07
662.17	24872.87
662.31	24533.50
662.46	25113.95
662.60	24844.79
662.74	24622.44
662.88	24802.66
663.03	24212.84
663.17	24467.96
663.31	24034.96
663.45	24528.81
663.60	24769.89
663.74	24254.97
663.88	24439.87
664.02	24219.86
664.17	24374.34
664.31	24259.65
664.45	24437.53
664.59	24400.08
664.73	24505.41
664.88	24126.24
665.02	24009.22
665.16	24257.31
665.30	24245.61
665.44	24002.19
665.59	23941.34
665.73	23777.50
665.87	23665.16
666.01	23880.49
666.15	24154.33
666.29	23934.32
666.44	23681.54
666.58	23878.15
666.72	24025.60
666.86	23826.65
667.00	23690.90
667.14	23592.60
667.28	23620.69
667.43	23627.71
667.57	23686.22
667.71	23704.95
667.85	23592.60
667.99	23449.83
668.13	23697.92
668.27	23388.97
668.41	23578.56
668.56	23311.74
668.70	23494.30
668.84	23431.10
668.98	23616.01
669.12	23566.85
669.26	23094.07
669.40	23161.94
669.54	23211.09
669.68	23491.96
669.82	23269.61
669.96	22986.40
670.10	22808.52
670.25	23070.66
670.39	22988.74
670.53	22700.86
670.67	22721.92
670.81	22719.58
670.95	22909.16
671.09	22726.60
671.23	22761.71
671.37	22841.29
671.51	22560.42
671.65	22745.33
671.79	22682.13
671.93	22518.29
672.07	22558.08
672.21	22387.22
672.35	22396.59
672.49	21961.25
672.63	22321.69
672.77	22228.07
672.91	22087.64
673.05	22174.24
673.19	22136.79
673.33	22171.89
673.47	22017.42
673.61	22181.26
673.75	21994.01
673.89	21708.47
674.03	21888.69
674.17	22019.76
674.31	21921.46
674.45	21596.12
674.59	21851.24
674.73	21661.66
674.87	21254.40
675.01	21633.57
675.15	21607.83
675.29	21781.03
675.43	21341.00
675.56	21682.72
675.70	21324.62
675.84	21418.24
675.98	20809.70
676.12	21387.82
676.26	21443.99
676.40	21231.00
676.54	21228.66
676.68	21390.16
676.82	20549.90
676.96	20599.05
677.10	20634.16
677.23	20683.31
677.37	20652.89
677.51	20851.83
677.65	20673.95
677.79	20641.18
677.93	20521.82
678.07	20570.97
678.21	20327.55
678.34	20189.46
678.48	20135.63
678.62	20135.63
678.76	19941.36
678.90	20116.90
679.04	20063.07
679.18	20070.09
679.31	19917.96
679.45	19857.10
679.59	19730.72
679.73	19658.16
679.87	19695.61
680.00	19267.29
680.14	19311.76
680.28	19447.51
680.42	19342.19
680.56	19431.13
680.70	19412.40
680.83	19440.49
680.97	19206.44
681.11	19379.64
681.25	19042.60
681.39	19211.12
681.52	19239.20
681.66	18841.31
681.80	18773.44
681.94	18806.20
682.07	18806.20
682.21	18579.17
682.35	18553.43
682.49	18394.27
682.62	18492.57
682.76	18448.10
682.90	18721.95
683.04	18874.08
683.17	18682.16
683.31	18586.19
683.45	18654.07
683.59	18401.29
683.72	18190.64
683.86	18630.66
684.00	17811.48
684.13	17923.82
684.27	18047.87
684.41	17977.65
684.55	17720.20
684.68	17521.25
684.82	17933.18
684.96	17617.21
685.09	17504.87
685.23	17495.50
685.37	17474.44
685.50	17767.01
685.64	17207.62
685.78	17572.74
685.91	17537.63
686.05	17544.66
686.19	17226.34
686.32	16971.22
686.46	17146.76
686.60	16975.91
686.73	17130.38
686.87	16788.66
687.01	16842.50
687.14	16666.95
687.28	16402.47
687.42	16365.03
687.55	16596.74
687.69	16718.45
687.82	16201.19
687.96	16416.52
688.10	16489.07
688.23	16489.07
688.37	16350.98
688.50	16437.58
688.64	16301.83
688.78	16482.05
688.91	16259.70
689.05	15803.30
689.18	16095.86
689.32	15847.77
689.46	15616.05
689.59	15939.05
689.73	15742.44
689.86	15585.63
690.00	15704.99
690.13	15468.60
690.27	15674.57
690.41	15676.91
690.54	15484.98
690.68	15147.95
690.81	15557.54
690.95	15480.30
691.08	15314.13
691.22	15346.89
691.35	15094.11
691.49	15412.43
691.62	15161.99
691.76	14979.43
691.89	14937.30
692.03	14874.10
692.16	14885.81
692.30	14778.14
692.43	14562.81
692.57	14621.33
692.70	14602.60
692.84	14902.19
692.97	14300.67
693.11	14616.65
693.24	14258.54
693.38	14686.86
693.51	14384.93
693.65	14457.49
693.78	14396.64
693.92	14029.17
694.05	13930.87
694.19	14068.96
694.32	14085.34
694.45	13865.33
694.59	13547.02
694.72	13839.59
694.86	13596.17
694.99	13530.64
695.13	13734.26
695.26	13729.58
695.39	13383.18
695.53	13689.79
695.66	13572.77
695.80	13289.56
695.93	13633.62
696.07	13392.55
696.20	13535.32
696.33	13170.19
696.47	13270.84
696.60	13048.49
696.73	13050.83
696.87	12894.01
697.00	12716.13
697.14	12608.47
697.27	12589.74
697.40	12774.64
697.54	12695.07
697.67	12592.08
697.80	12512.50
697.94	12491.44
698.07	12631.87
698.21	12325.26
698.34	12257.39
698.47	12334.62
698.61	12376.75
698.74	12369.73
698.87	12512.50
699.01	12189.51
699.14	12140.36
699.27	12100.57
699.40	12278.45
699.54	12224.62
699.67	12025.67
699.80	11843.11
699.94	11716.72
700.07	11698.00
700.20	11428.84
700.34	11508.41
700.47	11239.25
700.60	11737.79
700.73	11669.91
700.87	11466.28
701.00	11136.27
701.13	11356.28
701.26	11403.09
701.40	11417.13
701.53	11424.15
701.66	11225.21
701.79	11302.45
701.93	11023.92
702.06	11122.23
702.19	10977.11
702.32	10888.17
702.46	10876.47
702.59	10913.92
702.72	10754.76
702.85	10738.38
702.99	10719.65
703.12	10705.61
703.25	10602.63
703.38	10513.69
703.51	10441.13
703.65	10747.74
703.78	10429.43
703.91	10511.35
704.04	10558.16
704.17	10457.51
704.31	10420.06
704.44	10314.74
704.57	9989.41
704.70	10209.42
704.83	10153.24
704.96	9898.13
705.10	10029.20
705.23	9991.75
>>>>>End Processed Spectral Data<<<<<
