SpectraSuite Data File
++++++++++++++++++++++++++++++++++++
Date: Fri Oct 18 13:58:26 GMT-05:00 2013
User: bianchi
Dark Spectrum Present: No
Reference Spectrum Present: No
Number of Sampled Component Spectra: 1
Spectrometers: USB2+H05261
Integration Time (usec): 50000 (USB2+H05261)
Spectra Averaged: 1 (USB2+H05261)
Boxcar Smoothing: 0 (USB2+H05261)
Correct for Electrical Dark: No (USB2+H05261)
Strobe/Lamp Enabled: No (USB2+H05261)
Correct for Detector Non-linearity: No (USB2+H05261)
Correct for Stray Light: No (USB2+H05261)
Number of Pixels in Processed Spectrum: 2048
>>>>>Begin Processed Spectral Data<<<<<
365.73	14.04
365.92	14.04
366.12	14.04
366.32	0.00
366.52	0.00
366.72	0.00
366.91	0.00
367.11	0.00
367.31	0.00
367.51	0.00
367.70	0.00
367.90	0.00
368.10	0.00
368.30	0.00
368.49	0.00
368.69	0.00
368.89	0.00
369.09	0.00
369.28	0.00
369.48	0.00
369.68	0.00
369.87	0.00
370.07	0.00
370.27	0.00
370.47	0.00
370.66	84.26
370.86	119.37
371.06	91.28
371.25	21.06
371.45	39.79
371.65	135.75
371.84	145.11
372.04	145.11
372.24	163.84
372.44	189.58
372.63	126.39
372.83	212.99
373.03	210.65
373.22	147.45
373.42	177.88
373.62	250.44
373.81	196.60
374.01	215.33
374.21	191.92
374.40	231.71
374.60	191.92
374.79	229.37
374.99	224.69
375.19	191.92
375.38	238.73
375.58	259.80
375.78	250.44
375.97	262.14
376.17	327.68
376.37	269.16
376.56	241.08
376.76	355.76
376.95	315.97
377.15	250.44
377.35	308.95
377.54	220.01
377.74	297.25
377.93	217.67
378.13	189.58
378.33	315.97
378.52	325.33
378.72	245.76
378.91	348.74
379.11	238.73
379.31	278.52
379.50	257.46
379.70	337.04
379.89	252.78
380.09	327.68
380.28	353.42
380.48	292.57
380.68	276.18
380.87	311.29
381.07	346.40
381.26	381.51
381.46	292.57
381.65	346.40
381.85	341.72
382.04	358.10
382.24	287.89
382.43	341.72
382.63	327.68
382.83	327.68
383.02	341.72
383.22	318.31
383.41	360.44
383.61	418.96
383.80	414.27
384.00	353.42
384.19	318.31
384.39	346.40
384.58	320.65
384.78	308.95
384.97	362.78
385.17	355.76
385.36	360.44
385.56	383.85
385.75	414.27
385.95	327.68
386.14	400.23
386.34	433.00
386.53	334.70
386.72	344.06
386.92	407.25
387.11	458.74
387.31	416.62
387.50	351.08
387.70	449.38
387.89	463.43
388.09	435.34
388.28	409.59
388.48	433.00
388.67	393.21
388.86	355.76
389.06	367.46
389.25	503.22
389.45	463.43
389.64	423.64
389.84	423.64
390.03	449.38
390.22	435.34
390.42	421.30
390.61	451.72
390.81	533.64
391.00	456.40
391.19	528.96
391.39	557.05
391.58	500.87
391.78	514.92
391.97	475.13
392.16	594.50
392.36	510.24
392.55	510.24
392.75	531.30
392.94	449.38
393.13	505.56
393.33	521.94
393.52	416.62
393.71	566.41
393.91	566.41
394.10	545.34
394.29	629.60
394.49	552.37
394.68	543.00
394.88	535.98
395.07	655.35
395.26	545.34
395.46	627.26
395.65	552.37
395.84	688.12
396.04	732.59
396.23	706.84
396.42	641.31
396.62	683.44
396.81	676.41
397.00	620.24
397.19	660.03
397.39	723.23
397.58	671.73
397.77	758.33
397.97	678.76
398.16	683.44
398.35	781.74
398.55	718.54
398.74	660.03
398.93	723.23
399.12	704.50
399.32	662.37
399.51	634.29
399.70	765.36
399.90	744.29
400.09	781.74
400.28	695.14
400.47	779.40
400.67	716.20
400.86	751.31
401.05	732.59
401.24	767.70
401.44	765.36
401.63	854.30
401.82	791.10
402.01	741.95
402.21	755.99
402.40	763.01
402.59	798.12
402.78	802.80
402.97	828.55
403.17	880.04
403.36	931.53
403.55	889.40
403.74	861.32
403.93	837.91
404.13	915.15
404.32	947.92
404.51	873.02
404.70	924.51
404.89	844.93
405.09	1001.75
405.28	950.26
405.47	889.40
405.66	903.45
405.85	915.15
406.05	1022.81
406.24	943.24
406.43	978.34
406.62	973.66
406.81	1107.07
407.00	1053.24
407.20	912.81
407.39	1018.13
407.58	1008.77
407.77	1093.03
407.96	947.92
408.15	1041.54
408.34	971.32
408.54	1076.65
408.73	1048.56
408.92	1076.65
409.11	1111.75
409.30	1158.57
409.49	1102.39
409.68	1090.69
409.87	1114.10
410.07	1104.73
410.26	1193.67
410.45	1118.78
410.64	1177.29
410.83	1186.65
411.02	1203.04
411.21	1259.21
411.40	1259.21
411.59	1118.78
411.78	1266.23
411.98	1345.81
412.17	1366.87
412.36	1247.51
412.55	1301.34
412.74	1343.47
412.93	1268.57
413.12	1355.17
413.31	1469.86
413.50	1387.94
413.69	1397.30
413.88	1420.71
414.07	1423.05
414.26	1341.13
414.45	1378.58
414.64	1526.03
414.83	1490.92
415.02	1526.03
415.22	1535.39
415.41	1565.82
415.60	1540.07
415.79	1556.46
415.98	1521.35
416.17	1486.24
416.36	1636.03
416.55	1673.48
416.74	1549.43
416.93	1600.93
417.12	1589.22
417.31	1753.06
417.50	1661.78
417.69	1724.97
417.88	1713.27
418.07	1746.04
418.26	1776.47
418.45	1729.66
418.64	1781.15
418.83	1659.44
419.02	1722.63
419.21	1856.04
419.39	1771.79
419.58	1778.81
419.77	1743.70
419.96	1893.49
420.15	1788.17
420.34	1856.04
420.53	1842.00
420.72	1933.28
420.91	1849.02
421.10	1930.94
421.29	1963.71
421.48	1839.66
421.67	1858.39
421.86	1823.28
422.05	2019.88
422.24	1813.92
422.43	2050.31
422.61	2010.52
422.80	2043.29
422.99	2071.37
423.18	2069.03
423.37	2052.65
423.56	1895.83
423.75	1973.07
423.94	1949.67
424.13	1830.30
424.32	1811.57
424.50	1975.41
424.69	2050.31
424.88	2090.10
425.07	1966.05
425.26	1954.35
425.45	2003.50
425.64	2036.27
425.83	2073.71
426.01	2085.42
426.20	2099.46
426.39	2057.33
426.58	2033.93
426.77	2036.27
426.96	2129.89
427.15	2083.08
427.33	2045.63
427.52	2057.33
427.71	2087.76
427.90	2111.16
428.09	2188.40
428.28	2115.84
428.46	2174.36
428.65	2228.19
428.84	2202.44
429.03	2214.15
429.22	2160.31
429.40	2214.15
429.59	2202.44
429.78	2111.16
429.97	2139.25
430.16	2209.47
430.34	2307.77
430.53	2340.54
430.72	2162.66
430.91	2251.60
431.10	2239.89
431.28	2326.49
431.47	2445.86
431.66	2263.30
431.85	2347.56
432.03	2349.90
432.22	2483.31
432.41	2275.00
432.60	2469.27
432.79	2438.84
432.97	2443.52
433.16	2448.20
433.35	2354.58
433.54	2375.64
433.72	2497.35
433.91	2487.99
434.10	2513.74
434.28	2420.11
434.47	2539.48
434.66	2588.63
434.85	2562.89
435.03	2544.16
435.22	2553.52
435.41	2635.44
435.59	2504.37
435.78	2569.91
435.97	2541.82
436.16	2715.02
436.34	2607.36
436.53	2679.91
436.72	2672.89
436.90	2670.55
437.09	2597.99
437.28	2679.91
437.46	2803.96
437.65	2684.59
437.84	2771.19
438.02	2672.89
438.21	2745.45
438.40	2810.98
438.58	2864.82
438.77	2825.03
438.96	2715.02
439.14	2878.86
439.33	2897.58
439.52	2960.78
439.70	2928.01
439.89	2890.56
440.08	3138.66
440.26	2986.52
440.45	2895.24
440.63	3042.70
440.82	3126.96
441.01	3056.74
441.19	3166.74
441.38	3225.26
441.57	3225.26
441.75	3124.62
441.94	3433.57
442.12	3208.87
442.31	3229.94
442.50	3330.58
442.68	3363.35
442.87	3363.35
443.05	3222.92
443.24	3365.69
443.43	3328.24
443.61	3297.81
443.80	3400.80
443.98	3304.84
444.17	3185.47
444.35	3220.58
444.54	3520.17
444.73	3337.60
444.91	3412.50
445.10	3353.99
445.28	3424.20
445.47	3421.86
445.65	3440.59
445.84	3555.27
446.02	3417.18
446.21	3452.29
446.39	3478.04
446.58	3412.50
446.77	3611.45
446.95	3342.28
447.14	3424.20
447.32	3524.85
447.51	3332.92
447.69	3431.23
447.88	3494.42
448.06	3548.25
448.25	3529.53
448.43	3461.65
448.62	3412.50
448.80	3414.84
448.99	3541.23
449.17	3534.21
449.36	3510.80
449.54	3482.72
449.73	3637.19
449.91	3599.74
450.10	3686.34
450.28	3592.72
450.46	3728.47
450.65	3744.86
450.83	3581.02
451.02	3676.98
451.20	3808.05
451.39	3749.54
451.57	3737.84
451.76	3733.15
451.94	3775.28
452.13	3866.56
452.31	3908.69
452.49	3850.18
452.68	3880.61
452.86	3803.37
453.05	3974.23
453.23	3896.99
453.42	3889.97
453.60	3737.84
453.78	4042.11
453.97	3709.75
454.15	3819.75
454.34	4030.40
454.52	3962.53
454.70	3868.91
454.89	3911.04
455.07	4018.70
455.26	3990.61
455.44	4018.70
455.62	4109.98
455.81	4014.02
455.99	4114.66
456.17	3988.27
456.36	4152.11
456.54	4088.92
456.73	4156.79
456.91	4234.03
457.09	4210.62
457.28	4311.27
457.46	4201.26
457.64	4482.13
457.83	4259.78
458.01	4140.41
458.19	4362.76
458.38	4285.52
458.56	4482.13
458.74	4318.29
458.93	4369.78
459.11	4339.35
459.29	4311.27
459.48	4418.93
459.66	4451.70
459.84	4561.70
460.03	4652.98
460.21	4519.57
460.39	4414.25
460.57	4369.78
460.76	4533.62
460.94	4512.55
461.12	4608.51
461.31	4645.96
461.49	4638.94
461.67	4631.92
461.85	4802.78
462.04	4606.17
462.22	4718.52
462.40	4723.20
462.59	4709.16
462.77	4753.63
462.95	4723.20
463.13	4695.11
463.32	4723.20
463.50	4936.19
463.68	4697.46
463.86	4823.84
464.05	4870.65
464.23	4746.61
464.41	4821.50
464.59	4779.37
464.78	5015.77
464.96	4898.74
465.14	4718.52
465.32	4812.14
465.50	4938.53
465.69	4952.57
465.87	4938.53
466.05	4910.44
466.23	4971.30
466.41	5018.11
466.60	5163.22
466.78	5039.17
466.96	4901.08
467.14	4959.60
467.32	5109.39
467.51	5200.67
467.69	4961.94
467.87	5069.60
468.05	5097.69
468.23	5093.01
468.41	5151.52
468.60	5118.75
468.78	5305.99
468.96	5097.69
469.14	5100.03
469.32	5296.63
469.50	5186.63
469.69	5268.55
469.87	5263.86
470.05	5455.79
470.23	5390.25
470.41	5373.87
470.59	5385.57
470.77	5305.99
470.95	5500.26
471.14	5434.72
471.32	5453.45
471.50	5769.42
471.68	5556.43
471.86	5544.73
472.04	5526.00
472.22	5579.84
472.40	5495.58
472.58	5558.77
472.77	5715.59
472.95	5865.38
473.13	5858.36
473.31	5738.99
473.49	5867.72
473.67	5748.36
473.85	5951.98
474.03	5877.09
474.21	6003.47
474.39	6019.86
474.57	5970.71
474.75	6127.52
474.93	6054.97
475.12	6211.78
475.30	6246.89
475.48	6160.29
475.66	6139.23
475.84	6129.86
476.02	6258.59
476.20	6181.35
476.38	6331.15
476.56	6478.60
476.74	6354.55
476.92	6485.62
477.10	6464.56
477.28	6663.51
477.46	6579.25
477.64	6642.44
477.82	6572.22
478.00	6825.00
478.18	6967.77
478.36	6836.70
478.54	7098.84
478.72	6939.69
478.90	7098.84
479.08	7122.25
479.26	7054.37
479.44	7269.70
479.62	7279.07
479.80	7229.91
479.98	7276.73
480.16	7414.82
480.34	7506.10
480.52	7513.12
480.70	7606.74
480.88	7541.21
481.06	7585.68
481.24	7557.59
481.41	7613.76
481.59	7903.99
481.77	7927.39
481.95	8072.51
482.13	7983.57
482.31	8032.72
482.49	8175.49
482.67	8217.62
482.85	8250.39
483.03	8475.08
483.21	8301.88
483.39	8446.99
483.57	8402.52
483.74	8725.52
483.92	8608.49
484.10	8638.92
484.28	8830.84
484.46	8945.53
484.64	8933.82
484.82	8835.52
485.00	9149.15
485.18	9329.38
485.35	9277.88
485.53	9226.39
485.71	9167.88
485.89	9488.53
486.07	9413.63
486.25	9446.40
486.43	9619.60
486.61	9596.20
486.78	9809.19
486.96	9888.76
487.14	10045.58
487.32	9870.04
487.50	10078.35
487.68	10223.46
487.85	10232.82
488.03	10298.36
488.21	10443.47
488.39	10511.35
488.57	10654.12
488.75	10448.15
488.92	10733.70
489.10	10817.96
489.28	10860.09
489.46	10892.85
489.64	10885.83
489.81	11236.91
489.99	11171.38
490.17	11222.87
490.35	11377.34
490.53	11564.59
490.70	11414.79
490.88	11585.65
491.06	11669.91
491.24	11651.19
491.41	11679.27
491.59	11803.32
491.77	11843.11
491.95	11885.24
492.13	11868.86
492.30	12086.53
492.48	12159.08
492.66	12313.56
492.84	12311.22
493.01	12304.20
493.19	12489.10
493.37	12666.98
493.54	12655.28
493.72	12774.64
493.90	12929.12
494.08	12978.27
494.25	12896.35
494.43	12992.31
494.61	13167.85
494.79	13252.11
494.96	13212.32
495.14	13207.64
495.32	13327.01
495.49	13350.42
495.67	13549.36
495.85	13591.49
496.02	13886.40
496.20	13752.99
496.38	13481.49
496.55	13980.02
496.73	13975.34
496.91	14092.37
497.09	14010.45
497.26	14209.39
497.44	14120.45
497.62	14469.19
497.79	14532.39
497.97	14553.45
498.14	14672.82
498.32	14902.19
498.50	14590.90
498.67	15019.22
498.85	14724.31
499.03	14937.30
499.20	14888.15
499.38	14918.57
499.56	14918.57
499.73	14995.81
499.91	15232.21
500.08	15255.61
500.26	15112.84
500.44	15477.96
500.61	15309.44
500.79	15218.16
500.97	15555.20
501.14	15770.53
501.32	15693.29
501.49	15789.25
501.67	15644.14
501.84	15548.18
502.02	15878.19
502.20	16030.33
502.37	16035.01
502.55	16056.08
502.72	16088.84
502.90	15974.16
503.07	16341.62
503.25	15974.16
503.43	16084.16
503.60	16304.17
503.78	16477.37
503.95	16264.38
504.13	16388.43
504.30	16294.81
504.48	16140.33
504.65	16781.64
504.83	16641.21
505.01	17130.38
505.18	16985.27
505.36	17008.67
505.53	16791.00
505.71	16889.31
505.88	16879.94
506.06	16989.95
506.23	17032.08
506.41	17029.74
506.58	17228.68
506.76	17177.19
506.93	17362.09
507.11	17308.26
507.28	17268.47
507.46	17418.27
507.63	17490.82
507.81	17621.89
507.98	17504.87
508.16	17886.37
508.33	17441.67
508.50	17645.30
508.68	17783.39
508.85	18377.89
509.03	18087.66
509.20	18363.84
509.38	18485.55
509.55	18059.57
509.73	18258.52
509.90	18384.91
510.08	18391.93
510.25	18317.03
510.42	18251.50
510.60	18504.28
510.77	18492.57
510.95	18689.18
511.12	18464.49
511.30	18483.21
511.47	18614.28
511.64	18590.88
511.82	18808.54
511.99	18831.95
512.17	19122.18
512.34	19033.24
512.51	19002.81
512.69	18771.10
512.86	19044.94
513.04	19056.64
513.21	19119.84
513.38	19445.17
513.56	19262.61
513.73	19014.51
513.90	19580.92
514.08	19325.80
514.25	19616.03
514.43	19543.47
514.60	19384.32
514.77	19658.16
514.95	19646.46
515.12	19672.20
515.29	19580.92
515.47	19882.85
515.64	19798.59
515.81	19866.47
515.99	19985.83
516.16	20093.50
516.33	20226.91
516.51	20414.15
516.68	20135.63
516.85	20086.48
517.03	20013.92
517.20	20531.18
517.37	20149.67
517.54	20011.58
517.72	20540.54
517.89	20566.29
518.06	20194.14
518.24	20451.60
518.41	20215.21
518.58	20676.29
518.75	20615.44
518.93	20748.85
519.10	20842.47
519.27	20695.02
519.45	20702.04
519.62	20390.75
519.79	21018.01
519.96	21020.35
520.14	21202.91
520.31	21111.63
520.48	21174.83
520.65	20746.51
520.83	21198.23
521.00	21301.22
521.17	21319.94
521.34	21270.79
521.52	21603.14
521.69	21624.21
521.86	21525.91
522.03	21380.79
522.20	21593.78
522.38	21277.81
522.55	21820.81
522.72	21394.84
522.89	21514.20
523.07	22008.06
523.24	21818.47
523.41	22183.60
523.58	21745.92
523.75	21874.65
523.92	21914.44
524.10	21736.56
524.27	22045.51
524.44	22686.81
524.61	22331.05
524.78	22324.03
524.96	21958.91
525.13	21895.71
525.30	22242.11
525.47	22082.95
525.64	22686.81
525.81	22471.48
525.98	22616.60
526.16	22647.02
526.33	22630.64
526.50	22937.25
526.67	22520.63
526.84	22459.78
527.01	22363.82
527.18	22714.90
527.36	22951.29
527.53	22911.50
527.70	22911.50
527.87	22771.07
528.04	22923.21
528.21	22864.69
528.38	22663.41
528.55	23323.44
528.72	23288.33
528.89	23129.17
529.07	23026.19
529.24	23180.67
529.41	23260.24
529.58	23316.42
529.75	23192.37
529.92	23077.68
530.09	23328.12
530.26	23536.43
530.43	23473.23
530.60	23248.54
530.77	23690.90
530.94	23690.90
531.11	23410.04
531.28	23627.71
531.46	23515.36
531.63	23644.09
531.80	23484.94
531.97	23765.80
532.14	23908.57
532.31	23718.99
532.48	23838.36
532.65	23828.99
532.82	23838.36
532.99	23892.19
533.16	23747.08
533.33	24009.22
533.50	24100.50
533.67	24243.27
533.84	23983.47
534.01	24011.56
534.18	23814.95
534.35	24360.30
534.52	24442.21
534.69	24191.78
534.86	24503.07
535.03	24357.96
535.20	24388.38
535.37	24339.23
535.54	24760.53
535.71	24329.87
535.88	24596.69
536.05	24589.67
536.22	24755.85
536.38	24858.83
536.55	24779.25
536.72	24807.34
536.89	24538.18
537.06	24940.75
537.23	24905.64
537.40	24805.00
537.57	25006.28
537.74	24528.81
537.91	24854.15
538.08	24950.11
538.25	25017.99
538.42	24987.56
538.59	25041.39
538.75	24903.30
538.92	25078.84
539.09	25303.53
539.26	25156.08
539.43	25245.02
539.60	25596.10
539.77	25092.88
539.94	25516.52
540.11	25305.87
540.28	25479.07
540.44	25301.19
540.61	25324.60
540.78	25163.10
540.95	25598.44
541.12	25490.77
541.29	25186.50
541.46	25378.43
541.62	25312.89
541.79	25530.56
541.96	25383.11
542.13	25631.21
542.30	25582.06
542.47	25586.74
542.63	25926.11
542.80	26244.43
542.97	26010.37
543.14	26139.10
543.31	25914.41
543.48	26230.38
543.64	25766.96
543.81	26054.84
543.98	26288.90
544.15	26522.95
544.32	26352.09
544.48	26197.62
544.65	25905.05
544.82	26066.55
544.99	26235.06
545.16	26033.78
545.32	26129.74
545.49	26677.43
545.66	26581.46
545.83	26651.68
546.00	26724.24
546.16	26527.63
546.33	26188.25
546.50	25951.86
546.67	26363.79
546.83	26347.41
547.00	26698.49
547.17	26560.40
547.34	26597.85
547.50	26590.83
547.67	26986.38
547.84	26941.91
548.00	26717.22
548.17	26719.56
548.34	26768.71
548.51	26803.82
548.67	27180.64
548.84	27082.34
549.01	27042.55
549.18	27063.61
549.34	26768.71
549.51	26869.35
549.68	26977.01
549.84	27379.59
550.01	26974.67
550.18	27082.34
550.34	27213.41
550.51	27147.87
550.68	27367.88
550.84	26874.03
551.01	27402.99
551.18	27068.30
551.34	27021.48
551.51	27143.19
551.68	27351.50
551.84	27145.53
552.01	26824.88
552.18	27398.31
552.34	27028.51
552.51	27309.37
552.68	26927.86
552.84	27311.71
553.01	27990.47
553.18	27449.80
553.34	27707.26
553.51	27054.25
553.67	27564.49
553.84	27772.80
554.01	27758.75
554.17	27695.56
554.34	27538.74
554.51	27360.86
554.67	27892.16
554.84	27938.97
555.00	27740.03
555.17	27821.95
555.33	27931.95
555.50	27531.72
555.67	27814.93
555.83	27653.43
556.00	27864.08
556.16	28297.08
556.33	28011.53
556.50	28051.32
556.66	28107.49
556.83	28060.68
556.99	28191.75
557.16	28313.46
557.32	27878.12
557.49	28388.36
557.65	28041.96
557.82	27971.74
557.98	28030.26
558.15	28133.24
558.32	28184.73
558.48	28053.66
558.65	27903.87
558.81	28301.76
558.98	28369.63
559.14	28467.94
559.31	27910.89
559.47	28306.44
559.64	28418.78
559.80	28493.68
559.97	28589.64
560.13	28210.48
560.30	28451.55
560.46	28472.62
560.63	28144.94
560.79	28545.17
560.96	28151.96
561.12	28137.92
561.29	28280.69
561.45	28252.61
561.61	28617.73
561.78	28460.91
561.94	28577.94
562.11	28847.10
562.27	28645.82
562.44	28694.97
562.60	28655.18
562.77	28460.91
562.93	28467.94
563.10	28617.73
563.26	28573.26
563.42	28957.11
563.59	28526.45
563.75	28709.01
563.92	28591.98
564.08	28755.82
564.24	28772.21
564.41	28538.15
564.57	28627.09
564.74	28886.89
564.90	29149.03
565.07	28720.71
565.23	28844.76
565.39	28657.52
565.56	28683.27
565.72	28669.22
565.88	28182.39
566.05	28870.51
566.21	28919.66
566.38	28638.80
566.54	28624.75
566.70	29336.27
566.87	29191.16
567.03	29029.66
567.19	29392.45
567.36	29252.02
567.52	29067.11
567.68	29144.35
567.85	29050.73
568.01	28959.45
568.17	29106.90
568.34	29195.84
568.50	29109.24
568.66	28807.31
568.83	29158.39
568.99	29261.38
569.15	29034.35
569.32	28989.88
569.48	29034.35
569.64	28851.78
569.81	29186.48
569.97	28807.31
570.13	29230.95
570.30	29193.50
570.46	29256.70
570.62	29102.22
570.78	29062.43
570.95	28961.79
571.11	28746.46
571.27	28547.51
571.43	29013.28
571.60	29366.70
571.76	28893.91
571.92	29509.47
572.09	29228.61
572.25	29104.56
572.41	28943.06
572.57	29027.32
572.74	28975.83
572.90	29467.34
573.06	28903.28
573.22	29242.65
573.38	29036.69
573.55	29170.10
573.71	29666.29
573.87	29600.76
574.03	29385.43
574.20	29275.42
574.36	28870.51
574.52	29017.96
574.68	28945.41
574.84	29287.12
575.01	28952.43
575.17	29385.43
575.33	29532.88
575.49	28973.49
575.65	29331.59
575.82	29123.29
575.98	29137.33
576.14	29605.44
576.30	29507.13
576.46	29383.09
576.62	28964.13
576.79	29537.56
576.95	29146.69
577.11	28900.94
577.27	29448.62
577.43	29319.89
577.59	29233.29
577.75	29364.36
577.92	29467.34
578.08	29394.79
578.24	29083.50
578.40	29160.73
578.56	29226.27
578.72	29575.01
578.88	29593.73
579.04	29469.69
579.21	29003.92
579.37	29532.88
579.53	29575.01
579.69	29586.71
579.85	29347.98
580.01	29472.03
580.17	29198.18
580.33	28947.75
580.49	29703.74
580.65	29441.60
580.82	29474.37
580.98	29621.82
581.14	29715.44
581.30	29067.11
581.46	29312.87
581.62	29376.06
581.78	29212.23
581.94	29277.76
582.10	29350.32
582.26	29689.70
582.42	29336.27
582.58	29537.56
582.74	29490.75
582.90	29481.39
583.06	29549.26
583.22	29259.04
583.38	29516.50
583.54	29553.94
583.70	29598.41
583.86	29661.61
584.02	29387.77
584.18	29867.58
584.34	29315.21
584.50	29713.10
584.66	29706.08
584.82	29415.85
584.98	29277.76
585.14	29457.98
585.30	29551.60
585.46	29397.13
585.62	29380.74
585.78	29567.99
585.94	29326.91
586.10	29785.66
586.26	29542.24
586.42	29703.74
586.58	29830.13
586.74	29640.54
586.90	29413.51
587.06	29221.59
587.22	29785.66
587.38	29621.82
587.54	29689.70
587.70	29769.27
587.86	29722.46
588.02	30026.73
588.18	29972.90
588.34	30045.46
588.49	29703.74
588.65	29729.48
588.81	29792.68
588.97	29949.50
589.13	29483.73
589.29	30017.37
589.45	30085.25
589.61	30146.10
589.77	29790.34
589.93	30443.35
590.08	29989.28
590.24	30073.54
590.40	30115.67
590.56	30206.95
590.72	29916.73
590.88	29820.77
591.04	29551.60
591.20	29965.88
591.35	30335.68
591.51	30099.29
591.67	29851.19
591.83	30204.61
591.99	30141.42
592.15	30008.01
592.31	29984.60
592.46	29567.99
592.62	29841.83
592.78	29549.26
592.94	29441.60
593.10	30148.44
593.26	30000.99
593.41	30426.96
593.57	30092.27
593.73	29799.70
593.89	30167.16
594.05	29958.86
594.20	29764.59
594.36	29783.32
594.52	29949.50
594.68	29958.86
594.84	29951.84
594.99	30092.27
595.15	30017.37
595.31	30246.74
595.47	30235.04
595.62	30122.69
595.78	29780.98
595.94	30211.64
596.10	30134.40
596.25	29846.51
596.41	29860.55
596.57	29689.70
596.73	29886.30
596.88	29844.17
597.04	30005.67
597.20	30216.32
597.36	30213.98
597.51	30284.19
597.67	30167.16
597.83	29921.41
597.99	30307.60
598.14	29792.68
598.30	30038.44
598.46	30230.36
598.61	30228.02
598.77	29687.36
598.93	30094.61
599.09	30242.06
599.24	30782.73
599.40	30316.96
599.56	30157.80
599.71	29919.07
599.87	30164.82
600.03	29883.96
600.18	30225.68
600.34	30108.65
600.50	29837.15
600.65	30321.64
600.81	30066.52
600.97	30265.47
601.12	30506.54
601.28	30459.73
601.44	30431.65
601.59	30518.25
601.75	30326.32
601.91	30092.27
602.06	29912.05
602.22	29902.68
602.37	30085.25
602.53	30515.90
602.69	30183.55
602.84	30492.50
603.00	30394.20
603.16	30319.30
603.31	29998.65
603.47	30768.68
603.62	30134.40
603.78	30595.48
603.94	30045.46
604.09	29998.65
604.25	29860.55
604.40	30092.27
604.56	30426.96
604.71	30595.48
604.87	30244.40
605.03	30551.01
605.18	30555.69
605.34	30408.24
605.49	30022.05
605.65	29928.43
605.80	29745.87
605.96	29921.41
606.12	30118.01
606.27	30375.47
606.43	29865.24
606.58	30087.59
606.74	30213.98
606.89	30263.13
607.05	30389.52
607.20	30232.70
607.36	30235.04
607.51	30164.82
607.67	29907.37
607.82	29591.39
607.98	29947.15
608.13	29802.04
608.29	29675.65
608.44	30202.27
608.60	29741.19
608.75	30272.49
608.91	29818.42
609.06	30171.85
609.22	30288.87
609.37	29626.50
609.53	29680.33
609.68	29305.85
609.84	29673.31
609.99	29795.02
610.15	29809.06
610.30	29642.88
610.46	29703.74
610.61	30022.05
610.76	30008.01
610.92	29869.92
611.07	29797.36
611.23	29476.71
611.38	29827.79
611.54	29703.74
611.69	29443.94
611.84	29773.95
612.00	29727.14
612.15	29624.16
612.31	29858.21
612.46	29572.67
612.62	29701.40
612.77	29626.50
612.92	29837.15
613.08	29883.96
613.23	29687.36
613.39	29469.69
613.54	29376.06
613.69	29926.09
613.85	29240.31
614.00	29532.88
614.15	30031.41
614.31	29537.56
614.46	29736.51
614.62	29350.32
614.77	29530.54
614.92	29270.74
615.08	29446.28
615.23	29394.79
615.38	29598.41
615.54	29401.81
615.69	29355.00
615.84	29221.59
616.00	29331.59
616.15	29357.34
616.30	29631.18
616.46	29607.78
616.61	29340.96
616.76	29376.06
616.92	29144.35
617.07	29287.12
617.22	29247.33
617.37	29078.82
617.53	29308.19
617.68	29020.30
617.83	29160.73
617.99	29200.52
618.14	29247.33
618.29	29006.26
618.45	29228.61
618.60	28996.90
618.75	29450.96
618.90	29156.05
619.06	29076.48
619.21	29247.33
619.36	28975.83
619.51	29172.44
619.67	28540.49
619.82	28802.63
619.97	28811.99
620.12	28868.17
620.28	28961.79
620.43	29125.63
620.58	29336.27
620.73	29053.07
620.89	29158.39
621.04	29144.35
621.19	29064.77
621.34	29097.54
621.49	28952.43
621.65	29015.62
621.80	28837.74
621.95	28631.77
622.10	28699.65
622.25	28933.70
622.41	29008.60
622.56	28584.96
622.71	29097.54
622.86	28816.68
623.01	28758.16
623.16	28570.92
623.32	28432.83
623.47	28734.76
623.62	28910.30
623.77	28662.20
623.92	28456.23
624.07	28776.89
624.23	28622.41
624.38	28669.22
624.53	28439.85
624.68	28594.32
624.83	28617.73
624.98	28456.23
625.13	28811.99
625.29	29029.66
625.44	28849.44
625.59	28418.78
625.74	28013.87
625.89	28205.80
626.04	28219.84
626.19	28535.81
626.34	28711.35
626.49	28151.96
626.65	28105.15
626.80	28554.54
626.95	28418.78
627.10	28044.30
627.25	27967.06
627.40	28226.86
627.55	28105.15
627.70	27967.06
627.85	28002.17
628.00	28107.49
628.15	27946.00
628.30	28114.52
628.45	28367.29
628.60	27826.63
628.76	28107.49
628.91	28032.60
629.06	27599.60
629.21	28074.73
629.36	27924.93
629.51	27985.79
629.66	28135.58
629.81	27559.81
629.96	27784.50
630.11	27943.66
630.26	27978.76
630.41	27601.94
630.56	27805.56
630.71	27882.80
630.86	27522.36
631.01	27927.27
631.16	28226.86
631.31	27714.28
631.46	27440.44
631.61	27648.75
631.76	27599.60
631.91	27391.29
632.06	27974.08
632.21	27527.04
632.36	27545.76
632.51	27655.77
632.66	27658.11
632.81	27662.79
632.96	27473.21
633.10	27438.10
633.25	27412.35
633.40	27637.05
633.55	27882.80
633.70	27288.31
633.85	27185.32
634.00	27449.80
634.15	27494.27
634.30	27466.19
634.45	27264.90
634.60	27234.47
634.75	27302.35
634.90	27082.34
635.05	27538.74
635.19	27269.58
635.34	27550.45
635.49	27201.71
635.64	27295.33
635.79	27496.61
635.94	27082.34
636.09	27056.59
636.24	27065.96
636.39	27173.62
636.53	27042.55
636.68	27005.10
636.83	27260.22
636.98	27122.13
637.13	27166.60
637.28	27386.61
637.43	27044.89
637.57	26661.04
637.72	27318.73
637.87	26618.91
638.02	26946.59
638.17	26815.52
638.32	26382.52
638.46	26871.69
638.61	26946.59
638.76	26469.12
638.91	26927.86
639.06	26764.03
639.20	27026.17
639.35	26792.11
639.50	26972.33
639.65	27028.51
639.80	26906.80
639.94	26735.94
640.09	26766.37
640.24	26981.70
640.39	26581.46
640.54	26382.52
640.68	26431.67
640.83	26977.01
640.98	26672.74
641.13	26408.26
641.27	26387.20
641.42	26485.50
641.57	26658.70
641.72	26710.19
641.86	26403.58
642.01	26382.52
642.16	26281.88
642.31	26349.75
642.45	26293.58
642.60	26115.70
642.75	26120.38
642.90	26293.58
643.04	26054.84
643.19	26277.19
643.34	26403.58
643.48	26279.54
643.63	26335.71
643.78	26242.09
643.93	26221.02
644.07	26441.03
644.22	26249.11
644.37	26284.22
644.51	26319.32
644.66	26146.12
644.81	25942.50
644.95	25792.70
645.10	25998.67
645.25	26340.39
645.39	25970.58
645.54	26274.85
645.69	26197.62
645.83	26087.61
645.98	26022.08
646.13	26185.91
646.27	26335.71
646.42	26141.44
646.57	26085.27
646.71	26216.34
646.86	25923.77
647.00	25823.13
647.15	25954.20
647.30	26106.34
647.44	25713.13
647.59	25865.26
647.74	25928.45
647.88	25560.99
648.03	25701.42
648.17	26181.23
648.32	25898.03
648.47	26001.01
648.61	25790.36
648.76	25469.71
648.90	26106.34
649.05	25876.96
649.20	25572.69
649.34	25741.21
649.49	25525.88
649.63	25703.76
649.78	25951.86
649.92	25273.10
650.07	25722.49
650.21	25479.07
650.36	25993.99
650.51	25348.00
650.65	25649.93
650.80	25591.42
650.94	25837.17
651.09	25813.77
651.23	25312.89
651.38	25509.50
651.52	25518.86
651.67	25331.62
651.81	25647.59
651.96	25235.66
652.10	25591.42
652.25	25352.68
652.39	25570.35
652.54	25380.77
652.68	25610.14
652.83	25385.45
652.97	25652.27
653.12	25406.52
653.26	25429.92
653.41	25350.34
653.55	25502.48
653.70	24905.64
653.84	25455.67
653.99	25305.87
654.13	24994.58
654.27	25158.42
654.42	25163.10
654.56	24786.27
654.71	25043.73
654.85	25113.95
655.00	25179.48
655.14	25170.12
655.29	24943.09
655.43	25109.27
655.57	24809.68
655.72	25060.12
655.86	24978.20
656.01	24959.47
656.15	24575.62
656.30	25053.09
656.44	24575.62
656.58	24879.89
656.73	24739.46
656.87	24456.26
657.01	24819.04
657.16	24826.06
657.30	25003.94
657.45	25029.69
657.59	24889.26
657.73	24922.02
657.88	24577.97
658.02	24748.82
658.16	24531.15
658.31	24477.32
658.45	24372.00
658.60	24489.03
658.74	24400.08
658.88	24608.39
659.03	24594.35
659.17	24706.70
659.31	24636.48
659.46	24739.46
659.60	24278.38
659.74	24292.42
659.89	24662.22
660.03	24088.79
660.17	24559.24
660.32	24105.18
660.46	24311.14
660.60	23807.93
660.74	24072.41
660.89	23892.19
661.03	23824.31
661.17	24098.16
661.32	23953.04
661.46	24395.40
661.60	24311.14
661.74	24119.22
661.89	24528.81
662.03	24194.12
662.17	24114.54
662.31	23693.24
662.46	23999.85
662.60	24013.90
662.74	23805.59
662.88	23749.42
663.03	23515.36
663.17	23639.41
663.31	23403.02
663.45	23639.41
663.60	23407.70
663.74	23452.17
663.88	23683.88
664.02	23669.84
664.17	23328.12
664.31	23328.12
664.45	23328.12
664.59	23260.24
664.73	23290.67
664.88	23566.85
665.02	22995.76
665.16	23136.20
665.30	23290.67
665.44	22913.84
665.59	22862.35
665.73	23180.67
665.87	22958.31
666.01	23199.39
666.15	23201.73
666.29	23262.58
666.44	23042.57
666.58	22768.73
666.72	22817.88
666.86	22895.12
667.00	23316.42
667.14	22518.29
667.28	22731.28
667.43	22890.44
667.57	22677.45
667.71	22813.20
667.85	22424.67
667.99	22595.53
668.13	22443.40
668.27	22600.21
668.41	22427.01
668.56	22249.13
668.70	22178.92
668.84	22771.07
668.98	22618.94
669.12	22237.43
669.26	22480.85
669.40	22534.68
669.54	22115.72
669.68	22396.59
669.82	22104.02
669.96	22169.55
670.10	22015.08
670.25	21963.59
670.39	22029.12
670.53	21900.39
670.67	21839.54
670.81	21933.16
670.95	22239.77
671.09	21968.27
671.23	21930.82
671.37	22106.36
671.51	21776.34
671.65	21942.52
671.79	21986.99
671.93	21717.83
672.07	21661.66
672.21	21401.86
672.35	21612.51
672.49	21385.47
672.63	21467.39
672.77	21256.75
672.91	21137.38
673.05	21163.12
673.19	21010.99
673.33	20936.09
673.47	21387.82
673.61	21413.56
673.75	21289.51
673.89	21296.53
674.03	21018.01
674.17	21013.33
674.31	20720.76
674.45	20847.15
674.59	21076.52
674.73	20996.95
674.87	20938.43
675.01	20915.03
675.15	20599.05
675.29	20479.69
675.43	20723.10
675.56	20783.96
675.70	20671.61
675.84	20580.33
675.98	20395.43
676.12	20299.47
676.26	20697.36
676.40	20386.07
676.54	20451.60
676.68	20430.54
676.82	19737.74
676.96	20128.61
677.10	20224.57
677.23	19737.74
677.37	19800.93
677.51	19632.41
677.65	19875.83
677.79	19772.85
677.93	19606.67
678.07	19719.01
678.21	19580.92
678.34	19744.76
678.48	19248.57
678.62	19431.13
678.76	19482.62
678.90	19278.99
679.04	19405.38
679.18	19300.06
679.31	19126.86
679.45	19073.03
679.59	18963.02
679.73	18855.36
679.87	18684.50
680.00	18944.30
680.14	18977.06
680.28	18876.42
680.42	18850.67
680.56	19000.47
680.70	18738.33
680.83	18553.43
680.97	18368.52
681.11	18616.62
681.25	18375.55
681.39	18373.21
681.52	18370.86
681.66	18249.16
681.80	18164.90
681.94	17891.06
682.07	17956.59
682.21	17982.34
682.35	17930.84
682.49	18001.06
682.62	17834.88
682.76	17825.52
682.90	17750.62
683.04	17846.58
683.17	17724.88
683.31	17532.95
683.45	17593.81
683.59	17607.85
683.72	17635.94
683.86	17308.26
684.00	17504.87
684.13	17114.00
684.27	17420.61
684.41	17081.23
684.55	16779.30
684.68	17128.04
684.82	16978.25
684.96	16688.02
685.09	16683.34
685.23	16702.06
685.37	16945.48
685.50	16664.61
685.64	16926.75
685.78	16734.83
685.91	16732.49
686.05	16589.72
686.19	16341.62
686.32	16299.49
686.46	16470.35
686.60	16205.87
686.73	16065.44
686.87	15997.56
687.01	16229.27
687.14	16140.33
687.28	15934.37
687.42	15988.20
687.55	15908.62
687.69	15934.37
687.82	15875.85
687.96	15857.13
688.10	15948.41
688.23	15925.00
688.37	15606.69
688.50	15630.10
688.64	15719.04
688.78	15475.62
688.91	15716.70
689.05	15538.82
689.18	15435.83
689.32	15199.44
689.46	14892.83
689.59	15351.57
689.73	15215.82
689.86	14904.53
690.00	15005.17
690.13	15363.28
690.27	15033.26
690.41	15070.71
690.54	15000.49
690.68	14686.86
690.81	14867.08
690.95	14712.61
691.08	14913.89
691.22	14572.18
691.35	14492.60
691.49	14600.26
691.62	14703.25
691.76	14420.04
691.89	14450.47
692.03	14120.45
692.16	14080.66
692.30	13949.59
692.43	14345.14
692.57	13956.61
692.70	13846.61
692.84	14019.81
692.97	13968.32
693.11	13832.57
693.24	13750.65
693.38	13949.59
693.51	13647.66
693.65	13888.74
693.78	13535.32
693.92	13561.06
694.05	13680.43
694.19	13036.78
694.32	13617.24
694.45	13387.86
694.59	13240.41
694.72	13167.85
694.86	13212.32
694.99	12987.63
695.13	13060.19
695.26	12858.90
695.39	12992.31
695.53	12910.40
695.66	12875.29
695.80	12772.30
695.93	13118.70
696.07	12837.84
696.20	12816.77
696.33	12741.88
696.47	12697.41
696.60	12702.09
696.73	12608.47
696.87	12664.64
697.00	12589.74
697.14	11955.46
697.27	12336.96
697.40	12140.36
697.54	12119.29
697.67	12035.03
697.80	12086.53
697.94	12011.63
698.07	11800.98
698.21	11707.36
698.34	12023.33
698.47	12072.48
698.61	11793.96
698.74	11939.07
698.87	12032.69
699.01	11592.67
699.14	11756.51
699.27	11653.53
699.40	11651.19
699.54	11417.13
699.67	11573.95
699.80	11332.87
699.94	11470.97
700.07	11452.24
700.20	11166.70
700.34	11059.03
700.47	11077.76
700.60	10986.47
700.73	11382.03
700.87	11028.60
701.00	11030.94
701.13	10991.16
701.26	11225.21
701.40	10913.92
701.53	10796.89
701.66	10689.23
701.79	10771.15
701.93	10707.95
702.06	10506.66
702.19	10420.06
702.32	10494.96
702.46	10424.75
702.59	10200.05
702.72	10324.10
702.85	10218.78
702.99	10284.31
703.12	10153.24
703.25	10099.41
703.38	10237.50
703.51	10193.03
703.65	10296.02
703.78	9987.07
703.91	10225.80
704.04	10396.66
704.17	10076.01
704.31	10134.52
704.44	9865.36
704.57	9699.18
704.70	9598.54
704.83	9500.23
704.96	9411.29
705.10	9509.60
705.23	9362.14
>>>>>End Processed Spectral Data<<<<<
