SpectraSuite Data File
++++++++++++++++++++++++++++++++++++
Date: Fri Oct 18 13:58:09 GMT-05:00 2013
User: bianchi
Dark Spectrum Present: No
Reference Spectrum Present: No
Number of Sampled Component Spectra: 1
Spectrometers: USB2+H05261
Integration Time (usec): 50000 (USB2+H05261)
Spectra Averaged: 1 (USB2+H05261)
Boxcar Smoothing: 0 (USB2+H05261)
Correct for Electrical Dark: No (USB2+H05261)
Strobe/Lamp Enabled: No (USB2+H05261)
Correct for Detector Non-linearity: No (USB2+H05261)
Correct for Stray Light: No (USB2+H05261)
Number of Pixels in Processed Spectrum: 2048
>>>>>Begin Processed Spectral Data<<<<<
365.73	0.00
365.92	0.00
366.12	0.00
366.32	0.00
366.52	0.00
366.72	0.00
366.91	0.00
367.11	0.00
367.31	0.00
367.51	0.00
367.70	0.00
367.90	0.00
368.10	0.00
368.30	0.00
368.49	0.00
368.69	0.00
368.89	0.00
369.09	0.00
369.28	0.00
369.48	0.00
369.68	0.00
369.87	0.00
370.07	0.00
370.27	0.00
370.47	16.38
370.66	147.45
370.86	149.79
371.06	110.01
371.25	121.71
371.45	93.62
371.65	198.95
371.84	133.41
372.04	250.44
372.24	156.82
372.44	154.48
372.63	140.43
372.83	259.80
373.03	161.50
373.22	210.65
373.42	224.69
373.62	182.56
373.81	266.82
374.01	222.35
374.21	220.01
374.40	191.92
374.60	222.35
374.79	229.37
374.99	299.59
375.19	229.37
375.38	250.44
375.58	208.31
375.78	266.82
375.97	271.50
376.17	245.76
376.37	248.10
376.56	315.97
376.76	231.71
376.95	257.46
377.15	180.22
377.35	287.89
377.54	262.14
377.74	264.48
377.93	278.52
378.13	297.25
378.33	332.36
378.52	257.46
378.72	362.78
378.91	332.36
379.11	269.16
379.31	245.76
379.50	344.06
379.70	313.63
379.89	322.99
380.09	327.68
380.28	299.59
380.48	325.33
380.68	292.57
380.87	313.63
381.07	365.12
381.26	287.89
381.46	337.04
381.65	327.68
381.85	339.38
382.04	294.91
382.24	315.97
382.43	332.36
382.63	266.82
382.83	376.83
383.02	425.98
383.22	327.68
383.41	372.15
383.61	351.08
383.80	456.40
384.00	376.83
384.19	290.23
384.39	351.08
384.58	407.25
384.78	430.66
384.97	332.36
385.17	390.87
385.36	346.40
385.56	409.59
385.75	440.02
385.95	409.59
386.14	477.47
386.34	388.53
386.53	393.21
386.72	386.19
386.92	318.31
387.11	379.17
387.31	442.36
387.50	423.64
387.70	395.55
387.89	505.56
388.09	301.93
388.28	428.32
388.48	458.74
388.67	358.10
388.86	411.93
389.06	491.51
389.25	360.44
389.45	486.83
389.64	433.00
389.84	519.60
390.03	444.70
390.22	486.83
390.42	451.72
390.61	505.56
390.81	496.19
391.00	524.28
391.19	496.19
391.39	475.13
391.58	512.58
391.78	514.92
391.97	519.60
392.16	472.79
392.36	498.53
392.55	561.73
392.75	606.20
392.94	540.66
393.13	552.37
393.33	564.07
393.52	519.60
393.71	524.28
393.91	538.32
394.10	617.90
394.29	566.41
394.49	638.97
394.68	596.84
394.88	617.90
395.07	634.29
395.26	622.58
395.46	636.63
395.65	660.03
395.84	650.67
396.04	678.76
396.23	711.52
396.42	688.12
396.62	627.26
396.81	615.56
397.00	690.46
397.19	683.44
397.39	697.48
397.58	697.48
397.77	650.67
397.97	582.79
398.16	676.41
398.35	709.18
398.55	725.57
398.74	603.86
398.93	737.27
399.12	716.20
399.32	692.80
399.51	706.84
399.70	730.25
399.90	685.78
400.09	772.38
400.28	798.12
400.47	788.76
400.67	760.67
400.86	802.80
401.05	821.53
401.24	814.51
401.44	795.78
401.63	915.15
401.82	849.61
402.01	861.32
402.21	901.11
402.40	777.06
402.59	734.93
402.78	713.86
402.97	870.68
403.17	896.43
403.36	861.32
403.55	938.55
403.74	912.81
403.93	952.60
404.13	912.81
404.32	938.55
404.51	910.47
404.70	884.72
404.89	861.32
405.09	959.62
405.28	985.37
405.47	999.41
405.66	959.62
405.85	947.92
406.05	964.30
406.24	971.32
406.43	1001.75
406.62	1088.35
406.81	1083.67
407.00	1100.05
407.20	968.98
407.39	1050.90
407.58	954.94
407.77	1022.81
407.96	1050.90
408.15	1205.38
408.34	1111.75
408.54	1102.39
408.73	1067.28
408.92	1055.58
409.11	1146.86
409.30	1156.22
409.49	1212.40
409.68	1050.90
409.87	1238.14
410.07	1205.38
410.26	1167.93
410.45	1231.12
410.64	1165.59
410.83	1263.89
411.02	1249.85
411.21	1350.49
411.40	1186.65
411.59	1224.10
411.78	1348.15
411.98	1252.19
412.17	1289.64
412.36	1245.16
412.55	1401.98
412.74	1373.89
412.93	1355.17
413.12	1373.89
413.31	1427.73
413.50	1282.61
413.69	1413.68
413.88	1394.96
414.07	1448.79
414.26	1472.20
414.45	1528.37
414.64	1455.81
414.83	1575.18
415.02	1497.94
415.22	1568.16
415.41	1643.06
415.60	1490.92
415.79	1671.14
415.98	1575.18
416.17	1554.12
416.36	1533.05
416.55	1563.48
416.74	1753.06
416.93	1638.38
417.12	1626.67
417.31	1715.61
417.50	1640.72
417.69	1645.40
417.88	1727.32
418.07	1783.49
418.26	1722.63
418.45	1823.28
418.64	1916.90
418.83	1734.34
419.02	1860.73
419.21	1792.85
419.39	1856.04
419.58	1715.61
419.77	1879.45
419.96	1865.41
420.15	1916.90
420.34	1895.83
420.53	1870.09
420.72	1893.49
420.91	1804.55
421.10	1907.54
421.29	2085.42
421.48	1891.15
421.67	2040.95
421.86	1891.15
422.05	1966.05
422.24	1912.22
422.43	1935.62
422.61	2012.86
422.80	2076.06
422.99	2059.67
423.18	2080.74
423.37	2069.03
423.56	2092.44
423.75	1933.28
423.94	1930.94
424.13	1919.24
424.32	1937.96
424.50	2125.21
424.69	2115.84
424.88	2101.80
425.07	1987.11
425.26	2036.27
425.45	1973.07
425.64	2043.29
425.83	2099.46
426.01	2031.58
426.20	1996.48
426.39	2050.31
426.58	2125.21
426.77	1987.11
426.96	2146.27
427.15	2148.61
427.33	2078.40
427.52	2059.67
427.71	2083.08
427.90	2188.40
428.09	2176.70
428.28	2143.93
428.46	2204.78
428.65	2211.81
428.84	2207.13
429.03	2150.95
429.22	2122.87
429.40	2256.28
429.59	2239.89
429.78	2195.42
429.97	2244.57
430.16	2160.31
430.34	2385.01
430.53	2277.34
430.72	2324.15
430.91	2256.28
431.10	2342.88
431.28	2333.51
431.47	2326.49
431.66	2387.35
431.85	2340.54
432.03	2466.92
432.22	2459.90
432.41	2480.97
432.60	2370.96
432.79	2492.67
432.97	2525.44
433.16	2511.39
433.35	2546.50
433.54	2509.05
433.72	2593.31
433.91	2417.77
434.10	2523.10
434.28	2450.54
434.47	2605.02
434.66	2609.70
434.85	2612.04
435.03	2609.70
435.22	2593.31
435.41	2605.02
435.59	2672.89
435.78	2569.91
435.97	2602.68
436.16	2710.34
436.34	2616.72
436.53	2736.09
436.72	2850.77
436.90	2654.17
437.09	2818.00
437.28	2672.89
437.46	2818.00
437.65	2705.66
437.84	2904.60
438.02	2747.79
438.21	2803.96
438.40	2778.22
438.58	2904.60
438.77	2724.38
438.96	2995.89
439.14	2836.73
439.33	2928.01
439.52	3068.44
439.70	3047.38
439.89	3096.53
440.08	3084.83
440.26	3028.65
440.45	2956.10
440.63	3124.62
440.82	3122.27
441.01	3183.13
441.19	3288.45
441.38	3194.83
441.57	3145.68
441.75	3309.52
441.94	3363.35
442.12	3300.16
442.31	3251.00
442.50	3330.58
442.68	3304.84
442.87	3412.50
443.05	3283.77
443.24	3419.52
443.43	3496.76
443.61	3459.31
443.80	3496.76
443.98	3239.30
444.17	3330.58
444.35	3335.26
444.54	3473.36
444.73	3482.72
444.91	3492.08
445.10	3356.33
445.28	3414.84
445.47	3459.31
445.65	3534.21
445.84	3611.45
446.02	3604.42
446.21	3492.08
446.39	3454.63
446.58	3592.72
446.77	3482.72
446.95	3431.23
447.14	3555.27
447.32	3492.08
447.51	3569.32
447.69	3531.87
447.88	3555.27
448.06	3524.85
448.25	3634.85
448.43	3641.87
448.62	3496.76
448.80	3597.40
448.99	3662.94
449.17	3726.13
449.36	3485.06
449.54	3555.27
449.73	3791.67
449.91	3737.84
450.10	3698.05
450.28	3873.59
450.46	3913.38
450.65	3726.13
450.83	3730.81
451.02	3812.73
451.20	3751.88
451.39	3803.37
451.57	3861.88
451.76	3719.11
451.94	3894.65
452.13	3913.38
452.31	3789.33
452.49	3810.39
452.68	3990.61
452.86	3967.21
453.05	4053.81
453.23	4098.28
453.42	3786.99
453.60	3868.91
453.78	3981.25
453.97	3803.37
454.15	4011.68
454.34	3859.54
454.52	4053.81
454.70	4058.49
454.89	4058.49
455.07	4056.15
455.26	4219.99
455.44	4046.79
455.62	4196.58
455.81	4098.28
455.99	4086.58
456.17	4063.17
456.36	4135.73
456.54	4276.16
456.73	4238.71
456.91	4344.03
457.09	4292.54
457.28	4442.34
457.46	4423.61
457.64	4418.93
457.83	4472.76
458.01	4430.63
458.19	4578.09
458.38	4322.97
458.56	4526.60
458.74	4355.74
458.93	4454.04
459.11	4489.15
459.29	4461.06
459.48	4505.53
459.66	4545.32
459.84	4521.92
460.03	4645.96
460.21	4414.25
460.39	4599.15
460.57	4507.87
460.76	4720.86
460.94	4660.01
461.12	4753.63
461.31	4681.07
461.49	4667.03
461.67	4542.98
461.85	4709.16
462.04	4690.43
462.22	5018.11
462.40	4922.15
462.59	4798.10
462.77	4924.49
462.95	4891.72
463.13	4819.16
463.32	4990.02
463.50	4873.00
463.68	4945.55
463.86	4854.27
464.05	4924.49
464.23	4697.46
464.41	4943.21
464.59	4889.38
464.78	5160.88
464.96	5034.49
465.14	5032.15
465.32	4931.51
465.50	5078.96
465.69	5015.77
465.87	5102.37
466.05	4987.68
466.23	5057.90
466.41	4912.78
466.60	5135.14
466.78	5085.98
466.96	5048.54
467.14	4915.12
467.32	5238.12
467.51	5116.41
467.69	5109.39
467.87	5050.88
468.05	5245.14
468.23	5135.14
468.41	5200.67
468.60	5287.27
468.78	5352.81
468.96	5291.95
469.14	5345.78
469.32	5404.30
469.50	5263.86
469.69	5481.53
469.87	5507.28
470.05	5341.10
470.23	5481.53
470.41	5554.09
470.59	5430.04
470.77	5549.41
470.95	5502.60
471.14	5551.75
471.32	5420.68
471.50	5650.05
471.68	5547.07
471.86	5645.37
472.04	5797.51
472.22	5720.27
472.40	5734.31
472.58	5863.04
472.77	5853.68
472.95	5954.32
473.13	6181.35
473.31	5928.58
473.49	5912.19
473.67	5940.28
473.85	5830.27
474.03	6017.52
474.21	6125.18
474.39	6197.74
474.57	6050.28
474.75	6270.30
474.93	6190.72
475.12	6160.29
475.30	6375.62
475.48	6230.51
475.66	6366.26
475.84	6307.74
476.02	6361.58
476.20	6099.44
476.38	6497.33
476.56	6612.01
476.74	6607.33
476.92	6597.97
477.10	6696.27
477.28	6780.53
477.46	6754.79
477.64	6867.13
477.82	6825.00
478.00	6995.86
478.18	6939.69
478.36	6850.75
478.54	7176.08
478.72	7201.83
478.90	7208.85
479.08	7173.74
479.26	7363.33
479.44	7096.50
479.62	7328.22
479.80	7433.54
479.98	7440.56
480.16	7681.64
480.34	7618.44
480.52	7693.34
480.70	7796.32
480.88	7499.08
481.06	7716.75
481.24	7770.58
481.41	7948.46
481.59	7988.25
481.77	8009.31
481.95	8084.21
482.13	8257.41
482.31	8088.89
482.49	8374.44
482.67	8332.31
482.85	8329.97
483.03	8545.30
483.21	8566.36
483.39	8758.28
483.57	8744.24
483.74	8652.96
483.92	8744.24
484.10	8872.97
484.28	9018.08
484.46	9186.60
484.64	9259.16
484.82	8968.93
485.00	9280.22
485.18	9364.48
485.35	9521.30
485.53	9544.70
485.71	9589.17
485.89	9682.80
486.07	9577.47
486.25	9661.73
486.43	9493.21
486.61	9874.72
486.78	10148.56
486.96	9881.74
487.14	10221.12
487.32	10195.37
487.50	10293.68
487.68	10408.36
487.85	10597.95
488.03	10799.23
488.21	10771.15
488.39	10843.70
488.57	10775.83
488.75	10890.51
488.92	11033.29
489.10	11075.42
489.28	11211.17
489.46	11133.93
489.64	11234.57
489.81	11477.99
489.99	11428.84
490.17	11555.22
490.35	11859.49
490.53	11419.47
490.70	11786.94
490.88	11674.59
491.06	12065.46
491.24	12077.16
491.41	11662.89
491.59	12315.90
491.77	12098.23
491.95	12294.83
492.13	12173.13
492.30	12404.84
492.48	12219.94
492.66	12393.14
492.84	12655.28
493.01	12608.47
493.19	12615.49
493.37	12791.03
493.54	12903.37
493.72	12835.50
493.90	13008.70
494.08	12957.21
494.25	13132.75
494.43	13310.63
494.61	13523.62
494.79	13390.20
494.96	13521.27
495.14	13647.66
495.32	13790.44
495.49	13701.50
495.67	13870.01
495.85	13921.51
496.02	13954.27
496.20	13909.80
496.38	14230.46
496.55	14359.19
496.73	14368.55
496.91	14249.18
497.09	14548.77
497.26	14677.50
497.44	14148.54
497.62	14675.16
497.79	14686.86
497.97	14953.68
498.14	14860.06
498.32	15002.83
498.50	15040.28
498.67	15143.27
498.85	15047.30
499.03	15089.43
499.20	15403.07
499.38	15056.67
499.56	15290.72
499.73	15393.70
499.91	15386.68
500.08	15501.37
500.26	15405.41
500.44	15330.51
500.61	15459.24
500.79	15793.94
500.97	15674.57
501.14	15704.99
501.32	16109.91
501.49	16027.99
501.67	16070.12
501.84	16278.43
502.02	16184.80
502.20	16173.10
502.37	16659.93
502.55	16556.95
502.72	16505.46
502.90	16355.66
503.07	16159.06
503.25	16526.52
503.43	16404.81
503.60	16748.87
503.78	16706.74
503.95	16793.34
504.13	16840.15
504.30	17025.06
504.48	16905.69
504.65	17001.65
504.83	16999.31
505.01	17053.14
505.18	17259.11
505.36	17401.88
505.53	17296.56
505.71	17142.08
505.88	17584.44
506.06	17074.21
506.23	17504.87
506.41	17509.55
506.58	17596.15
506.76	17591.47
506.93	17544.66
507.11	17633.60
507.28	17848.93
507.46	17825.52
507.63	17961.27
507.81	18080.64
507.98	17750.62
508.16	17984.68
508.33	17961.27
508.50	17996.38
508.68	18071.28
508.85	18197.67
509.03	18314.69
509.20	18487.89
509.38	18651.73
509.55	18508.96
509.73	18824.93
509.90	18747.69
510.08	18672.79
510.25	18707.90
510.42	18523.00
510.60	19049.62
510.77	18941.96
510.95	19269.63
511.12	18813.23
511.30	18939.62
511.47	19030.90
511.64	19030.90
511.82	19218.14
511.99	18918.55
512.17	19342.19
512.34	19262.61
512.51	19255.59
512.69	19491.98
512.86	19590.28
513.04	19688.59
513.21	19550.49
513.38	19501.34
513.56	19688.59
513.73	19672.20
513.90	19618.37
514.08	19714.33
514.25	19995.20
514.43	19894.55
514.60	20175.42
514.77	19838.38
514.95	20346.28
515.12	20198.82
515.29	20072.43
515.47	19784.55
515.64	20205.84
515.81	20470.33
515.99	20444.58
516.16	20526.50
516.33	20676.29
516.51	20486.71
516.68	20388.41
516.85	20341.60
517.03	20727.78
517.20	20929.07
517.37	21113.97
517.54	21008.65
517.72	20908.01
517.89	20929.07
518.06	21022.69
518.24	21041.42
518.41	20980.56
518.58	20999.29
518.75	20582.67
518.93	21331.64
519.10	21198.23
519.27	21186.53
519.45	21317.60
519.62	21341.00
519.79	21626.55
519.96	21577.40
520.14	21500.16
520.31	21317.60
520.48	21640.59
520.65	21582.08
520.83	22012.74
521.00	21736.56
521.17	21633.57
521.34	21582.08
521.52	21706.13
521.69	21921.46
521.86	21781.03
522.03	22111.04
522.20	22125.08
522.38	22101.68
522.55	22155.51
522.72	22155.51
522.89	21720.17
523.07	22419.99
523.24	22302.96
523.41	22740.64
523.58	22134.45
523.75	22333.39
523.92	22534.68
524.10	22782.77
524.27	22398.93
524.44	22525.32
524.61	22913.84
524.78	23051.94
524.96	22913.84
525.13	22670.43
525.30	22974.70
525.47	22838.95
525.64	23007.47
525.81	22778.09
525.98	22993.42
526.16	23051.94
526.33	22862.35
526.50	23459.19
526.67	23096.41
526.84	23325.78
527.01	23222.80
527.18	23206.41
527.36	23653.45
527.53	23520.04
527.70	23477.91
527.87	23538.77
528.04	23583.24
528.21	23789.20
528.38	23620.69
528.55	23580.90
528.72	23768.14
528.89	23978.79
529.07	23939.00
529.24	23611.32
529.41	24011.56
529.58	23861.76
529.75	23852.40
529.92	23768.14
530.09	24002.19
530.26	24137.94
530.43	23978.79
530.60	23728.35
530.77	24044.32
530.94	24137.94
531.11	24224.54
531.28	24231.57
531.46	24257.31
531.63	24133.26
531.80	24292.42
531.97	24217.52
532.14	24500.73
532.31	24294.76
532.48	24566.26
532.65	24381.36
532.82	24526.47
532.99	24205.82
533.16	24470.30
533.33	24699.67
533.50	25146.72
533.67	24943.09
533.84	24549.88
534.01	24907.98
534.18	24528.81
534.35	24683.29
534.52	24496.05
534.69	25172.46
534.86	25357.36
535.03	24809.68
535.20	24704.35
535.37	24978.20
535.54	25046.07
535.71	24725.42
535.88	25186.50
536.05	25373.75
536.22	25394.81
536.38	25233.32
536.55	25577.37
536.72	25202.89
536.89	25001.60
537.06	25504.82
537.23	25432.26
537.40	25530.56
537.57	25525.88
537.74	25663.97
537.91	25734.19
538.08	25806.75
538.25	25350.34
538.42	25867.60
538.59	25668.66
538.75	25345.66
538.92	25743.55
539.09	25628.87
539.26	25413.54
539.43	25483.75
539.60	25879.30
539.77	25757.60
539.94	25795.04
540.11	26146.12
540.28	25802.07
540.44	26031.44
540.61	25991.65
540.78	25832.49
540.95	26242.09
541.12	26108.68
541.29	26621.25
541.46	26003.35
541.62	25795.04
541.79	26380.18
541.96	26068.89
542.13	25736.53
542.30	26064.21
542.47	26281.88
542.63	26431.67
542.80	26656.36
542.97	26885.73
543.14	26848.29
543.31	26508.91
543.48	26869.35
543.64	26916.16
543.81	26539.33
543.98	26885.73
544.15	26771.05
544.32	26855.31
544.48	27023.83
544.65	26789.77
544.82	27016.80
544.99	26438.69
545.16	26621.25
545.32	26766.37
545.49	27143.19
545.66	27292.99
545.83	27281.28
546.00	27353.84
546.16	27489.59
546.33	27103.40
546.50	26824.88
546.67	27171.28
546.83	27021.48
547.00	27068.30
547.17	27321.07
547.34	27508.32
547.50	27241.50
547.67	27838.33
547.84	27431.08
548.00	27686.20
548.17	27625.34
548.34	27541.08
548.51	27370.22
548.67	27793.86
548.84	27637.05
549.01	27428.74
549.18	27580.87
549.34	27552.79
549.51	27681.52
549.68	27833.65
549.84	27681.52
550.01	27800.88
550.18	27594.92
550.34	27852.38
550.51	28254.95
550.68	28123.88
550.84	27835.99
551.01	27840.67
551.18	27992.81
551.34	28112.17
551.51	27566.83
551.68	27854.72
551.84	27978.76
552.01	27927.27
552.18	28142.60
552.34	28465.60
552.51	28250.27
552.68	27854.72
552.84	27709.60
553.01	28631.77
553.18	28041.96
553.34	28271.33
553.51	28065.36
553.67	28376.66
553.84	28400.06
554.01	28538.15
554.17	28659.86
554.34	28334.53
554.51	28479.64
554.67	28332.18
554.84	29022.64
555.00	28414.10
555.17	28526.45
555.33	28678.58
555.50	28716.03
555.67	28634.11
555.83	28432.83
556.00	28662.20
556.16	28549.85
556.33	28804.97
556.50	28615.39
556.66	28783.91
556.83	28720.71
556.99	28971.15
557.16	29261.38
557.32	29109.24
557.49	28617.73
557.65	28390.70
557.82	28865.83
557.98	28514.75
558.15	28971.15
558.32	29198.18
558.48	28762.84
558.65	29039.03
558.81	29488.41
558.98	29092.86
559.14	29053.07
559.31	28889.23
559.47	29027.32
559.64	28856.46
559.80	29001.58
559.97	29539.90
560.13	29013.28
560.30	29373.72
560.46	29465.00
560.63	29149.03
560.79	29331.59
560.96	29514.16
561.12	29146.69
561.29	29518.84
561.45	29188.82
561.61	29612.46
561.78	29294.14
561.94	29549.26
562.11	29619.48
562.27	29511.81
562.44	29481.39
562.60	29310.53
562.77	29291.80
562.93	28898.59
563.10	29539.90
563.26	29404.15
563.42	29628.84
563.59	29605.44
563.75	29785.66
563.92	29607.78
564.08	29301.17
564.24	29579.69
564.41	29652.25
564.57	29869.92
564.74	29472.03
564.90	29736.51
565.07	29497.77
565.23	29766.93
565.39	29642.88
565.56	29998.65
565.72	29626.50
565.88	29764.59
566.05	29277.76
566.21	29282.44
566.38	29675.65
566.54	29406.49
566.70	29902.68
566.87	29989.28
567.03	29816.08
567.19	29912.05
567.36	29799.70
567.52	29989.28
567.68	29947.15
567.85	29612.46
568.01	29799.70
568.17	29481.39
568.34	30225.68
568.50	29762.25
568.66	29607.78
568.83	29984.60
568.99	29654.59
569.15	29598.41
569.32	29631.18
569.48	29907.37
569.64	29965.88
569.81	29933.11
569.97	29724.80
570.13	30174.19
570.30	29788.00
570.46	30080.56
570.62	30141.42
570.78	29537.56
570.95	29848.85
571.11	30403.56
571.27	29694.38
571.43	30036.09
571.60	30143.76
571.76	29731.83
571.92	30323.98
572.09	30150.78
572.25	30026.73
572.41	30272.49
572.57	30576.76
572.74	30328.66
572.90	29867.58
573.06	30043.12
573.22	30010.35
573.38	29874.60
573.55	30230.36
573.71	30485.48
573.87	30277.17
574.03	29848.85
574.20	30075.88
574.36	30309.94
574.52	30705.49
574.68	30094.61
574.84	29895.66
575.01	30307.60
575.17	30485.48
575.33	30094.61
575.49	30380.15
575.65	30223.34
575.82	30188.23
575.98	29956.52
576.14	30293.55
576.30	29907.37
576.46	30010.35
576.62	29841.83
576.79	30431.65
576.95	30478.46
577.11	30412.92
577.27	30281.85
577.43	30525.27
577.59	30513.56
577.75	30118.01
577.92	29579.69
578.08	30000.99
578.24	30251.42
578.40	30127.38
578.56	30352.07
578.72	30256.11
578.88	30656.34
579.04	30380.15
579.21	30436.33
579.37	30178.87
579.53	30749.96
579.69	29846.51
579.85	30164.82
580.01	30155.46
580.17	30188.23
580.33	29947.15
580.49	30331.00
580.65	30457.39
580.82	30499.52
580.98	30803.79
581.14	30569.74
581.30	30520.59
581.46	30129.72
581.62	30314.62
581.78	30242.06
581.94	30415.26
582.10	29874.60
582.26	30263.13
582.42	30251.42
582.58	30469.09
582.74	30478.46
582.90	30649.32
583.06	30218.66
583.22	30548.67
583.38	30258.45
583.54	30328.66
583.70	30288.87
583.86	30230.36
584.02	30267.81
584.18	30424.62
584.34	30558.03
584.50	30618.89
584.66	30295.89
584.82	30422.28
584.98	30323.98
585.14	30419.94
585.30	30087.59
585.46	30281.85
585.62	30096.95
585.78	30419.94
585.94	30239.72
586.10	30380.15
586.26	30576.76
586.42	30412.92
586.58	30965.29
586.74	30064.18
586.90	30230.36
587.06	30134.40
587.22	30618.89
587.38	30466.75
587.54	30998.06
587.70	30859.96
587.86	30934.86
588.02	30827.20
588.18	30761.66
588.34	30625.91
588.49	30639.95
588.65	30607.19
588.81	30452.71
588.97	30492.50
589.13	30408.24
589.29	30387.18
589.45	30892.73
589.61	30838.90
589.77	30710.17
589.93	30838.90
590.08	30785.07
590.24	30871.67
590.40	30984.01
590.56	30749.96
590.72	30944.22
590.88	30232.70
591.04	30501.86
591.20	31316.37
591.35	30288.87
591.51	31330.41
591.67	31295.30
591.83	30876.35
591.99	31180.62
592.15	30803.79
592.31	30831.88
592.46	30419.94
592.62	30677.40
592.78	30948.90
592.94	30735.92
593.10	30630.59
593.26	30609.53
593.41	30878.69
593.57	31140.83
593.73	30834.22
593.89	31108.06
594.05	31044.87
594.20	31009.76
594.36	30984.01
594.52	30808.47
594.68	31154.87
594.84	30499.52
594.99	31379.56
595.15	31227.43
595.31	31051.89
595.47	30595.48
595.62	31421.69
595.78	30955.93
595.94	30686.76
596.10	30941.88
596.25	30726.55
596.41	30780.39
596.57	30597.82
596.73	30733.57
596.88	30981.67
597.04	31344.45
597.20	31084.65
597.36	31323.39
597.51	31140.83
597.67	31056.57
597.83	30911.46
597.99	30897.41
598.14	30752.30
598.30	31290.62
598.46	31105.72
598.61	31098.70
598.77	31180.62
598.93	31409.99
599.09	31138.49
599.24	31676.81
599.40	31477.86
599.56	31201.68
599.71	31339.77
599.87	31314.03
600.03	30937.20
600.18	31194.66
600.34	31058.91
600.50	30991.03
600.65	31110.40
600.81	31009.76
600.97	31578.51
601.12	31482.55
601.28	31510.63
601.44	31510.63
601.59	31084.65
601.75	30958.27
601.91	31337.43
602.06	31267.22
602.22	31218.07
602.37	30644.63
602.53	30934.86
602.69	31187.64
602.84	31407.65
603.00	31339.77
603.16	31267.22
603.31	31161.89
603.47	31150.19
603.62	31051.89
603.78	30934.86
603.94	31117.42
604.09	31398.29
604.25	31140.83
604.40	30925.50
604.56	30958.27
604.71	31442.76
604.87	31292.96
605.03	31009.76
605.18	31023.80
605.34	31002.74
605.49	31442.76
605.65	30969.97
605.80	30761.66
605.96	30773.36
606.12	31281.26
606.27	31236.79
606.43	30810.81
606.58	31351.48
606.74	31189.98
606.89	30754.64
607.05	31077.63
607.20	31428.71
607.36	31318.71
607.51	31208.70
607.67	30733.57
607.82	30651.66
607.98	30672.72
608.13	31295.30
608.29	30703.15
608.44	31115.08
608.60	30878.69
608.75	31101.04
608.91	31264.88
609.06	30892.73
609.22	31166.57
609.37	30675.06
609.53	30562.72
609.68	30539.31
609.84	30845.92
609.99	30574.42
610.15	30494.84
610.30	30799.11
610.46	30672.72
610.61	30714.85
610.76	31084.65
610.92	31077.63
611.07	30820.17
611.23	30726.55
611.38	30389.52
611.54	30649.32
611.69	30600.16
611.84	30588.46
612.00	30651.66
612.15	30625.91
612.31	30962.95
612.46	30408.24
612.62	30955.93
612.77	30771.02
612.92	30796.77
613.08	30382.49
613.23	30866.98
613.39	30759.32
613.54	30469.09
613.69	30534.63
613.85	30375.47
614.00	30703.15
614.15	30707.83
614.31	30513.56
614.46	30527.61
614.62	30714.85
614.77	30796.77
614.92	30759.32
615.08	30323.98
615.23	30518.25
615.38	30274.83
615.54	30143.76
615.69	30148.44
615.84	30010.35
616.00	30419.94
616.15	30143.76
616.30	30403.56
616.46	30223.34
616.61	30359.09
616.76	30569.74
616.92	30230.36
617.07	30590.80
617.22	30553.35
617.37	29928.43
617.53	30047.80
617.68	30403.56
617.83	30122.69
617.99	29986.94
618.14	30080.56
618.29	30300.58
618.45	29979.92
618.60	29928.43
618.75	30258.45
618.90	30569.74
619.06	30394.20
619.21	29685.01
619.36	30249.08
619.51	30096.95
619.67	29759.91
619.82	29851.19
619.97	30080.56
620.12	29558.63
620.28	29736.51
620.43	29783.32
620.58	29921.41
620.73	29895.66
620.89	29902.68
621.04	30534.63
621.19	29778.64
621.34	29654.59
621.49	29603.10
621.65	29582.03
621.80	29703.74
621.95	29703.74
622.10	29820.77
622.25	29792.68
622.41	29502.45
622.56	29848.85
622.71	29912.05
622.86	29579.69
623.01	29961.20
623.16	29692.04
623.32	29500.11
623.47	29600.76
623.62	29905.02
623.77	29408.83
623.92	29645.23
624.07	29453.30
624.23	29310.53
624.38	29558.63
624.53	29553.94
624.68	30099.29
624.83	29483.73
624.98	29521.18
625.13	29685.01
625.29	29773.95
625.44	29670.97
625.59	29039.03
625.74	28917.32
625.89	29163.08
626.04	28989.88
626.19	29404.15
626.34	29343.30
626.49	29090.52
626.65	29399.47
626.80	29312.87
626.95	29085.84
627.10	28659.86
627.25	29118.60
627.40	28919.66
627.55	28842.42
627.70	28861.15
627.85	28914.98
628.00	28882.21
628.15	28938.38
628.30	28788.59
628.45	29132.65
628.60	28510.07
628.76	28783.91
628.91	28769.86
629.06	28659.86
629.21	29015.62
629.36	29104.56
629.51	28936.04
629.66	28793.27
629.81	28910.30
629.96	28687.95
630.11	28751.14
630.26	28957.11
630.41	28673.90
630.56	28898.59
630.71	28882.21
630.86	29074.13
631.01	28680.92
631.16	28503.04
631.31	28271.33
631.46	28500.70
631.61	28519.43
631.76	28500.70
631.91	28463.25
632.06	28451.55
632.21	28786.25
632.36	28554.54
632.51	28411.76
632.66	28732.42
632.81	28238.56
632.96	28236.22
633.10	28615.39
633.25	28524.11
633.40	28514.75
633.55	28439.85
633.70	28126.22
633.85	28142.60
634.00	28542.83
634.15	28313.46
634.30	28374.31
634.45	27936.63
634.60	28411.76
634.75	27950.68
634.90	28163.67
635.05	28676.24
635.19	28570.92
635.34	28650.50
635.49	28280.69
635.64	28109.83
635.79	28292.40
635.94	28297.08
636.09	28290.06
636.24	27725.99
636.39	27639.39
636.53	28243.24
636.68	28357.93
636.83	27768.12
636.98	28376.66
637.13	27845.35
637.28	27831.31
637.43	27899.19
637.57	28184.73
637.72	28184.73
637.87	27690.88
638.02	27847.69
638.17	27922.59
638.32	28093.45
638.46	27466.19
638.61	27831.31
638.76	27704.92
638.91	27461.51
639.06	27611.30
639.20	27758.75
639.35	27917.91
639.50	27868.76
639.65	27850.03
639.80	27580.87
639.94	27894.50
640.09	27641.73
640.24	27644.07
640.39	27538.74
640.54	27281.28
640.68	27292.99
640.83	27372.57
640.98	27381.93
641.13	27208.73
641.27	27569.17
641.42	27342.14
641.57	27468.53
641.72	27721.30
641.86	27175.96
642.01	26977.01
642.16	27379.59
642.31	27229.79
642.45	27239.15
642.60	27140.85
642.75	27243.84
642.90	26967.65
643.04	27051.91
643.19	27304.69
643.34	27094.04
643.48	27187.66
643.63	27414.69
643.78	27414.69
643.93	27513.00
644.07	27131.49
644.22	27253.20
644.37	27211.07
644.51	26965.31
644.66	26979.36
644.81	27065.96
644.95	26761.69
645.10	26810.84
645.25	26857.65
645.39	27190.00
645.54	27087.02
645.69	26890.41
645.83	27035.53
645.98	27264.90
646.13	27021.48
646.27	27187.66
646.42	26792.11
646.57	27084.68
646.71	27030.85
646.86	26834.24
647.00	26829.56
647.15	26824.88
647.30	26710.19
647.44	26590.83
647.59	26771.05
647.74	26630.62
647.88	26487.84
648.03	26876.37
648.17	26785.09
648.32	26878.71
648.47	26759.34
648.61	26897.44
648.76	26764.03
648.90	26841.26
649.05	27000.42
649.20	26747.64
649.34	26684.45
649.49	26551.04
649.63	26490.18
649.78	26448.05
649.92	25977.61
650.07	26600.19
650.21	26181.23
650.36	26621.25
650.51	26611.89
650.65	26349.75
650.80	26654.02
650.94	26228.04
651.09	26424.65
651.23	26115.70
651.38	26431.67
651.52	26314.64
651.67	26363.79
651.81	26244.43
651.96	26349.75
652.10	26169.53
652.25	26319.32
652.39	26106.34
652.54	26586.15
652.68	26544.02
652.83	26225.70
652.97	26249.11
653.12	26450.39
653.26	26277.19
653.41	26211.66
653.55	26258.47
653.70	25872.28
653.84	26132.08
653.99	25720.15
654.13	25996.33
654.27	25869.94
654.42	25546.95
654.56	25905.05
654.71	26436.35
654.85	26171.87
655.00	25919.09
655.14	26026.76
655.29	25919.09
655.43	26263.15
655.57	26115.70
655.72	25734.19
655.86	26103.99
656.01	25921.43
656.15	25469.71
656.30	25722.49
656.44	25804.41
656.58	25809.09
656.73	25865.26
656.87	25865.26
657.01	25621.84
657.16	25909.73
657.30	25692.06
657.45	25710.78
657.59	25596.10
657.73	25315.23
657.88	25502.48
658.02	25448.64
658.16	25535.24
658.31	25446.30
658.45	25481.41
658.60	25277.79
658.74	25415.88
658.88	25315.23
659.03	25532.90
659.17	25497.80
659.31	25383.11
659.46	25261.40
659.60	25483.75
659.74	25268.42
659.89	25366.73
660.03	25181.82
660.17	25249.70
660.32	25060.12
660.46	24964.15
660.60	24807.34
660.74	24816.70
660.89	25034.37
661.03	24931.39
661.17	25043.73
661.32	25149.06
661.46	24978.20
661.60	25001.60
661.74	24772.23
661.89	24690.31
662.03	25036.71
662.17	24774.57
662.31	24592.01
662.46	25074.16
662.60	24772.23
662.74	24568.60
662.88	24737.12
663.03	24648.18
663.17	24325.19
663.31	24219.86
663.45	24318.17
663.60	24210.50
663.74	24486.68
663.88	24556.90
664.02	24444.56
664.17	24533.50
664.31	24044.32
664.45	24205.82
664.59	24367.32
664.73	24301.78
664.88	24442.21
665.02	23672.18
665.16	24254.97
665.30	23777.50
665.44	24212.84
665.59	23981.13
665.73	23653.45
665.87	23370.25
666.01	24060.71
666.15	24299.44
666.29	23990.49
666.44	23690.90
666.58	23637.07
666.72	23627.71
666.86	23843.04
667.00	23983.47
667.14	23859.42
667.28	23548.13
667.43	23784.52
667.57	23496.64
667.71	23412.38
667.85	23349.18
667.99	23098.75
668.13	23311.74
668.27	23180.67
668.41	23342.16
668.56	23414.72
668.70	23417.06
668.84	23410.04
668.98	23484.94
669.12	23400.68
669.26	23484.94
669.40	23183.01
669.54	23180.67
669.68	23166.62
669.82	23040.23
669.96	22618.94
670.10	22651.70
670.25	22963.00
670.39	22932.57
670.53	22436.38
670.67	22616.60
670.81	22761.71
670.95	22480.85
671.09	22703.20
671.23	22555.74
671.37	22689.15
671.51	22670.43
671.65	23108.11
671.79	22504.25
671.93	22396.59
672.07	22525.32
672.21	22244.45
672.35	21968.27
672.49	22300.62
672.63	21921.46
672.77	22288.92
672.91	22335.73
673.05	22150.83
673.19	22335.73
673.33	21872.31
673.47	21991.67
673.61	21888.69
673.75	21888.69
673.89	21986.99
674.03	22031.46
674.17	21891.03
674.31	21977.63
674.45	21598.46
674.59	21734.21
674.73	21736.56
674.87	21577.40
675.01	21418.24
675.15	21406.54
675.29	21549.31
675.43	21336.32
675.56	21233.34
675.70	21303.56
675.84	21448.67
675.98	20891.62
676.12	21476.76
676.26	21308.24
676.40	21331.64
676.54	20945.45
676.68	21135.04
676.82	20615.44
676.96	20819.07
677.10	21029.71
677.23	20439.90
677.37	20367.34
677.51	20594.37
677.65	20624.80
677.79	20343.94
677.93	20336.91
678.07	20439.90
678.21	20144.99
678.34	20252.66
678.48	20170.74
678.62	19845.40
678.76	20341.60
678.90	19868.81
679.04	20051.37
679.18	19885.19
679.31	19878.17
679.45	19302.40
679.59	19573.90
679.73	19428.79
679.87	19264.95
680.00	19604.33
680.14	19531.77
680.28	19318.78
680.42	19606.67
680.56	19316.44
680.70	19323.46
680.83	19384.32
680.97	19337.51
681.11	19199.41
681.25	19204.10
681.39	18946.64
681.52	19253.25
681.66	18864.72
681.80	18977.06
681.94	18600.24
682.07	18719.60
682.21	18724.29
682.35	18551.09
682.49	18869.40
682.62	18633.00
682.76	18490.23
682.90	18455.12
683.04	18333.42
683.17	18483.21
683.31	18403.63
683.45	18438.74
683.59	18628.32
683.72	18106.38
683.86	18092.34
684.00	18181.28
684.13	18092.34
684.27	18033.83
684.41	17708.49
684.55	17769.35
684.68	17572.74
684.82	17736.58
684.96	17556.36
685.09	17399.54
685.23	17336.35
685.37	17504.87
685.50	17621.89
685.64	17420.61
685.78	17331.67
685.91	17451.03
686.05	17177.19
686.19	17455.72
686.32	17266.13
686.46	17018.04
686.60	16910.37
686.73	17006.33
686.87	16739.51
687.01	16568.65
687.14	16531.20
687.28	16648.23
687.42	16386.09
687.55	16659.93
687.69	16561.63
687.82	16547.59
687.96	16320.56
688.10	16348.64
688.23	16568.65
688.37	16479.71
688.50	16402.47
688.64	16367.37
688.78	16072.46
688.91	16039.69
689.05	15950.75
689.18	16140.33
689.32	15744.78
689.46	15690.95
689.59	15536.48
689.73	15969.48
689.86	15580.95
690.00	15716.70
690.13	15545.84
690.27	15543.50
690.41	15529.45
690.54	15522.43
690.68	15433.49
690.81	15564.56
690.95	15550.52
691.08	15339.87
691.22	15204.12
691.35	15159.65
691.49	14904.53
691.62	15185.40
691.76	14995.81
691.89	14937.30
692.03	14618.99
692.16	14780.48
692.30	14675.16
692.43	14705.59
692.57	14534.73
692.70	14490.26
692.84	14443.45
692.97	14459.83
693.11	14448.13
693.24	14382.59
693.38	14511.32
693.51	14225.78
693.65	14274.93
693.78	13940.23
693.92	13951.93
694.05	14003.43
694.19	14115.77
694.32	13977.68
694.45	13764.69
694.59	13525.96
694.72	13544.68
694.86	13371.48
694.99	13448.72
695.13	13364.46
695.26	13493.19
695.39	13378.50
695.53	13490.85
695.66	13324.67
695.80	13034.44
695.93	13401.91
696.07	13516.59
696.20	13348.08
696.33	13186.58
696.47	13245.09
696.60	13043.81
696.73	12877.63
696.87	12931.46
697.00	13104.66
697.14	12695.07
697.27	12664.64
697.40	12744.22
697.54	12393.14
697.67	12540.59
697.80	12594.42
697.94	12351.01
698.07	12442.29
698.21	12248.02
698.34	12219.94
698.47	12372.07
698.61	12212.92
698.74	12456.33
698.87	12135.68
699.01	12131.00
699.14	12159.08
699.27	12152.06
699.40	11852.47
699.54	11953.12
699.67	11918.01
699.80	11831.41
699.94	11637.14
700.07	11857.15
700.20	11328.19
700.34	11403.09
700.47	11508.41
700.60	11599.70
700.73	11370.32
700.87	11590.33
701.00	11606.72
701.13	11440.54
701.26	11412.45
701.40	11480.33
701.53	11459.26
701.66	11194.78
701.79	11164.36
701.93	11089.46
702.06	11112.86
702.19	10991.16
702.32	10888.17
702.46	10775.83
702.59	10644.76
702.72	10574.54
702.85	10719.65
702.99	10750.08
703.12	10483.26
703.25	10558.16
703.38	10558.16
703.51	10342.83
703.65	10480.92
703.78	10359.21
703.91	10572.20
704.04	10389.64
704.17	10422.41
704.31	10382.62
704.44	10256.23
704.57	10139.20
704.70	9970.68
704.83	9991.75
704.96	10029.20
705.10	9916.85
705.23	9804.50
>>>>>End Processed Spectral Data<<<<<
