SpectraSuite Data File
++++++++++++++++++++++++++++++++++++
Date: Fri Oct 18 13:58:13 GMT-05:00 2013
User: bianchi
Dark Spectrum Present: No
Reference Spectrum Present: No
Number of Sampled Component Spectra: 1
Spectrometers: USB2+H05261
Integration Time (usec): 50000 (USB2+H05261)
Spectra Averaged: 1 (USB2+H05261)
Boxcar Smoothing: 0 (USB2+H05261)
Correct for Electrical Dark: No (USB2+H05261)
Strobe/Lamp Enabled: No (USB2+H05261)
Correct for Detector Non-linearity: No (USB2+H05261)
Correct for Stray Light: No (USB2+H05261)
Number of Pixels in Processed Spectrum: 2048
>>>>>Begin Processed Spectral Data<<<<<
365.73	0.00
365.92	0.00
366.12	0.00
366.32	0.00
366.52	0.00
366.72	0.00
366.91	0.00
367.11	0.00
367.31	0.00
367.51	0.00
367.70	0.00
367.90	0.00
368.10	0.00
368.30	0.00
368.49	0.00
368.69	0.00
368.89	0.00
369.09	0.00
369.28	0.00
369.48	0.00
369.68	0.00
369.87	0.00
370.07	0.00
370.27	0.00
370.47	0.00
370.66	107.66
370.86	128.73
371.06	149.79
371.25	198.95
371.45	126.39
371.65	191.92
371.84	182.56
372.04	255.12
372.24	145.11
372.44	161.50
372.63	140.43
372.83	266.82
373.03	168.52
373.22	156.82
373.42	175.54
373.62	236.39
373.81	234.05
374.01	224.69
374.21	189.58
374.40	243.42
374.60	224.69
374.79	269.16
374.99	173.20
375.19	243.42
375.38	304.27
375.58	264.48
375.78	227.03
375.97	322.99
376.17	262.14
376.37	191.92
376.56	292.57
376.76	278.52
376.95	306.61
377.15	224.69
377.35	243.42
377.54	294.91
377.74	210.65
377.93	220.01
378.13	292.57
378.33	294.91
378.52	236.39
378.72	287.89
378.91	271.50
379.11	299.59
379.31	304.27
379.50	273.84
379.70	315.97
379.89	320.65
380.09	264.48
380.28	252.78
380.48	308.95
380.68	311.29
380.87	334.70
381.07	325.33
381.26	381.51
381.46	351.08
381.65	376.83
381.85	393.21
382.04	358.10
382.24	395.55
382.43	362.78
382.63	330.02
382.83	360.44
383.02	351.08
383.22	320.65
383.41	341.72
383.61	390.87
383.80	344.06
384.00	388.53
384.19	400.23
384.39	344.06
384.58	372.15
384.78	327.68
384.97	353.42
385.17	435.34
385.36	433.00
385.56	306.61
385.75	325.33
385.95	393.21
386.14	456.40
386.34	383.85
386.53	437.68
386.72	351.08
386.92	451.72
387.11	355.76
387.31	388.53
387.50	362.78
387.70	496.19
387.89	519.60
388.09	451.72
388.28	404.91
388.48	496.19
388.67	411.93
388.86	395.55
389.06	461.09
389.25	449.38
389.45	421.30
389.64	470.45
389.84	435.34
390.03	524.28
390.22	533.64
390.42	496.19
390.61	498.53
390.81	519.60
391.00	552.37
391.19	531.30
391.39	557.05
391.58	479.81
391.78	500.87
391.97	475.13
392.16	510.24
392.36	528.96
392.55	571.09
392.75	608.54
392.94	568.75
393.13	566.41
393.33	627.26
393.52	596.84
393.71	526.62
393.91	664.71
394.10	624.92
394.29	566.41
394.49	554.71
394.68	627.26
394.88	662.37
395.07	711.52
395.26	592.16
395.46	561.73
395.65	657.69
395.84	608.54
396.04	650.67
396.23	669.39
396.42	681.10
396.62	725.57
396.81	648.33
397.00	643.65
397.19	650.67
397.39	676.41
397.58	706.84
397.77	636.63
397.97	683.44
398.16	690.46
398.35	664.71
398.55	674.07
398.74	791.10
398.93	727.91
399.12	709.18
399.32	655.35
399.51	755.99
399.70	805.14
399.90	760.67
400.09	772.38
400.28	732.59
400.47	737.27
400.67	748.97
400.86	786.42
401.05	809.83
401.24	842.59
401.44	737.27
401.63	809.83
401.82	791.10
402.01	819.19
402.21	788.76
402.40	908.13
402.59	873.02
402.78	755.99
402.97	760.67
403.17	823.87
403.36	856.64
403.55	908.13
403.74	966.64
403.93	959.62
404.13	823.87
404.32	905.79
404.51	849.61
404.70	950.26
404.89	898.77
405.09	966.64
405.28	957.28
405.47	992.39
405.66	1039.20
405.85	968.98
406.05	971.32
406.24	985.37
406.43	903.45
406.62	987.71
406.81	1125.80
407.00	1029.84
407.20	1032.18
407.39	1018.13
407.58	1013.45
407.77	1060.26
407.96	1114.10
408.15	1088.35
408.34	1086.01
408.54	1125.80
408.73	1107.07
408.92	1142.18
409.11	1170.27
409.30	1174.95
409.49	1114.10
409.68	1062.60
409.87	1081.33
410.07	1165.59
410.26	1217.08
410.45	1210.06
410.64	1240.48
410.83	1277.93
411.02	1205.38
411.21	1254.53
411.40	1252.19
411.59	1303.68
411.78	1341.13
411.98	1263.89
412.17	1214.74
412.36	1327.08
412.55	1387.94
412.74	1343.47
412.93	1310.70
413.12	1268.57
413.31	1591.56
413.50	1392.62
413.69	1420.71
413.88	1462.83
414.07	1394.96
414.26	1397.30
414.45	1383.26
414.64	1488.58
414.83	1563.48
415.02	1451.13
415.22	1502.62
415.41	1542.41
415.60	1502.62
415.79	1629.01
415.98	1699.23
416.17	1572.84
416.36	1675.82
416.55	1544.75
416.74	1519.01
416.93	1647.74
417.12	1703.91
417.31	1713.27
417.50	1720.29
417.69	1790.51
417.88	1767.10
418.07	1713.27
418.26	1617.31
418.45	1715.61
418.64	1778.81
418.83	1727.32
419.02	1795.19
419.21	1858.39
419.39	1856.04
419.58	1881.79
419.77	1907.54
419.96	1865.41
420.15	1926.26
420.34	1968.39
420.53	1977.75
420.72	1853.70
420.91	1900.52
421.10	1905.20
421.29	1916.90
421.48	1963.71
421.67	2022.22
421.86	1909.88
422.05	1996.48
422.24	2010.52
422.43	2015.20
422.61	2001.16
422.80	1973.07
422.99	2057.33
423.18	1989.46
423.37	2125.21
423.56	2062.01
423.75	2008.18
423.94	1860.73
424.13	1973.07
424.32	1949.67
424.50	2019.88
424.69	2129.89
424.88	2104.14
425.07	2001.16
425.26	1933.28
425.45	2111.16
425.64	2008.18
425.83	2043.29
426.01	2036.27
426.20	2085.42
426.39	2062.01
426.58	2003.50
426.77	2172.02
426.96	2085.42
427.15	2076.06
427.33	2169.68
427.52	2176.70
427.71	2101.80
427.90	2207.13
428.09	2078.40
428.28	2160.31
428.46	2211.81
428.65	2260.96
428.84	2202.44
429.03	2298.41
429.22	2300.75
429.40	2291.38
429.59	2408.41
429.78	2221.17
429.97	2085.42
430.16	2150.95
430.34	2277.34
430.53	2282.02
430.72	2359.26
430.91	2375.64
431.10	2282.02
431.28	2403.73
431.47	2406.07
431.66	2504.37
431.85	2359.26
432.03	2462.24
432.22	2459.90
432.41	2424.80
432.60	2485.65
432.79	2380.32
432.97	2555.86
433.16	2509.05
433.35	2511.39
433.54	2520.76
433.72	2537.14
433.91	2513.74
434.10	2607.36
434.28	2513.74
434.47	2546.50
434.66	2544.16
434.85	2612.04
435.03	2644.81
435.22	2656.51
435.41	2743.11
435.59	2654.17
435.78	2518.42
435.97	2600.34
436.16	2726.72
436.34	2684.59
436.53	2684.59
436.72	2743.11
436.90	2602.68
437.09	2754.81
437.28	2731.41
437.46	2684.59
437.65	2782.90
437.84	2738.43
438.02	2850.77
438.21	2925.67
438.40	2752.47
438.58	2967.80
438.77	2932.69
438.96	2979.50
439.14	2829.71
439.33	2967.80
439.52	2918.65
439.70	3061.42
439.89	3019.29
440.08	2993.55
440.26	2974.82
440.45	3056.74
440.63	3136.32
440.82	3199.51
441.01	3141.00
441.19	3098.87
441.38	3328.24
441.57	3272.07
441.75	3281.43
441.94	3307.18
442.12	3325.90
442.31	3377.39
442.50	3389.10
442.68	3349.31
442.87	3342.28
443.05	3440.59
443.24	3410.16
443.43	3356.33
443.61	3349.31
443.80	3574.00
443.98	3375.05
444.17	3211.22
444.35	3473.36
444.54	3545.91
444.73	3506.12
444.91	3442.93
445.10	3536.55
445.28	3396.12
445.47	3499.10
445.65	3372.71
445.84	3545.91
446.02	3538.89
446.21	3557.61
446.39	3400.80
446.58	3520.17
446.77	3513.14
446.95	3449.95
447.14	3557.61
447.32	3585.70
447.51	3611.45
447.69	3574.00
447.88	3471.01
448.06	3501.44
448.25	3424.20
448.43	3480.38
448.62	3538.89
448.80	3475.70
448.99	3517.83
449.17	3712.09
449.36	3653.58
449.54	3712.09
449.73	3782.31
449.91	3784.65
450.10	3709.75
450.28	3873.59
450.46	3688.68
450.65	3798.69
450.83	3805.71
451.02	3789.33
451.20	3943.80
451.39	3868.91
451.57	3779.97
451.76	3791.67
451.94	3702.73
452.13	3983.59
452.31	4030.40
452.49	3845.50
452.68	3847.84
452.86	3904.01
453.05	3967.21
453.23	4063.17
453.42	3969.55
453.60	3925.08
453.78	3943.80
453.97	3880.61
454.15	3927.42
454.34	3918.06
454.52	3983.59
454.70	4021.04
454.89	4124.02
455.07	4149.77
455.26	4039.76
455.44	4102.96
455.62	4184.88
455.81	4079.55
455.99	4119.34
456.17	4234.03
456.36	4184.88
456.54	4142.75
456.73	4170.83
456.91	4360.42
457.09	4440.00
457.28	4498.51
457.46	4285.52
457.64	4344.03
457.83	4386.16
458.01	4393.19
458.19	4280.84
458.38	4535.96
458.56	4458.72
458.74	4456.38
458.93	4526.60
459.11	4451.70
459.29	4428.29
459.48	4482.13
459.66	4568.73
459.84	4688.09
460.03	4727.88
460.21	4571.07
460.39	4521.92
460.57	4489.15
460.76	4629.58
460.94	4650.64
461.12	4641.28
461.31	4753.63
461.49	4678.73
461.67	4849.59
461.85	4709.16
462.04	4655.33
462.22	4849.59
462.40	4748.95
462.59	4854.27
462.77	4938.53
462.95	4688.09
463.13	4723.20
463.32	4772.35
463.50	4758.31
463.68	4936.19
463.86	4947.89
464.05	4784.06
464.23	4901.08
464.41	5078.96
464.59	4887.04
464.78	4870.65
464.96	5032.15
465.14	4856.61
465.32	5036.83
465.50	5076.62
465.69	5034.49
465.87	5046.20
466.05	5090.67
466.23	5064.92
466.41	5198.33
466.60	5228.76
466.78	5259.18
466.96	5109.39
467.14	5090.67
467.32	5158.54
467.51	5193.65
467.69	5090.67
467.87	5320.04
468.05	5282.59
468.23	5163.22
468.41	5188.97
468.60	5273.23
468.78	5362.17
468.96	5376.21
469.14	5336.42
469.32	5434.72
469.50	5427.70
469.69	5385.57
469.87	5448.77
470.05	5528.35
470.23	5504.94
470.41	5474.51
470.59	5533.03
470.77	5593.88
470.95	5640.69
471.14	5685.16
471.32	5603.24
471.50	5631.33
471.68	5734.31
471.86	5738.99
472.04	5774.10
472.22	5753.04
472.40	5699.20
472.58	5863.04
472.77	5757.72
472.95	6001.13
473.13	6125.18
473.31	5888.79
473.49	5893.47
473.67	5734.31
473.85	5858.36
474.03	6078.37
474.21	5879.43
474.39	6296.04
474.57	6216.46
474.75	6279.66
474.93	6361.58
475.12	6274.98
475.30	6148.59
475.48	6356.90
475.66	6279.66
475.84	6345.19
476.02	6509.03
476.20	6480.94
476.38	6738.40
476.56	6668.19
476.74	6658.82
476.92	6583.93
477.10	6696.27
477.28	6815.64
477.46	6689.25
477.64	6691.59
477.82	6848.41
478.00	7211.19
478.18	7159.70
478.36	7122.25
478.54	7166.72
478.72	7211.19
478.90	7124.59
479.08	7190.13
479.26	7370.35
479.44	7393.75
479.62	7339.92
479.80	7407.80
479.98	7431.20
480.16	7679.30
480.34	7775.26
480.52	7686.32
480.70	7721.43
480.88	7681.64
481.06	7864.20
481.24	7824.41
481.41	7976.55
481.59	8135.70
481.77	8086.55
481.95	8114.64
482.13	8112.30
482.31	8095.91
482.49	8397.84
482.67	8215.28
482.85	8545.30
483.03	8800.41
483.21	8634.24
483.39	8657.64
483.57	8629.56
483.74	8643.60
483.92	8856.59
484.10	8980.64
484.28	9074.26
484.46	9144.47
484.64	9317.67
484.82	9032.13
485.00	9451.08
485.18	9432.36
485.35	9626.62
485.53	9514.28
485.71	9579.81
485.89	9874.72
486.07	9643.01
486.25	9568.11
486.43	9919.19
486.61	10026.86
486.78	10071.33
486.96	9951.96
487.14	10455.17
487.32	10244.52
487.50	10183.67
487.68	10281.97
487.85	10429.43
488.03	10600.29
488.21	10853.06
488.39	10796.89
488.57	10686.89
488.75	10906.90
488.92	11162.01
489.10	11066.05
489.28	11056.69
489.46	11096.48
489.64	11171.38
489.81	11321.17
489.99	11396.07
490.17	11623.10
490.35	11548.20
490.53	11641.82
490.70	11800.98
490.88	11852.47
491.06	11826.73
491.24	12056.10
491.41	12107.59
491.59	12046.74
491.77	12299.52
491.95	12210.57
492.13	12250.36
492.30	12432.93
492.48	12685.70
492.66	12556.97
492.84	12528.89
493.01	12931.46
493.19	12732.51
493.37	12959.55
493.54	12842.52
493.72	13097.64
493.90	13046.15
494.08	13329.35
494.25	13270.84
494.43	13341.05
494.61	13446.38
494.79	13521.27
494.96	13500.21
495.14	13390.20
495.32	13748.31
495.49	13729.58
495.67	13963.64
495.85	13907.46
496.02	14080.66
496.20	14150.88
496.38	14036.19
496.55	14242.16
496.73	14604.94
496.91	14396.64
497.09	14459.83
497.26	14590.90
497.44	14452.81
497.62	14635.37
497.79	14738.35
497.97	14815.59
498.14	14974.75
498.32	15264.97
498.50	15302.42
498.67	15199.44
498.85	15232.21
499.03	15374.98
499.20	15339.87
499.38	15520.09
499.56	15477.96
499.73	15569.24
499.91	15580.95
500.08	15646.48
500.26	15288.38
500.44	15908.62
500.61	15627.76
500.79	15723.72
500.97	15988.20
501.14	16109.91
501.32	16004.58
501.49	16180.12
501.67	16198.85
501.84	16189.49
502.02	16198.85
502.20	16201.19
502.37	16294.81
502.55	16355.66
502.72	16287.79
502.90	16152.04
503.07	16498.44
503.25	16594.40
503.43	16744.19
503.60	16802.71
503.78	16858.88
503.95	16868.24
504.13	16994.63
504.30	16994.63
504.48	16999.31
504.65	16901.01
504.83	17081.23
505.01	17490.82
505.18	17476.78
505.36	17748.28
505.53	17144.42
505.71	17432.31
505.88	17212.30
506.06	17149.11
506.23	17373.80
506.41	17818.50
506.58	17481.46
506.76	17439.33
506.93	17685.09
507.11	17790.41
507.28	17762.33
507.46	18029.15
507.63	17851.27
507.81	18256.18
507.98	18118.09
508.16	18174.26
508.33	17912.12
508.50	17987.02
508.68	18443.42
508.85	18621.30
509.03	18473.85
509.20	18298.31
509.38	18806.20
509.55	18913.87
509.73	18635.35
509.90	18780.46
510.08	18614.28
510.25	18544.06
510.42	18862.38
510.60	18951.32
510.77	18829.61
510.95	19094.09
511.12	19021.53
511.30	19012.17
511.47	19096.43
511.64	19328.14
511.82	19440.49
511.99	19250.91
512.17	19482.62
512.34	19300.06
512.51	19470.92
512.69	19367.93
512.86	19655.82
513.04	19747.10
513.21	19634.75
513.38	19597.31
513.56	19765.82
513.73	19866.47
513.90	19859.45
514.08	19992.86
514.25	20217.55
514.43	20107.54
514.60	19957.75
514.77	20259.68
514.95	20091.16
515.12	19901.58
515.29	20215.21
515.47	20304.15
515.64	20472.67
515.81	20393.09
515.99	20475.01
516.16	20589.69
516.33	20498.41
516.51	20931.41
516.68	20610.76
516.85	20498.41
517.03	20830.77
517.20	20882.26
517.37	20847.15
517.54	20538.20
517.72	21123.33
517.89	20734.81
518.06	20954.82
518.24	20790.98
518.41	21132.70
518.58	21139.72
518.75	20929.07
518.93	21518.89
519.10	21319.94
519.27	21069.50
519.45	21296.53
519.62	21174.83
519.79	21156.10
519.96	21242.70
520.14	21624.21
520.31	21865.28
520.48	21809.11
520.65	21818.47
520.83	21951.88
521.00	21898.05
521.17	21607.83
521.34	21715.49
521.52	21895.71
521.69	21905.07
521.86	22408.29
522.03	22354.46
522.20	21947.20
522.38	22066.57
522.55	22300.62
522.72	21984.65
522.89	22085.30
523.07	22600.21
523.24	22391.91
523.41	22623.62
523.58	22565.10
523.75	22707.88
523.92	22501.91
524.10	22785.12
524.27	22780.43
524.44	22843.63
524.61	23136.20
524.78	22803.84
524.96	23021.51
525.13	22644.68
525.30	22782.77
525.47	23304.71
525.64	23124.49
525.81	23175.98
525.98	23269.61
526.16	22663.41
526.33	23150.24
526.50	23290.67
526.67	23199.39
526.84	22974.70
527.01	23175.98
527.18	23353.87
527.36	23073.00
527.53	23875.80
527.70	23625.37
527.87	23541.11
528.04	23531.75
528.21	23711.97
528.38	23513.02
528.55	23250.88
528.72	23672.18
528.89	23807.93
529.07	23990.49
529.24	23828.99
529.41	23733.03
529.58	23796.23
529.75	23850.06
529.92	24229.23
530.09	24084.11
530.26	23950.70
530.43	24479.66
530.60	24140.29
530.77	24411.79
530.94	24397.74
531.11	24348.59
531.28	24439.87
531.46	24348.59
531.63	24343.91
531.80	24254.97
531.97	24655.20
532.14	24802.66
532.31	24482.00
532.48	24568.60
532.65	24442.21
532.82	24652.86
532.99	24840.11
533.16	24680.95
533.33	24954.79
533.50	24713.72
533.67	25116.29
533.84	24779.25
534.01	24922.02
534.18	24940.75
534.35	24994.58
534.52	24809.68
534.69	25394.81
534.86	25205.23
535.03	24837.76
535.20	24765.21
535.37	24926.71
535.54	24704.35
535.71	24861.17
535.88	25326.94
536.05	25125.65
536.22	25188.85
536.38	25532.90
536.55	25645.25
536.72	25425.24
536.89	25359.70
537.06	25406.52
537.23	25486.09
537.40	25195.87
537.57	25647.59
537.74	25708.44
537.91	25745.89
538.08	26040.80
538.25	25860.58
538.42	25937.82
538.59	25869.94
538.75	25582.06
538.92	25862.92
539.09	25579.71
539.26	26096.97
539.43	25788.02
539.60	25914.41
539.77	25848.88
539.94	26118.04
540.11	25937.82
540.28	26026.76
540.44	25893.35
540.61	25982.29
540.78	25802.07
540.95	26260.81
541.12	26218.68
541.29	26434.01
541.46	26174.21
541.62	26192.94
541.79	26253.79
541.96	25919.09
542.13	26125.06
542.30	26129.74
542.47	26607.21
542.63	26469.12
542.80	26567.42
542.97	26766.37
543.14	26778.07
543.31	26897.44
543.48	26986.38
543.64	26946.59
543.81	26920.84
543.98	27215.75
544.15	27077.66
544.32	26913.82
544.48	27089.36
544.65	26623.59
544.82	27044.89
544.99	26532.31
545.16	27016.80
545.32	26829.56
545.49	27445.12
545.66	27501.29
545.83	27356.18
546.00	27569.17
546.16	27145.53
546.33	27283.62
546.50	26639.98
546.67	27325.75
546.83	27122.13
547.00	27335.12
547.17	27328.10
547.34	27384.27
547.50	27510.66
547.67	27770.46
547.84	27501.29
548.00	27716.62
548.17	27520.02
548.34	27466.19
548.51	27725.99
548.67	28051.32
548.84	28048.98
549.01	27784.50
549.18	27819.61
549.34	27992.81
549.51	27887.48
549.68	28027.92
549.84	28013.87
550.01	27524.70
550.18	27786.84
550.34	28472.62
550.51	27770.46
550.68	28409.42
550.84	27407.67
551.01	28121.54
551.18	27639.39
551.34	27967.06
551.51	28175.37
551.68	28030.26
551.84	28166.01
552.01	28500.70
552.18	28533.47
552.34	27983.44
552.51	28215.16
552.68	28100.47
552.84	28067.70
553.01	28386.02
553.18	28442.19
553.34	28063.02
553.51	28524.11
553.67	28819.02
553.84	28716.03
554.01	28741.78
554.17	28535.81
554.34	28676.24
554.51	28538.15
554.67	28744.12
554.84	28397.72
555.00	28816.68
555.17	28748.80
555.33	28929.02
555.50	28402.40
555.67	28673.90
555.83	28484.32
556.00	28929.02
556.16	29153.71
556.33	28601.35
556.50	29022.64
556.66	28659.86
556.83	28999.24
556.99	29366.70
557.16	28961.79
557.32	28732.42
557.49	29134.99
557.65	28701.99
557.82	29123.29
557.98	28957.11
558.15	29060.09
558.32	29516.50
558.48	28781.57
558.65	29160.73
558.81	29055.41
558.98	29460.32
559.14	29404.15
559.31	29048.39
559.47	29041.37
559.64	29104.56
559.80	29069.45
559.97	29670.97
560.13	29340.96
560.30	29015.62
560.46	29149.03
560.63	28994.56
560.79	29504.79
560.96	29223.93
561.12	29032.00
561.29	29254.36
561.45	29455.64
561.61	29355.00
561.78	29408.83
561.94	29542.24
562.11	29380.74
562.27	29490.75
562.44	29677.99
562.60	29465.00
562.77	29457.98
562.93	29488.41
563.10	29453.30
563.26	29460.32
563.42	29682.67
563.59	29666.29
563.75	29462.66
563.92	29811.40
564.08	29446.28
564.24	29729.48
564.41	29565.65
564.57	29453.30
564.74	29949.50
564.90	29940.13
565.07	29773.95
565.23	29837.15
565.39	30183.55
565.56	30094.61
565.72	29472.03
565.88	29600.76
566.05	29474.37
566.21	29670.97
566.38	29509.47
566.54	30008.01
566.70	29762.25
566.87	30157.80
567.03	30029.07
567.19	30096.95
567.36	30221.00
567.52	30050.14
567.68	29748.21
567.85	29572.67
568.01	30260.79
568.17	29862.90
568.34	30281.85
568.50	29900.34
568.66	30017.37
568.83	30328.66
568.99	30417.60
569.15	29930.77
569.32	29799.70
569.48	29809.06
569.64	29998.65
569.81	30101.63
569.97	29832.47
570.13	30251.42
570.30	29670.97
570.46	30033.75
570.62	29518.84
570.78	30122.69
570.95	29876.94
571.11	30211.64
571.27	29685.01
571.43	29907.37
571.60	30010.35
571.76	30305.26
571.92	30532.29
572.09	30031.41
572.25	30305.26
572.41	30333.34
572.57	30073.54
572.74	30679.74
572.90	30213.98
573.06	30099.29
573.22	30424.62
573.38	30291.21
573.55	29954.18
573.71	30249.08
573.87	30380.15
574.03	30136.74
574.20	30611.87
574.36	30103.97
574.52	30642.29
574.68	30174.19
574.84	30174.19
575.01	30307.60
575.17	30174.19
575.33	30096.95
575.49	30204.61
575.65	30242.06
575.82	30614.21
575.98	30183.55
576.14	30405.90
576.30	30363.77
576.46	30272.49
576.62	30335.68
576.79	30670.38
576.95	30670.38
577.11	30127.38
577.27	30323.98
577.43	30558.03
577.59	30284.19
577.75	30675.06
577.92	29855.87
578.08	30536.97
578.24	30462.07
578.40	30110.99
578.56	30272.49
578.72	30459.73
578.88	30492.50
579.04	30888.05
579.21	30448.03
579.37	30401.22
579.53	30654.00
579.69	30204.61
579.85	30274.83
580.01	30169.51
580.17	30019.71
580.33	30836.56
580.49	30555.69
580.65	30899.75
580.82	30417.60
580.98	30628.25
581.14	30515.90
581.30	30518.25
581.46	30345.05
581.62	30567.40
581.78	30607.19
581.94	30555.69
582.10	30319.30
582.26	30534.63
582.42	30728.89
582.58	30082.91
582.74	30515.90
582.90	30354.41
583.06	30866.98
583.22	30754.64
583.38	30298.23
583.54	30721.87
583.70	30169.51
583.86	30429.30
584.02	30850.60
584.18	30813.15
584.34	30410.58
584.50	30541.65
584.66	30401.22
584.82	30803.79
584.98	30984.01
585.14	30618.89
585.30	30499.52
585.46	30572.08
585.62	30419.94
585.78	30532.29
585.94	30555.69
586.10	30951.24
586.26	30483.14
586.42	30939.54
586.58	30651.66
586.74	30260.79
586.90	30401.22
587.06	30118.01
587.22	30604.84
587.38	30448.03
587.54	30801.45
587.70	30946.56
587.86	30857.62
588.02	31037.84
588.18	30768.68
588.34	30778.04
588.49	30377.81
588.65	30419.94
588.81	30616.55
588.97	30721.87
589.13	30522.93
589.29	30412.92
589.45	30756.98
589.61	30518.25
589.77	31442.76
589.93	30799.11
590.08	30801.45
590.24	31384.24
590.40	30937.20
590.56	30923.16
590.72	30637.61
590.88	30843.58
591.04	30766.34
591.20	31026.14
591.35	31040.18
591.51	31119.76
591.67	31117.42
591.83	31456.80
591.99	30934.86
592.15	31124.44
592.31	30993.37
592.46	30836.56
592.62	31054.23
592.78	30745.28
592.94	31026.14
593.10	30806.13
593.26	31178.28
593.41	31007.42
593.57	31002.74
593.73	31115.08
593.89	31178.28
594.05	31103.38
594.20	31082.31
594.36	31260.20
594.52	31051.89
594.68	31115.08
594.84	30775.70
594.99	31068.27
595.15	31236.79
595.31	31173.60
595.47	31089.34
595.62	31349.14
595.78	31040.18
595.94	31049.55
596.10	31051.89
596.25	31014.44
596.41	30740.60
596.57	30724.21
596.73	31262.54
596.88	31068.27
597.04	30874.01
597.20	31468.50
597.36	31307.01
597.51	31339.77
597.67	30876.35
597.83	30817.83
597.99	31199.34
598.14	30934.86
598.30	31044.87
598.46	30857.62
598.61	31218.07
598.77	31332.75
598.93	31314.03
599.09	30981.67
599.24	31466.16
599.40	31215.72
599.56	31089.34
599.71	31395.95
599.87	31531.70
600.03	30925.50
600.18	31054.23
600.34	30813.15
600.50	30820.17
600.65	31164.23
600.81	31711.92
600.97	31370.20
601.12	31534.04
601.28	31552.76
601.44	31417.01
601.59	31054.23
601.75	31042.53
601.91	31578.51
602.06	31276.58
602.22	31461.48
602.37	31054.23
602.53	31098.70
602.69	31386.58
602.84	31180.62
603.00	31557.44
603.16	31449.78
603.31	31239.13
603.47	31433.39
603.62	31424.03
603.78	31215.72
603.94	30895.07
604.09	31012.10
604.25	31091.68
604.40	31222.75
604.56	31089.34
604.71	31398.29
604.87	31082.31
605.03	31271.90
605.18	31264.88
605.34	31098.70
605.49	31033.16
605.65	31503.61
605.80	30574.42
605.96	30862.30
606.12	30824.86
606.27	31035.50
606.43	30892.73
606.58	31089.34
606.74	30937.20
606.89	31211.04
607.05	31321.05
607.20	31454.46
607.36	31253.17
607.51	31260.20
607.67	30756.98
607.82	30946.56
607.98	31356.16
608.13	31356.16
608.29	30902.09
608.44	30754.64
608.60	31337.43
608.75	30909.11
608.91	30962.95
609.06	31164.23
609.22	31215.72
609.37	31014.44
609.53	31028.48
609.68	30817.83
609.84	30794.43
609.99	30464.41
610.15	30796.77
610.30	31112.74
610.46	30586.12
610.61	31072.95
610.76	30923.16
610.92	30740.60
611.07	31189.98
611.23	31136.15
611.38	30562.72
611.54	30810.81
611.69	30590.80
611.84	30637.61
612.00	30930.18
612.15	30670.38
612.31	31124.44
612.46	30761.66
612.62	31096.36
612.77	30810.81
612.92	30923.16
613.08	30670.38
613.23	30555.69
613.39	30799.11
613.54	30153.12
613.69	30780.39
613.85	30433.99
614.00	30918.48
614.15	30766.34
614.31	30672.72
614.46	30808.47
614.62	30579.10
614.77	30993.37
614.92	30976.99
615.08	30335.68
615.23	30930.18
615.38	30691.44
615.54	30677.40
615.69	30646.97
615.84	30146.10
616.00	30721.87
616.15	30534.63
616.30	30726.55
616.46	30560.37
616.61	30045.46
616.76	30595.48
616.92	30319.30
617.07	30536.97
617.22	30469.09
617.37	30258.45
617.53	30211.64
617.68	30373.13
617.83	30452.71
617.99	29930.77
618.14	30471.43
618.29	30047.80
618.45	30244.40
618.60	30022.05
618.75	30270.15
618.90	30431.65
619.06	30316.96
619.21	30132.06
619.36	29933.11
619.51	30136.74
619.67	29827.79
619.82	29432.24
619.97	30635.27
620.12	29944.81
620.28	29640.54
620.43	29898.00
620.58	29979.92
620.73	30314.62
620.89	30127.38
621.04	30469.09
621.19	30218.66
621.34	29958.86
621.49	30045.46
621.65	29680.33
621.80	29659.27
621.95	29951.84
622.10	30026.73
622.25	29804.38
622.41	30164.82
622.56	30174.19
622.71	29750.55
622.86	29961.20
623.01	29476.71
623.16	29692.04
623.32	29591.39
623.47	30008.01
623.62	29640.54
623.77	29481.39
623.92	29862.90
624.07	29528.20
624.23	29537.56
624.38	29443.94
624.53	29926.09
624.68	29397.13
624.83	29589.05
624.98	30066.52
625.13	29528.20
625.29	29626.50
625.44	29333.93
625.59	29666.29
625.74	29584.37
625.89	29645.23
626.04	29476.71
626.19	28987.53
626.34	29340.96
626.49	29282.44
626.65	29305.85
626.80	29118.60
626.95	29687.36
627.10	29514.16
627.25	29385.43
627.40	29247.33
627.55	28826.04
627.70	29530.54
627.85	29230.95
628.00	28907.96
628.15	29165.42
628.30	28929.02
628.45	29153.71
628.60	28744.12
628.76	29312.87
628.91	29186.48
629.06	29263.72
629.21	29226.27
629.36	29102.22
629.51	28910.30
629.66	28922.00
629.81	28746.46
629.96	28446.87
630.11	28999.24
630.26	29153.71
630.41	28737.10
630.56	28847.10
630.71	28718.37
630.86	28718.37
631.01	28971.15
631.16	28783.91
631.31	28994.56
631.46	28671.56
631.61	28720.71
631.76	28811.99
631.91	28765.18
632.06	28566.24
632.21	28739.44
632.36	28577.94
632.51	28268.99
632.66	28599.01
632.81	28547.51
632.96	28587.30
633.10	28304.10
633.25	28774.55
633.40	28374.31
633.55	28606.03
633.70	28650.50
633.85	27931.95
634.00	28299.42
634.15	28306.44
634.30	28666.88
634.45	28231.54
634.60	28538.15
634.75	28765.18
634.90	28350.91
635.05	28315.80
635.19	28699.65
635.34	28540.49
635.49	28056.00
635.64	28329.84
635.79	28114.52
635.94	28210.48
636.09	28430.49
636.24	28212.82
636.39	28177.71
636.53	28093.45
636.68	27847.69
636.83	28151.96
636.98	28311.12
637.13	28046.64
637.28	28233.88
637.43	28320.48
637.57	28299.42
637.72	28149.62
637.87	28315.80
638.02	28126.22
638.17	27887.48
638.32	28119.20
638.46	27601.94
638.61	27634.71
638.76	27667.47
638.91	27594.92
639.06	27662.79
639.20	28128.56
639.35	27700.24
639.50	28027.92
639.65	28126.22
639.80	27957.70
639.94	27672.15
640.09	28109.83
640.24	28208.14
640.39	27751.73
640.54	27826.63
640.68	27377.25
640.83	27297.67
640.98	27590.24
641.13	27021.48
641.27	27868.76
641.42	27531.72
641.57	27826.63
641.72	27620.66
641.86	27351.50
642.01	27290.65
642.16	27426.40
642.31	27365.54
642.45	27433.42
642.60	27372.57
642.75	27400.65
642.90	26969.99
643.04	27054.25
643.19	27117.45
643.34	27449.80
643.48	27211.07
643.63	27449.80
643.78	27087.02
643.93	27608.96
644.07	27292.99
644.22	27522.36
644.37	27159.58
644.51	27367.88
644.66	27545.76
644.81	27241.50
644.95	27197.02
645.10	27360.86
645.25	27190.00
645.39	27190.00
645.54	27297.67
645.69	26843.60
645.83	27082.34
645.98	27323.41
646.13	26848.29
646.27	27030.85
646.42	27096.38
646.57	27091.70
646.71	27044.89
646.86	27145.53
647.00	27461.51
647.15	27150.21
647.30	27040.21
647.44	26426.99
647.59	26764.03
647.74	26649.34
647.88	26817.86
648.03	26890.41
648.17	27150.21
648.32	26958.29
648.47	26923.18
648.61	26555.72
648.76	27246.18
648.90	26829.56
649.05	27117.45
649.20	26459.76
649.34	26789.77
649.49	26298.26
649.63	26768.71
649.78	26597.85
649.92	26370.82
650.07	26871.69
650.21	26639.98
650.36	26726.58
650.51	26754.66
650.65	26698.49
650.80	26728.92
650.94	26684.45
651.09	26232.72
651.23	26445.71
651.38	26721.90
651.52	26408.26
651.67	26209.32
651.81	26174.21
651.96	26417.63
652.10	26176.55
652.25	26244.43
652.39	26352.09
652.54	26567.42
652.68	26649.34
652.83	26253.79
652.97	26604.87
653.12	26590.83
653.26	26382.52
653.41	26415.29
653.55	26228.04
653.70	25979.95
653.84	25965.90
653.99	26185.91
654.13	25928.45
654.27	26286.56
654.42	26111.02
654.56	26054.84
654.71	26417.63
654.85	26293.58
655.00	26075.91
655.14	25970.58
655.29	26057.18
655.43	26026.76
655.57	25797.38
655.72	26108.68
655.86	25867.60
656.01	26572.10
656.15	26141.44
656.30	25743.55
656.44	25954.20
656.58	26082.93
656.73	25888.67
656.87	25996.33
657.01	25472.05
657.16	25965.90
657.30	25895.69
657.45	25844.20
657.59	25862.92
657.73	25605.46
657.88	25586.74
658.02	25605.46
658.16	25832.49
658.31	25598.44
658.45	25535.24
658.60	25689.72
658.74	25291.83
658.88	25624.18
659.03	25556.31
659.17	25289.49
659.31	25745.89
659.46	25563.33
659.60	25914.41
659.74	25586.74
659.89	25142.03
660.03	25530.56
660.17	25413.54
660.32	25331.62
660.46	24896.28
660.60	24900.96
660.74	25226.29
660.89	25090.54
661.03	24837.76
661.17	24954.79
661.32	24858.83
661.46	25507.16
661.60	24994.58
661.74	25130.33
661.89	25263.74
662.03	25448.64
662.17	24821.38
662.31	24826.06
662.46	24596.69
662.60	24854.15
662.74	24819.04
662.88	24797.98
663.03	24456.26
663.17	24425.83
663.31	24374.34
663.45	24620.10
663.60	24451.58
663.74	24460.94
663.88	24828.40
664.02	24552.22
664.17	24334.55
664.31	24236.25
664.45	24615.41
664.59	24449.24
664.73	24353.27
664.88	24194.12
665.02	23901.55
665.16	24217.52
665.30	24121.56
665.44	24105.18
665.59	23950.70
665.73	23999.85
665.87	23779.84
666.01	24034.96
666.15	24287.74
666.29	23887.51
666.44	24102.84
666.58	23761.12
666.72	23803.25
666.86	23803.25
667.00	23960.06
667.14	23756.44
667.28	24133.26
667.43	23857.08
667.57	23683.88
667.71	23564.51
667.85	23550.47
667.99	23580.90
668.13	23606.64
668.27	23555.15
668.41	23498.98
668.56	23190.03
668.70	23337.48
668.84	23459.19
668.98	23480.25
669.12	23335.14
669.26	23590.26
669.40	23419.40
669.54	23082.36
669.68	23183.01
669.82	22738.30
669.96	22918.53
670.10	22841.29
670.25	23218.11
670.39	22829.59
670.53	22813.20
670.67	22649.36
670.81	22593.19
670.95	22656.39
671.09	22757.03
671.23	22625.96
671.37	22888.10
671.51	22759.37
671.65	22934.91
671.79	22796.82
671.93	22815.54
672.07	22478.50
672.21	22197.64
672.35	21998.70
672.49	22122.74
672.63	22284.24
672.77	22176.58
672.91	22080.61
673.05	22148.49
673.19	21977.63
673.33	22246.79
673.47	22506.59
673.61	22087.64
673.75	22162.53
673.89	21928.48
674.03	22125.08
674.17	22010.40
674.31	21893.37
674.45	21862.94
674.59	21647.61
674.73	21652.30
674.87	21678.04
675.01	21678.04
675.15	21390.16
675.29	21163.12
675.43	21434.63
675.56	21589.10
675.70	21743.58
675.84	21579.74
675.98	21025.03
676.12	20999.29
676.26	21530.59
676.40	21137.38
676.54	21380.79
676.68	21254.40
676.82	20641.18
676.96	21006.31
677.10	20908.01
677.23	20854.17
677.37	20348.62
677.51	20774.60
677.65	20446.92
677.79	20365.00
677.93	20421.17
678.07	20465.64
678.21	20283.08
678.34	20250.32
678.48	20306.49
678.62	20049.03
678.76	20044.35
678.90	20009.24
679.04	20053.71
679.18	19798.59
679.31	19878.17
679.45	19889.87
679.59	19515.39
679.73	19772.85
679.87	19681.56
680.00	19454.53
680.14	19723.69
680.28	19473.26
680.42	19775.19
680.56	19721.35
680.70	19304.74
680.83	19644.12
680.97	19370.27
681.11	19487.30
681.25	19161.97
681.39	19274.31
681.52	19016.85
681.66	19445.17
681.80	18918.55
681.94	19021.53
682.07	19157.28
682.21	18801.52
682.35	18537.04
682.49	18593.22
682.62	18384.91
682.76	18485.55
682.90	18562.79
683.04	18485.55
683.17	18750.03
683.31	18391.93
683.45	18551.09
683.59	18216.39
683.72	18204.69
683.86	18200.01
684.00	18024.47
684.13	18127.45
684.27	18001.06
684.41	17846.58
684.55	17624.23
684.68	17750.62
684.82	17322.30
684.96	17619.55
685.09	17596.15
685.23	17439.33
685.37	17633.60
685.50	17542.32
685.64	17802.11
685.78	17338.69
685.91	17561.04
686.05	17406.56
686.19	17420.61
686.32	17130.38
686.46	17114.00
686.60	16898.67
686.73	16903.35
686.87	16594.40
687.01	16737.17
687.14	16891.65
687.28	16788.66
687.42	16482.05
687.55	16769.94
687.69	16678.66
687.82	16676.32
687.96	16573.33
688.10	16313.53
688.23	16336.94
688.37	16446.94
688.50	16458.65
688.64	16390.77
688.78	16039.69
688.91	16039.69
689.05	16074.80
689.18	16011.60
689.32	15943.73
689.46	16149.70
689.59	15765.85
689.73	15763.51
689.86	15892.24
690.00	15889.90
690.13	15318.81
690.27	15346.89
690.41	15763.51
690.54	15840.75
690.68	15477.96
690.81	15702.65
690.95	15201.78
691.08	15438.17
691.22	15389.02
691.35	15190.08
691.49	15267.31
691.62	15185.40
691.76	14813.25
691.89	14918.57
692.03	14920.92
692.16	14707.93
692.30	14504.30
692.43	14710.27
692.57	14588.56
692.70	14396.64
692.84	14658.78
692.97	14583.88
693.11	14422.38
693.24	14525.36
693.38	14541.75
693.51	14487.92
693.65	14317.06
693.78	14307.69
693.92	14106.41
694.05	14162.58
694.19	14244.50
694.32	14090.02
694.45	13855.97
694.59	13760.01
694.72	13614.90
694.86	13631.28
694.99	13624.26
695.13	13565.74
695.26	13532.98
695.39	13621.92
695.53	13692.13
695.66	13579.79
695.80	13345.73
695.93	13535.32
696.07	13345.73
696.20	13413.61
696.33	13315.31
696.47	13394.89
696.60	13069.55
696.73	12894.01
696.87	12926.78
697.00	12999.34
697.14	12727.83
697.27	12470.37
697.40	12730.17
697.54	12594.42
697.67	12622.51
697.80	12510.16
697.94	12535.91
698.07	12571.02
698.21	12226.96
698.34	12376.75
698.47	12273.77
698.61	12226.96
698.74	12390.80
698.87	12311.22
699.01	12168.45
699.14	12156.74
699.27	12348.67
699.40	12191.85
699.54	12217.60
699.67	11985.88
699.80	11819.71
699.94	11793.96
700.07	11829.07
700.20	11681.61
700.34	11604.38
700.47	11524.80
700.60	11468.62
700.73	11470.97
700.87	11438.20
701.00	11510.75
701.13	11524.80
701.26	11461.60
701.40	11328.19
701.53	11377.34
701.66	11377.34
701.79	11190.10
701.93	11077.76
702.06	11145.63
702.19	10918.60
702.32	10937.32
702.46	10902.22
702.59	10663.48
702.72	10583.90
702.85	10656.46
702.99	10583.90
703.12	10733.70
703.25	10616.67
703.38	10684.55
703.51	10590.92
703.65	10726.68
703.78	10312.40
703.91	10438.79
704.04	10750.08
704.17	10480.92
704.31	10431.77
704.44	10253.89
704.57	10134.52
704.70	10106.43
704.83	10008.13
704.96	10127.50
705.10	10010.47
705.23	10019.83
>>>>>End Processed Spectral Data<<<<<
