SpectraSuite Data File
++++++++++++++++++++++++++++++++++++
Date: Fri Oct 18 13:58:16 GMT-05:00 2013
User: bianchi
Dark Spectrum Present: No
Reference Spectrum Present: No
Number of Sampled Component Spectra: 1
Spectrometers: USB2+H05261
Integration Time (usec): 50000 (USB2+H05261)
Spectra Averaged: 1 (USB2+H05261)
Boxcar Smoothing: 0 (USB2+H05261)
Correct for Electrical Dark: No (USB2+H05261)
Strobe/Lamp Enabled: No (USB2+H05261)
Correct for Detector Non-linearity: No (USB2+H05261)
Correct for Stray Light: No (USB2+H05261)
Number of Pixels in Processed Spectrum: 2048
>>>>>Begin Processed Spectral Data<<<<<
365.73	0.00
365.92	0.00
366.12	0.00
366.32	0.00
366.52	0.00
366.72	0.00
366.91	0.00
367.11	0.00
367.31	0.00
367.51	0.00
367.70	0.00
367.90	0.00
368.10	0.00
368.30	0.00
368.49	0.00
368.69	0.00
368.89	0.00
369.09	0.00
369.28	0.00
369.48	0.00
369.68	0.00
369.87	0.00
370.07	0.00
370.27	0.00
370.47	0.00
370.66	135.75
370.86	114.69
371.06	168.52
371.25	154.48
371.45	117.03
371.65	161.50
371.84	112.35
372.04	161.50
372.24	152.13
372.44	166.18
372.63	215.33
372.83	198.95
373.03	187.24
373.22	133.41
373.42	273.84
373.62	166.18
373.81	215.33
374.01	215.33
374.21	215.33
374.40	152.13
374.60	248.10
374.79	315.97
374.99	250.44
375.19	184.90
375.38	306.61
375.58	154.48
375.78	201.29
375.97	266.82
376.17	196.60
376.37	227.03
376.56	278.52
376.76	248.10
376.95	180.22
377.15	271.50
377.35	210.65
377.54	184.90
377.74	278.52
377.93	273.84
378.13	238.73
378.33	271.50
378.52	236.39
378.72	259.80
378.91	264.48
379.11	280.86
379.31	358.10
379.50	294.91
379.70	304.27
379.89	285.55
380.09	339.38
380.28	339.38
380.48	330.02
380.68	297.25
380.87	322.99
381.07	365.12
381.26	353.42
381.46	243.42
381.65	269.16
381.85	311.29
382.04	332.36
382.24	271.50
382.43	346.40
382.63	365.12
382.83	313.63
383.02	362.78
383.22	388.53
383.41	381.51
383.61	306.61
383.80	332.36
384.00	390.87
384.19	358.10
384.39	294.91
384.58	372.15
384.78	379.17
384.97	393.21
385.17	383.85
385.36	416.62
385.56	430.66
385.75	397.89
385.95	353.42
386.14	496.19
386.34	325.33
386.53	376.83
386.72	383.85
386.92	414.27
387.11	428.32
387.31	411.93
387.50	463.43
387.70	442.36
387.89	493.85
388.09	503.22
388.28	468.11
388.48	475.13
388.67	486.83
388.86	500.87
389.06	402.57
389.25	503.22
389.45	468.11
389.64	477.47
389.84	428.32
390.03	503.22
390.22	444.70
390.42	554.71
390.61	461.09
390.81	479.81
391.00	489.17
391.19	479.81
391.39	456.40
391.58	416.62
391.78	531.30
391.97	491.51
392.16	440.02
392.36	526.62
392.55	573.43
392.75	585.13
392.94	482.15
393.13	550.03
393.33	505.56
393.52	566.41
393.71	641.31
393.91	566.41
394.10	535.98
394.29	561.73
394.49	594.50
394.68	648.33
394.88	601.52
395.07	568.75
395.26	561.73
395.46	552.37
395.65	608.54
395.84	671.73
396.04	671.73
396.23	713.86
396.42	629.60
396.62	692.80
396.81	650.67
397.00	629.60
397.19	718.54
397.39	653.01
397.58	739.61
397.77	622.58
397.97	699.82
398.16	713.86
398.35	753.65
398.55	622.58
398.74	695.14
398.93	681.10
399.12	737.27
399.32	709.18
399.51	676.41
399.70	751.31
399.90	697.48
400.09	767.70
400.28	868.34
400.47	856.64
400.67	777.06
400.86	772.38
401.05	751.31
401.24	748.97
401.44	793.44
401.63	835.57
401.82	819.19
402.01	723.23
402.21	833.23
402.40	814.51
402.59	819.19
402.78	873.02
402.97	844.93
403.17	800.46
403.36	837.91
403.55	868.34
403.74	849.61
403.93	884.72
404.13	887.06
404.32	926.85
404.51	849.61
404.70	905.79
404.89	889.40
405.09	910.47
405.28	985.37
405.47	957.28
405.66	1020.47
405.85	1032.18
406.05	1057.92
406.24	961.96
406.43	1053.24
406.62	898.77
406.81	1018.13
407.00	983.02
407.20	1020.47
407.39	1043.88
407.58	980.68
407.77	1041.54
407.96	1102.39
408.15	1074.31
408.34	1060.26
408.54	1011.11
408.73	1062.60
408.92	1027.50
409.11	1156.22
409.30	1132.82
409.49	1107.07
409.68	1100.05
409.87	1100.05
410.07	1200.69
410.26	1142.18
410.45	1219.42
410.64	1228.78
410.83	1156.22
411.02	1268.57
411.21	1109.41
411.40	1226.44
411.59	1174.95
411.78	1270.91
411.98	1322.40
412.17	1280.27
412.36	1240.48
412.55	1263.89
412.74	1397.30
412.93	1380.92
413.12	1380.92
413.31	1373.89
413.50	1336.45
413.69	1418.36
413.88	1444.11
414.07	1385.60
414.26	1420.71
414.45	1380.92
414.64	1467.52
414.83	1497.94
415.02	1537.73
415.22	1446.45
415.41	1577.52
415.60	1427.73
415.79	1584.54
415.98	1469.86
416.17	1533.05
416.36	1521.35
416.55	1643.06
416.74	1629.01
416.93	1671.14
417.12	1682.85
417.31	1645.40
417.50	1692.21
417.69	1778.81
417.88	1755.40
418.07	1694.55
418.26	1706.25
418.45	1757.74
418.64	1741.36
418.83	1881.79
419.02	1895.83
419.21	1827.96
419.39	1877.11
419.58	1806.89
419.77	1860.73
419.96	1909.88
420.15	1860.73
420.34	1732.00
420.53	1795.19
420.72	1996.48
420.91	1902.86
421.10	1902.86
421.29	1926.26
421.48	1893.49
421.67	1860.73
421.86	1834.98
422.05	1926.26
422.24	1902.86
422.43	1980.09
422.61	2017.54
422.80	2120.53
422.99	1975.41
423.18	2043.29
423.37	2050.31
423.56	2115.84
423.75	2015.20
423.94	1898.17
424.13	1827.96
424.32	1825.62
424.50	1952.01
424.69	2033.93
424.88	2022.22
425.07	1973.07
425.26	1834.98
425.45	1930.94
425.64	2024.56
425.83	2012.86
426.01	2073.71
426.20	2026.90
426.39	2043.29
426.58	2101.80
426.77	2122.87
426.96	2094.78
427.15	2076.06
427.33	2153.29
427.52	2064.35
427.71	2059.67
427.90	2054.99
428.09	2062.01
428.28	2162.66
428.46	2132.23
428.65	2235.21
428.84	2228.19
429.03	2265.64
429.22	2031.58
429.40	2099.46
429.59	2244.57
429.78	2083.08
429.97	2129.89
430.16	2270.32
430.34	2289.04
430.53	2223.51
430.72	2321.81
430.91	2375.64
431.10	2197.76
431.28	2319.47
431.47	2518.42
431.66	2413.09
431.85	2272.66
432.03	2548.84
432.22	2483.31
432.41	2317.13
432.60	2471.61
432.79	2436.50
432.97	2473.95
433.16	2450.54
433.35	2478.63
433.54	2525.44
433.72	2509.05
433.91	2567.57
434.10	2523.10
434.28	2476.29
434.47	2614.38
434.66	2464.58
434.85	2576.93
435.03	2658.85
435.22	2595.65
435.41	2649.49
435.59	2654.17
435.78	2583.95
435.97	2626.08
436.16	2679.91
436.34	2703.32
436.53	2586.29
436.72	2803.96
436.90	2717.36
437.09	2668.21
437.28	2583.95
437.46	2548.84
437.65	2764.17
437.84	2836.73
438.02	2651.83
438.21	2829.71
438.40	2724.38
438.58	2930.35
438.77	2820.35
438.96	2796.94
439.14	2965.46
439.33	2937.37
439.52	2895.24
439.70	2991.20
439.89	2977.16
440.08	2991.20
440.26	3073.12
440.45	2977.16
440.63	3080.14
440.82	3122.27
441.01	3131.64
441.19	3066.10
441.38	3241.64
441.57	3089.51
441.75	3145.68
441.94	3293.13
442.12	3253.34
442.31	3314.20
442.50	3267.39
442.68	3281.43
442.87	3318.88
443.05	3389.10
443.24	3286.11
443.43	3370.37
443.61	3372.71
443.80	3562.30
443.98	3314.20
444.17	3281.43
444.35	3342.28
444.54	3288.45
444.73	3431.23
444.91	3389.10
445.10	3400.80
445.28	3356.33
445.47	3239.30
445.65	3403.14
445.84	3400.80
446.02	3485.06
446.21	3342.28
446.39	3405.48
446.58	3515.48
446.77	3454.63
446.95	3372.71
447.14	3428.88
447.32	3583.36
447.51	3520.17
447.69	3529.53
447.88	3541.23
448.06	3410.16
448.25	3545.91
448.43	3513.14
448.62	3501.44
448.80	3566.98
448.99	3604.42
449.17	3641.87
449.36	3541.23
449.54	3613.79
449.73	3611.45
449.91	3630.17
450.10	3606.77
450.28	3754.22
450.46	3733.15
450.65	3779.97
450.83	3646.55
451.02	3735.50
451.20	3634.85
451.39	3751.88
451.57	3723.79
451.76	3740.18
451.94	3847.84
452.13	3812.73
452.31	3911.04
452.49	3754.22
452.68	3990.61
452.86	3852.52
453.05	3906.35
453.23	3786.99
453.42	3899.33
453.60	3768.26
453.78	4007.00
453.97	3822.09
454.15	3932.10
454.34	3822.09
454.52	4070.19
454.70	3894.65
454.89	4067.85
455.07	4133.39
455.26	3990.61
455.44	4187.22
455.62	4147.43
455.81	4077.21
455.99	4102.96
456.17	4095.94
456.36	4079.55
456.54	4049.13
456.73	4184.88
456.91	4271.48
457.09	4140.41
457.28	4212.96
457.46	4259.78
457.64	4346.37
457.83	4238.71
458.01	4252.75
458.19	4374.46
458.38	4334.67
458.56	4456.38
458.74	4376.80
458.93	4327.65
459.11	4351.06
459.29	4554.68
459.48	4458.72
459.66	4400.21
459.84	4512.55
460.03	4592.13
460.21	4601.49
460.39	4519.57
460.57	4461.06
460.76	4479.79
460.94	4697.46
461.12	4711.50
461.31	4674.05
461.49	4547.66
461.67	4671.71
461.85	4751.29
462.04	4713.84
462.22	4924.49
462.40	4702.14
462.59	4887.04
462.77	4727.88
462.95	4713.84
463.13	4786.40
463.32	4837.89
463.50	4720.86
463.68	4863.63
463.86	4978.32
464.05	4887.04
464.23	4865.97
464.41	5008.75
464.59	4741.93
464.78	5055.56
464.96	4868.31
465.14	4870.65
465.32	4973.64
465.50	5067.26
465.69	5015.77
465.87	4894.06
466.05	4926.83
466.23	4924.49
466.41	5076.62
466.60	5167.90
466.78	5090.67
466.96	5057.90
467.14	4968.96
467.32	5048.54
467.51	5137.48
467.69	4891.72
467.87	5282.59
468.05	5203.01
468.23	5207.69
468.41	5280.25
468.60	5158.54
468.78	5252.16
468.96	5195.99
469.14	5313.02
469.32	5305.99
469.50	5163.22
469.69	5467.49
469.87	5266.21
470.05	5448.77
470.23	5423.02
470.41	5352.81
470.59	5416.00
470.77	5296.63
470.95	5390.25
471.14	5493.24
471.32	5504.94
471.50	5671.12
471.68	5448.77
471.86	5493.24
472.04	5626.65
472.22	5727.29
472.40	5657.07
472.58	5579.84
472.77	5645.37
472.95	5856.02
473.13	5916.87
473.31	5919.21
473.49	5734.31
473.67	5788.14
473.85	5888.79
474.03	5912.19
474.21	6054.97
474.39	5970.71
474.57	5975.39
474.75	6038.58
474.93	6282.00
475.12	6085.39
475.30	6193.06
475.48	6092.41
475.66	6282.00
475.84	6197.74
476.02	6399.02
476.20	6282.00
476.38	6452.86
476.56	6759.47
476.74	6633.08
476.92	6511.37
477.10	6581.59
477.28	6628.40
477.46	6494.99
477.64	6876.49
477.82	6766.49
478.00	6782.87
478.18	6927.99
478.36	6913.94
478.54	6939.69
478.72	6977.14
478.90	7033.31
479.08	7180.76
479.26	7318.86
479.44	7136.29
479.62	7234.60
479.80	7335.24
479.98	7393.75
480.16	7543.55
480.34	7325.88
480.52	7581.00
480.70	7681.64
480.88	7602.06
481.06	7698.02
481.24	7730.79
481.41	7592.70
481.59	7981.23
481.77	8032.72
481.95	7953.14
482.13	8058.46
482.31	8177.83
482.49	8212.94
482.67	8147.40
482.85	8297.20
483.03	8475.08
483.21	8519.55
483.39	8667.00
483.57	8512.53
483.74	8589.77
483.92	8699.77
484.10	8517.21
484.28	8828.50
484.46	9050.85
484.64	9249.80
484.82	8844.88
485.00	9083.62
485.18	9357.46
485.35	9383.21
485.53	9476.83
485.71	9500.23
485.89	9610.24
486.07	9591.52
486.25	9446.40
486.43	9776.42
486.61	9832.59
486.78	9561.09
486.96	9963.66
487.14	10068.98
487.32	10263.25
487.50	9895.78
487.68	10232.82
487.85	10347.51
488.03	10544.11
488.21	10551.14
488.39	10611.99
488.57	10361.55
488.75	10640.08
488.92	10810.93
489.10	10895.19
489.28	10920.94
489.46	11169.04
489.64	10810.93
489.81	11318.83
489.99	11220.53
490.17	11492.03
490.35	11501.39
490.53	11379.68
490.70	11740.13
490.88	11356.28
491.06	11573.95
491.24	11690.98
491.41	11590.33
491.59	11899.28
491.77	11740.13
491.95	12058.44
492.13	12159.08
492.30	12184.83
492.48	12325.26
492.66	12290.15
492.84	12276.11
493.01	12685.70
493.19	12453.99
493.37	12545.27
493.54	12922.10
493.72	12826.14
493.90	12793.37
494.08	13036.78
494.25	12989.97
494.43	13130.41
494.61	13088.28
494.79	13184.24
494.96	13254.45
495.14	13249.77
495.32	13509.57
495.49	13444.04
495.67	13687.45
495.85	13799.80
496.02	13827.88
496.20	13961.30
496.38	13937.89
496.55	14040.87
496.73	14083.00
496.91	14092.37
497.09	14216.41
497.26	14108.75
497.44	14127.47
497.62	14258.54
497.79	14221.10
497.97	14235.14
498.14	14752.40
498.32	14808.57
498.50	14820.27
498.67	14988.79
498.85	14724.31
499.03	14848.36
499.20	14939.64
499.38	15206.46
499.56	15194.76
499.73	15070.71
499.91	15332.85
500.08	15255.61
500.26	15178.37
500.44	15225.18
500.61	15473.28
500.79	15513.07
500.97	15665.21
501.14	15852.45
501.32	15742.44
501.49	15585.63
501.67	15805.64
501.84	15885.22
502.02	15969.48
502.20	16304.17
502.37	16248.00
502.55	15981.18
502.72	16046.71
502.90	16027.99
503.07	16107.57
503.25	15903.94
503.43	16159.06
503.60	16374.39
503.78	16343.96
503.95	16493.76
504.13	16477.37
504.30	16622.48
504.48	16453.97
504.65	16816.75
504.83	16704.40
505.01	16886.97
505.18	16805.05
505.36	16882.28
505.53	16936.12
505.71	17032.08
505.88	17055.48
506.06	17039.10
506.23	17413.59
506.41	17202.94
506.58	17322.30
506.76	17481.46
506.93	17706.15
507.11	17149.11
507.28	17586.79
507.46	17284.86
507.63	17649.98
507.81	17652.32
507.98	17572.74
508.16	17610.19
508.33	17741.26
508.50	17612.53
508.68	17916.80
508.85	18043.19
509.03	18108.72
509.20	17994.04
509.38	18242.14
509.55	18258.52
509.73	18202.35
509.90	18024.47
510.08	18391.93
510.25	18333.42
510.42	18476.19
510.60	18778.12
510.77	18600.24
510.95	18658.75
511.12	18621.30
511.30	18747.69
511.47	18628.32
511.64	18649.39
511.82	18965.36
511.99	19005.15
512.17	19110.47
512.34	18843.65
512.51	18923.23
512.69	19257.93
512.86	19197.07
513.04	19283.67
513.21	19578.58
513.38	19321.12
513.56	19606.67
513.73	19286.01
513.90	19541.13
514.08	19419.42
514.25	19679.22
514.43	19917.96
514.60	19400.70
514.77	19601.99
514.95	19803.27
515.12	19908.60
515.29	19683.91
515.47	20037.33
515.64	19971.79
515.81	19988.18
515.99	20100.52
516.16	20472.67
516.33	20372.02
516.51	20135.63
516.68	20233.93
516.85	20212.87
517.03	20465.64
517.20	20587.35
517.37	20453.94
517.54	20547.56
517.72	20486.71
517.89	20458.62
518.06	20444.58
518.24	20222.23
518.41	20575.65
518.58	21142.06
518.75	20828.43
518.93	20760.55
519.10	21046.10
519.27	20821.41
519.45	20933.75
519.62	20664.59
519.79	20926.73
519.96	20964.18
520.14	20943.11
520.31	20971.20
520.48	21001.63
520.65	20982.90
520.83	21516.54
521.00	21380.79
521.17	20868.22
521.34	21507.18
521.52	21479.10
521.69	21638.25
521.86	21490.80
522.03	21745.92
522.20	21638.25
522.38	21998.70
522.55	21664.00
522.72	21942.52
522.89	21898.05
523.07	22008.06
523.24	22082.95
523.41	21752.94
523.58	22237.43
523.75	22176.58
523.92	21486.12
524.10	22085.30
524.27	22026.78
524.44	22216.36
524.61	22572.13
524.78	22787.46
524.96	22431.69
525.13	22302.96
525.30	22483.19
525.47	22663.41
525.64	22651.70
525.81	22595.53
525.98	22419.99
526.16	22490.21
526.33	22785.12
526.50	22864.69
526.67	22590.85
526.84	22684.47
527.01	22436.38
527.18	22682.13
527.36	23281.31
527.53	23126.83
527.70	23084.70
527.87	23419.40
528.04	22998.10
528.21	23344.50
528.38	23124.49
528.55	23302.37
528.72	23215.77
528.89	23419.40
529.07	23290.67
529.24	23213.43
529.41	23630.05
529.58	23510.68
529.75	23363.23
529.92	23250.88
530.09	23276.63
530.26	23529.41
530.43	23709.63
530.60	23388.97
530.77	23620.69
530.94	23550.47
531.11	23590.26
531.28	23639.41
531.46	23742.39
531.63	23838.36
531.80	23892.19
531.97	24065.39
532.14	24393.06
532.31	23557.49
532.48	23941.34
532.65	24369.66
532.82	23723.67
532.99	24072.41
533.16	23845.38
533.33	24156.67
533.50	24790.95
533.67	24266.67
533.84	24018.58
534.01	24364.98
534.18	24287.74
534.35	24875.21
534.52	24343.91
534.69	24540.52
534.86	24599.03
535.03	24542.86
535.20	24975.86
535.37	24636.48
535.54	24725.42
535.71	24425.83
535.88	24334.55
536.05	24877.55
536.22	24940.75
536.38	24936.07
536.55	24713.72
536.72	24987.56
536.89	24666.91
537.06	24929.05
537.23	25067.14
537.40	24655.20
537.57	24732.44
537.74	24959.47
537.91	24985.22
538.08	25198.21
538.25	24886.92
538.42	25345.66
538.59	25273.10
538.75	25083.52
538.92	25163.10
539.09	25312.89
539.26	25312.89
539.43	25741.21
539.60	25275.45
539.77	25062.46
539.94	25497.80
540.11	25366.73
540.28	25532.90
540.44	25340.98
540.61	25516.52
540.78	25312.89
540.95	25685.04
541.12	25743.55
541.29	25490.77
541.46	25462.69
541.62	25752.91
541.79	25820.79
541.96	25350.34
542.13	25577.37
542.30	25895.69
542.47	25942.50
542.63	26099.31
542.80	26132.08
542.97	26490.18
543.14	26375.50
543.31	25895.69
543.48	26052.50
543.64	26122.72
543.81	26192.94
543.98	26370.82
544.15	26476.14
544.32	26698.49
544.48	26651.68
544.65	26429.33
544.82	26609.55
544.99	26024.42
545.16	26558.06
545.32	26403.58
545.49	26684.45
545.66	26766.37
545.83	26888.07
546.00	27098.72
546.16	26618.91
546.33	26764.03
546.50	26572.10
546.67	26628.27
546.83	26342.73
547.00	26691.47
547.17	26485.50
547.34	26939.57
547.50	26714.87
547.67	27501.29
547.84	26757.00
548.00	27197.02
548.17	27094.04
548.34	27117.45
548.51	27096.38
548.67	26890.41
548.84	27297.67
549.01	27140.85
549.18	27138.51
549.34	27178.30
549.51	27440.44
549.68	27103.40
549.84	26948.93
550.01	27335.12
550.18	26911.48
550.34	27370.22
550.51	27386.61
550.68	27510.66
550.84	27110.43
551.01	27377.25
551.18	27241.50
551.34	27646.41
551.51	27335.12
551.68	27765.78
551.84	27730.67
552.01	27735.35
552.18	27372.57
552.34	27721.30
552.51	27908.55
552.68	27754.07
552.84	27323.41
553.01	28034.94
553.18	27859.40
553.34	27742.37
553.51	27728.33
553.67	27957.70
553.84	28086.43
554.01	27948.34
554.17	28273.67
554.34	27894.50
554.51	27901.53
554.67	27737.69
554.84	27824.29
555.00	27826.63
555.17	27868.76
555.33	27838.33
555.50	27807.90
555.67	28051.32
555.83	27894.50
556.00	28161.33
556.16	28048.98
556.33	28198.77
556.50	28318.14
556.66	28369.63
556.83	28577.94
556.99	28608.37
557.16	28549.85
557.32	28400.06
557.49	28423.47
557.65	27950.68
557.82	28187.07
557.98	28154.30
558.15	28367.29
558.32	28872.85
558.48	28683.27
558.65	28526.45
558.81	28435.17
558.98	28407.08
559.14	28297.08
559.31	28430.49
559.47	28563.90
559.64	28360.27
559.80	28790.93
559.97	29067.11
560.13	28603.69
560.30	28905.62
560.46	28727.74
560.63	28786.25
560.79	28828.38
560.96	28615.39
561.12	28727.74
561.29	28250.27
561.45	28683.27
561.61	28779.23
561.78	28690.29
561.94	28617.73
562.11	29134.99
562.27	28737.10
562.44	28844.76
562.60	28835.40
562.77	28748.80
562.93	28723.05
563.10	28861.15
563.26	28519.43
563.42	29226.27
563.59	28758.16
563.75	29008.60
563.92	29085.84
564.08	28627.09
564.24	28847.10
564.41	28542.83
564.57	28900.94
564.74	28690.29
564.90	28849.44
565.07	29329.25
565.23	29130.31
565.39	29095.20
565.56	29069.45
565.72	29151.37
565.88	29067.11
566.05	28788.59
566.21	29134.99
566.38	29039.03
566.54	29165.42
566.70	29687.36
566.87	29645.23
567.03	29259.04
567.19	29411.17
567.36	29898.00
567.52	28802.63
567.68	29336.27
567.85	28978.17
568.01	29488.41
568.17	29486.07
568.34	29041.37
568.50	29074.13
568.66	29252.02
568.83	29347.98
568.99	28938.38
569.15	28999.24
569.32	28961.79
569.48	29041.37
569.64	29294.14
569.81	29516.50
569.97	29371.38
570.13	29516.50
570.30	29535.22
570.46	29465.00
570.62	29532.88
570.78	29390.11
570.95	29317.55
571.11	29252.02
571.27	29383.09
571.43	29186.48
571.60	30045.46
571.76	29731.83
571.92	29322.23
572.09	29708.42
572.25	29663.95
572.41	29708.42
572.57	29289.46
572.74	29926.09
572.90	29254.36
573.06	29373.72
573.22	29308.19
573.38	29029.66
573.55	29530.54
573.71	29902.68
573.87	29624.16
574.03	29483.73
574.20	29682.67
574.36	29301.17
574.52	29362.02
574.68	29710.76
574.84	29570.33
575.01	29455.64
575.17	30148.44
575.33	29467.34
575.49	29666.29
575.65	29839.49
575.82	29586.71
575.98	30068.86
576.14	29692.04
576.30	29778.64
576.46	28903.28
576.62	29013.28
576.79	29780.98
576.95	29593.73
577.11	29642.88
577.27	29706.08
577.43	29839.49
577.59	30061.84
577.75	29778.64
577.92	29448.62
578.08	29280.10
578.24	29717.78
578.40	29551.60
578.56	29479.05
578.72	29783.32
578.88	30136.74
579.04	30033.75
579.21	30064.18
579.37	29675.65
579.53	29638.20
579.69	29514.16
579.85	29579.69
580.01	29528.20
580.17	29523.52
580.33	29773.95
580.49	29652.25
580.65	30059.50
580.82	29757.57
580.98	29724.80
581.14	30057.16
581.30	29940.13
581.46	29841.83
581.62	29736.51
581.78	29879.28
581.94	29895.66
582.10	29778.64
582.26	29965.88
582.42	29851.19
582.58	29855.87
582.74	29778.64
582.90	29874.60
583.06	29666.29
583.22	29621.82
583.38	29890.98
583.54	30043.12
583.70	29780.98
583.86	29703.74
584.02	29472.03
584.18	29748.21
584.34	29883.96
584.50	30103.97
584.66	29869.92
584.82	29687.36
584.98	30003.33
585.14	29603.10
585.30	29610.12
585.46	29453.30
585.62	29268.40
585.78	29750.55
585.94	29460.32
586.10	29951.84
586.26	29820.77
586.42	29820.77
586.58	29738.85
586.74	29759.91
586.90	29652.25
587.06	29703.74
587.22	29811.40
587.38	30031.41
587.54	29855.87
587.70	30284.19
587.86	29958.86
588.02	29783.32
588.18	30370.79
588.34	29893.32
588.49	30110.99
588.65	29972.90
588.81	29937.79
588.97	30122.69
589.13	30225.68
589.29	29663.95
589.45	29628.84
589.61	29923.75
589.77	30312.28
589.93	29970.56
590.08	30288.87
590.24	30132.06
590.40	30473.78
590.56	30295.89
590.72	30115.67
590.88	29619.48
591.04	30059.50
591.20	30525.27
591.35	30019.71
591.51	30401.22
591.67	30309.94
591.83	30487.82
591.99	30169.51
592.15	30167.16
592.31	30352.07
592.46	30518.25
592.62	29968.22
592.78	29820.77
592.94	30656.34
593.10	30298.23
593.26	30546.33
593.41	30171.85
593.57	30162.48
593.73	30429.30
593.89	30265.47
594.05	30108.65
594.20	30120.35
594.36	30314.62
594.52	30265.47
594.68	29982.26
594.84	30008.01
594.99	30284.19
595.15	30249.08
595.31	30389.52
595.47	30204.61
595.62	30354.41
595.78	30888.05
595.94	30256.11
596.10	30174.19
596.25	30387.18
596.41	30190.57
596.57	29682.67
596.73	30188.23
596.88	30419.94
597.04	30221.00
597.20	30663.36
597.36	30368.45
597.51	30506.54
597.67	30361.43
597.83	30569.74
597.99	30724.21
598.14	30284.19
598.30	30213.98
598.46	30382.49
598.61	30462.07
598.77	30101.63
598.93	30675.06
599.09	30162.48
599.24	30618.89
599.40	30735.92
599.56	30501.86
599.71	30525.27
599.87	30642.29
600.03	30370.79
600.18	30258.45
600.34	30253.76
600.50	30092.27
600.65	30623.57
600.81	30478.46
600.97	30515.90
601.12	30354.41
601.28	30504.20
601.44	30522.93
601.59	30368.45
601.75	30551.01
601.91	30548.67
602.06	30574.42
602.22	30513.56
602.37	30167.16
602.53	30206.95
602.69	30785.07
602.84	30504.20
603.00	30862.30
603.16	30422.28
603.31	30288.87
603.47	30368.45
603.62	30298.23
603.78	30267.81
603.94	30321.64
604.09	29991.62
604.25	30319.30
604.40	30110.99
604.56	30401.22
604.71	30391.86
604.87	30242.06
605.03	30267.81
605.18	30106.31
605.34	30359.09
605.49	30579.10
605.65	30480.80
605.80	30340.36
605.96	30216.32
606.12	30246.74
606.27	30518.25
606.43	30288.87
606.58	30480.80
606.74	30593.14
606.89	30665.70
607.05	30478.46
607.20	30302.92
607.36	30541.65
607.51	30286.53
607.67	30359.09
607.82	30125.04
607.98	30398.88
608.13	30457.39
608.29	30274.83
608.44	30405.90
608.60	30005.67
608.75	30424.62
608.91	30401.22
609.06	30230.36
609.22	30394.20
609.37	30064.18
609.53	30108.65
609.68	30218.66
609.84	30036.09
609.99	30164.82
610.15	30230.36
610.30	30139.08
610.46	30340.36
610.61	30155.46
610.76	30279.51
610.92	30286.53
611.07	30237.38
611.23	30225.68
611.38	29989.28
611.54	30288.87
611.69	29619.48
611.84	29841.83
612.00	29773.95
612.15	29680.33
612.31	30335.68
612.46	29954.18
612.62	29914.39
612.77	29900.34
612.92	30017.37
613.08	30050.14
613.23	30155.46
613.39	29649.91
613.54	29996.31
613.69	29813.74
613.85	29486.07
614.00	29511.81
614.15	29935.45
614.31	29944.81
614.46	30033.75
614.62	29984.60
614.77	29802.04
614.92	30066.52
615.08	29818.42
615.23	29862.90
615.38	29666.29
615.54	29556.28
615.69	29710.76
615.84	29490.75
616.00	29729.48
616.15	29380.74
616.30	29649.91
616.46	29881.62
616.61	29598.41
616.76	29553.94
616.92	29446.28
617.07	29858.21
617.22	29567.99
617.37	29467.34
617.53	29563.31
617.68	29373.72
617.83	29027.32
617.99	29577.35
618.14	29345.64
618.29	29509.47
618.45	29570.33
618.60	29771.61
618.75	29525.86
618.90	29743.53
619.06	29642.88
619.21	29474.37
619.36	29694.38
619.51	29392.45
619.67	29193.50
619.82	29017.96
619.97	29212.23
620.12	29050.73
620.28	29404.15
620.43	29537.56
620.58	29591.39
620.73	29301.17
620.89	29249.67
621.04	29390.11
621.19	29411.17
621.34	29216.91
621.49	28938.38
621.65	29127.97
621.80	29017.96
621.95	28795.61
622.10	28861.15
622.25	28739.44
622.41	28797.95
622.56	29350.32
622.71	28968.81
622.86	28929.02
623.01	29237.97
623.16	28861.15
623.32	28947.75
623.47	28872.85
623.62	28692.63
623.77	28720.71
623.92	28835.40
624.07	28694.97
624.23	28718.37
624.38	28793.27
624.53	28814.34
624.68	28938.38
624.83	29137.33
624.98	29151.37
625.13	28535.81
625.29	28868.17
625.44	29209.89
625.59	28905.62
625.74	28570.92
625.89	28599.01
626.04	28896.25
626.19	28533.47
626.34	28718.37
626.49	28552.20
626.65	28896.25
626.80	28840.08
626.95	28290.06
627.10	28587.30
627.25	28369.63
627.40	28311.12
627.55	28400.06
627.70	28322.82
627.85	28304.10
628.00	28472.62
628.15	28472.62
628.30	28327.50
628.45	28357.93
628.60	28367.29
628.76	28671.56
628.91	28257.29
629.06	28533.47
629.21	28666.88
629.36	28229.20
629.51	28290.06
629.66	28002.17
629.81	28273.67
629.96	28226.86
630.11	28320.48
630.26	28156.64
630.41	27807.90
630.56	27969.40
630.71	28063.02
630.86	27997.49
631.01	28266.65
631.16	28444.53
631.31	27995.15
631.46	27800.88
631.61	28020.89
631.76	28114.52
631.91	27782.16
632.06	27793.86
632.21	27971.74
632.36	28025.57
632.51	27716.62
632.66	27632.36
632.81	27812.59
632.96	27833.65
633.10	27821.95
633.25	28168.35
633.40	28175.37
633.55	27946.00
633.70	27618.32
633.85	27466.19
634.00	27613.64
634.15	27859.40
634.30	27590.24
634.45	27791.52
634.60	27456.82
634.75	27463.85
634.90	27615.98
635.05	27835.99
635.19	27676.83
635.34	28039.62
635.49	27721.30
635.64	27871.10
635.79	27363.20
635.94	27042.55
636.09	27604.28
636.24	27391.29
636.39	27508.32
636.53	27524.70
636.68	27103.40
636.83	27309.37
636.98	27833.65
637.13	27363.20
637.28	27292.99
637.43	27253.20
637.57	27417.04
637.72	27014.46
637.87	27108.08
638.02	27262.56
638.17	27253.20
638.32	26824.88
638.46	27089.36
638.61	26749.98
638.76	26794.45
638.91	26731.26
639.06	27124.47
639.20	27377.25
639.35	26979.36
639.50	27190.00
639.65	27424.06
639.80	27353.84
639.94	26906.80
640.09	27028.51
640.24	27035.53
640.39	27000.42
640.54	26754.66
640.68	26778.07
640.83	26642.32
640.98	26492.52
641.13	26883.39
641.27	26960.63
641.42	26925.52
641.57	27091.70
641.72	26911.48
641.86	26569.76
642.01	26647.00
642.16	26752.32
642.31	26764.03
642.45	26632.96
642.60	26635.30
642.75	26382.52
642.90	26445.71
643.04	26735.94
643.19	26436.35
643.34	26792.11
643.48	26506.57
643.63	26672.74
643.78	26639.98
643.93	26665.72
644.07	26637.64
644.22	26740.62
644.37	26422.31
644.51	26515.93
644.66	26520.61
644.81	26068.89
644.95	26441.03
645.10	26164.85
645.25	26246.77
645.39	26286.56
645.54	26551.04
645.69	26424.65
645.83	26527.63
645.98	26197.62
646.13	26560.40
646.27	26656.36
646.42	26375.50
646.57	26419.97
646.71	26082.93
646.86	26389.54
647.00	26160.17
647.15	26279.54
647.30	26017.40
647.44	25762.28
647.59	26029.10
647.74	26230.38
647.88	26267.83
648.03	26389.54
648.17	26361.45
648.32	26492.52
648.47	26101.65
648.61	26209.32
648.76	26291.24
648.90	25844.20
649.05	26185.91
649.20	25888.67
649.34	25919.09
649.49	25841.85
649.63	25886.32
649.78	25993.99
649.92	25970.58
650.07	25942.50
650.21	25764.62
650.36	26094.63
650.51	25635.89
650.65	25982.29
650.80	25905.05
650.94	25804.41
651.09	25371.41
651.23	25584.40
651.38	25610.14
651.52	25766.96
651.67	25663.97
651.81	25916.75
651.96	25729.51
652.10	25834.83
652.25	25572.69
652.39	25984.63
652.54	25750.57
652.68	25736.53
652.83	26066.55
652.97	26001.01
653.12	25898.03
653.26	25303.53
653.41	25809.09
653.55	25362.04
653.70	25605.46
653.84	25450.99
653.99	25685.04
654.13	25287.15
654.27	25319.92
654.42	25153.74
654.56	25380.77
654.71	25439.28
654.85	25694.40
655.00	25216.93
655.14	25256.72
655.29	25631.21
655.43	25596.10
655.57	25207.57
655.72	25095.22
655.86	25158.42
656.01	25322.26
656.15	25195.87
656.30	24896.28
656.44	25338.64
656.58	24971.18
656.73	25149.06
656.87	25181.82
657.01	25345.66
657.16	25266.08
657.30	25411.20
657.45	25504.82
657.59	25006.28
657.73	24924.36
657.88	25214.59
658.02	24786.27
658.16	24973.52
658.31	25029.69
658.45	24828.40
658.60	24587.33
658.74	24641.16
658.88	24376.68
659.03	24891.60
659.17	24868.19
659.31	24863.51
659.46	24559.24
659.60	24978.20
659.74	25083.52
659.89	24814.36
660.03	24826.06
660.17	24924.36
660.32	24414.13
660.46	24592.01
660.60	24123.90
660.74	24474.98
660.89	24100.50
661.03	24414.13
661.17	23992.83
661.32	24318.17
661.46	24528.81
661.60	24577.97
661.74	24575.62
661.89	24334.55
662.03	24357.96
662.17	24238.59
662.31	24236.25
662.46	24107.52
662.60	24102.84
662.74	24180.07
662.88	24046.66
663.03	23674.52
663.17	23850.06
663.31	23655.79
663.45	23730.69
663.60	23770.48
663.74	23761.12
663.88	23828.99
664.02	23733.03
664.17	23840.70
664.31	23910.91
664.45	23651.11
664.59	23751.76
664.73	23606.64
664.88	23695.58
665.02	23384.29
665.16	23438.12
665.30	23541.11
665.44	23824.31
665.59	23199.39
665.73	23077.68
665.87	23264.92
666.01	23594.94
666.15	23419.40
666.29	23283.65
666.44	23489.62
666.58	23098.75
666.72	22911.50
666.86	23201.73
667.00	23300.03
667.14	22888.10
667.28	23073.00
667.43	22913.84
667.57	22874.06
667.71	22974.70
667.85	23030.87
667.99	22831.93
668.13	23098.75
668.27	22904.48
668.41	23218.11
668.56	22836.61
668.70	23164.28
668.84	22600.21
668.98	22679.79
669.12	22934.91
669.26	22532.34
669.40	22511.27
669.54	22672.77
669.68	22609.58
669.82	22368.50
669.96	22279.56
670.10	21977.63
670.25	22417.65
670.39	22309.99
670.53	22192.96
670.67	22125.08
670.81	22277.22
670.95	22087.64
671.09	22281.90
671.23	22057.21
671.37	22525.32
671.51	22216.36
671.65	22061.89
671.79	21834.86
671.93	21909.75
672.07	21549.31
672.21	21994.01
672.35	21731.87
672.49	21750.60
672.63	21795.07
672.77	21884.01
672.91	21392.50
673.05	21518.89
673.19	21530.59
673.33	21294.19
673.47	21715.49
673.61	21359.73
673.75	21448.67
673.89	21369.09
674.03	21729.53
674.17	21345.69
674.31	20879.92
674.45	21132.70
674.59	21308.24
674.73	21308.24
674.87	21235.68
675.01	20975.88
675.15	20739.49
675.29	20908.01
675.43	20905.66
675.56	20945.45
675.70	20898.64
675.84	20830.77
675.98	20533.52
676.12	20727.78
676.26	21247.38
676.40	20842.47
676.54	20219.89
676.68	20568.63
676.82	19798.59
676.96	20311.17
677.10	20304.15
677.23	20163.72
677.37	20210.53
677.51	19990.52
677.65	19983.49
677.79	19878.17
677.93	19971.79
678.07	19917.96
678.21	19934.34
678.34	19805.61
678.48	19850.08
678.62	19690.93
678.76	19735.40
678.90	19618.37
679.04	19885.19
679.18	19590.28
679.31	19290.70
679.45	19194.73
679.59	18986.43
679.73	19047.28
679.87	19023.87
680.00	18909.19
680.14	18853.02
680.28	19056.64
680.42	19056.64
680.56	19021.53
680.70	18986.43
680.83	18941.96
680.97	18895.14
681.11	18728.97
681.25	18520.66
681.39	18567.47
681.52	18595.56
681.66	18452.78
681.80	18104.04
681.94	18377.89
682.07	18012.76
682.21	18075.96
682.35	18272.56
682.49	17898.08
682.62	17781.05
682.76	18260.86
682.90	18012.76
683.04	17965.95
683.17	18118.09
683.31	17858.29
683.45	17607.85
683.59	17706.15
683.72	17755.30
683.86	17610.19
684.00	17930.84
684.13	17797.43
684.27	17453.37
684.41	17322.30
684.55	17310.60
684.68	17460.40
684.82	17184.21
684.96	17137.40
685.09	17256.77
685.23	17055.48
685.37	16769.94
685.50	17235.70
685.64	17139.74
685.78	16926.75
685.91	17383.16
686.05	17221.66
686.19	16791.00
686.32	16879.94
686.46	16425.88
686.60	16498.44
686.73	16592.06
686.87	16362.69
687.01	16407.16
687.14	16468.01
687.28	16156.72
687.42	16308.85
687.55	16107.57
687.69	16065.44
687.82	15990.54
687.96	16053.73
688.10	15847.77
688.23	15908.62
688.37	16049.05
688.50	16105.23
688.64	15955.43
688.78	15847.77
688.91	15742.44
689.05	15536.48
689.18	15562.22
689.32	15356.25
689.46	15309.44
689.59	15527.11
689.73	15566.90
689.86	15194.76
690.00	15211.14
690.13	15447.54
690.27	15335.19
690.41	15370.30
690.54	15126.88
690.68	14974.75
690.81	15201.78
690.95	14843.68
691.08	15028.58
691.22	14923.26
691.35	14869.42
691.49	14738.35
691.62	14927.94
691.76	14572.18
691.89	14656.43
692.03	14104.07
692.16	14307.69
692.30	14356.85
692.43	14335.78
692.57	14223.44
692.70	14272.59
692.84	13949.59
692.97	14031.51
693.11	13942.57
693.24	14384.93
693.38	13970.66
693.51	13692.13
693.65	13991.72
693.78	14010.45
693.92	13645.32
694.05	13762.35
694.19	13640.64
694.32	13703.84
694.45	13437.02
694.59	13289.56
694.72	13516.59
694.86	13219.35
694.99	13139.77
695.13	13181.90
695.26	13214.66
695.39	13207.64
695.53	13107.00
695.66	13181.90
695.80	13130.41
695.93	13085.94
696.07	13048.49
696.20	12882.31
696.33	12774.64
696.47	12936.14
696.60	12858.90
696.73	12725.49
696.87	12556.97
697.00	12437.61
697.14	12341.64
697.27	12320.58
697.40	12425.90
697.54	12376.75
697.67	12233.98
697.80	12217.60
697.94	11908.65
698.07	12210.57
698.21	12145.04
698.34	11875.88
698.47	12006.95
698.61	11906.31
698.74	12016.31
698.87	12140.36
699.01	11913.33
699.14	11988.22
699.27	11723.74
699.40	11597.35
699.54	11480.33
699.67	11695.66
699.80	11375.00
699.94	11309.47
700.07	11477.99
700.20	11372.66
700.34	11351.60
700.47	11377.34
700.60	11503.73
700.73	11290.74
700.87	11026.26
701.00	10988.82
701.13	11204.14
701.26	11150.31
701.40	11096.48
701.53	10988.82
701.66	11169.04
701.79	10974.77
701.93	10794.55
702.06	10621.35
702.19	10654.12
702.32	10766.46
702.46	10462.19
702.59	10581.56
702.72	10303.04
702.85	10312.40
702.99	10335.81
703.12	10356.87
703.25	10251.55
703.38	10249.21
703.51	10258.57
703.65	10061.96
703.78	10043.24
703.91	10113.45
704.04	10108.77
704.17	10244.52
704.31	10143.88
704.44	10085.37
704.57	9851.31
704.70	9870.04
704.83	9881.74
704.96	9671.09
705.10	9549.39
705.23	9516.62
>>>>>End Processed Spectral Data<<<<<
