SpectraSuite Data File
++++++++++++++++++++++++++++++++++++
Date: Fri Oct 18 13:57:56 GMT-05:00 2013
User: bianchi
Dark Spectrum Present: No
Reference Spectrum Present: No
Number of Sampled Component Spectra: 1
Spectrometers: USB2+H05261
Integration Time (usec): 50000 (USB2+H05261)
Spectra Averaged: 1 (USB2+H05261)
Boxcar Smoothing: 0 (USB2+H05261)
Correct for Electrical Dark: No (USB2+H05261)
Strobe/Lamp Enabled: No (USB2+H05261)
Correct for Detector Non-linearity: No (USB2+H05261)
Correct for Stray Light: No (USB2+H05261)
Number of Pixels in Processed Spectrum: 2048
>>>>>Begin Processed Spectral Data<<<<<
365.73	0.00
365.92	0.00
366.12	0.00
366.32	0.00
366.52	0.00
366.72	0.00
366.91	0.00
367.11	0.00
367.31	0.00
367.51	0.00
367.70	0.00
367.90	0.00
368.10	0.00
368.30	0.00
368.49	0.00
368.69	0.00
368.89	0.00
369.09	0.00
369.28	0.00
369.48	0.00
369.68	0.00
369.87	0.00
370.07	0.00
370.27	0.00
370.47	0.00
370.66	149.79
370.86	39.79
371.06	128.73
371.25	86.60
371.45	126.39
371.65	117.03
371.84	140.43
372.04	191.92
372.24	220.01
372.44	224.69
372.63	161.50
372.83	245.76
373.03	110.01
373.22	229.37
373.42	234.05
373.62	212.99
373.81	280.86
374.01	205.97
374.21	308.95
374.40	184.90
374.60	222.35
374.79	285.55
374.99	294.91
375.19	212.99
375.38	294.91
375.58	177.88
375.78	248.10
375.97	353.42
376.17	283.20
376.37	241.08
376.56	278.52
376.76	252.78
376.95	327.68
377.15	257.46
377.35	287.89
377.54	306.61
377.74	292.57
377.93	297.25
378.13	365.12
378.33	234.05
378.52	315.97
378.72	290.23
378.91	262.14
379.11	311.29
379.31	276.18
379.50	278.52
379.70	337.04
379.89	372.15
380.09	257.46
380.28	262.14
380.48	292.57
380.68	271.50
380.87	346.40
381.07	304.27
381.26	327.68
381.46	358.10
381.65	332.36
381.85	334.70
382.04	311.29
382.24	367.46
382.43	299.59
382.63	353.42
382.83	360.44
383.02	374.49
383.22	416.62
383.41	421.30
383.61	334.70
383.80	348.74
384.00	421.30
384.19	346.40
384.39	346.40
384.58	475.13
384.78	379.17
384.97	407.25
385.17	428.32
385.36	360.44
385.56	468.11
385.75	411.93
385.95	416.62
386.14	456.40
386.34	456.40
386.53	404.91
386.72	470.45
386.92	498.53
387.11	397.89
387.31	444.70
387.50	442.36
387.70	505.56
387.89	498.53
388.09	428.32
388.28	458.74
388.48	435.34
388.67	465.77
388.86	482.15
389.06	489.17
389.25	468.11
389.45	442.36
389.64	489.17
389.84	489.17
390.03	533.64
390.22	510.24
390.42	449.38
390.61	454.06
390.81	503.22
391.00	540.66
391.19	428.32
391.39	550.03
391.58	472.79
391.78	552.37
391.97	580.45
392.16	482.15
392.36	580.45
392.55	589.82
392.75	608.54
392.94	550.03
393.13	559.39
393.33	582.79
393.52	638.97
393.71	601.52
393.91	662.37
394.10	725.57
394.29	664.71
394.49	620.24
394.68	617.90
394.88	557.05
395.07	636.63
395.26	608.54
395.46	545.34
395.65	622.58
395.84	716.20
396.04	706.84
396.23	664.71
396.42	674.07
396.62	678.76
396.81	636.63
397.00	709.18
397.19	807.48
397.39	697.48
397.58	706.84
397.77	641.31
397.97	746.63
398.16	760.67
398.35	744.29
398.55	770.04
398.74	746.63
398.93	816.85
399.12	770.04
399.32	636.63
399.51	676.41
399.70	812.17
399.90	763.01
400.09	774.72
400.28	837.91
400.47	819.19
400.67	861.32
400.86	844.93
401.05	814.51
401.24	828.55
401.44	809.83
401.63	851.96
401.82	823.87
402.01	823.87
402.21	788.76
402.40	788.76
402.59	863.66
402.78	901.11
402.97	847.27
403.17	861.32
403.36	868.34
403.55	952.60
403.74	861.32
403.93	938.55
404.13	873.02
404.32	992.39
404.51	994.73
404.70	894.08
404.89	983.02
405.09	1013.45
405.28	978.34
405.47	980.68
405.66	1039.20
405.85	959.62
406.05	985.37
406.24	1025.15
406.43	1018.13
406.62	987.71
406.81	1083.67
407.00	1116.44
407.20	1006.43
407.39	1046.22
407.58	1027.50
407.77	1029.84
407.96	1224.10
408.15	1198.35
408.34	1144.52
408.54	1128.14
408.73	1132.82
408.92	1167.93
409.11	1186.65
409.30	1153.88
409.49	1167.93
409.68	1181.97
409.87	1170.27
410.07	1256.87
410.26	1198.35
410.45	1095.37
410.64	1245.16
410.83	1296.66
411.02	1198.35
411.21	1107.07
411.40	1327.08
411.59	1320.06
411.78	1299.00
411.98	1231.12
412.17	1231.12
412.36	1266.23
412.55	1306.02
412.74	1451.13
412.93	1322.40
413.12	1282.61
413.31	1432.41
413.50	1364.53
413.69	1387.94
413.88	1462.83
414.07	1439.43
414.26	1612.63
414.45	1439.43
414.64	1516.67
414.83	1465.18
415.02	1640.72
415.22	1519.01
415.41	1703.91
415.60	1563.48
415.79	1607.95
415.98	1530.71
416.17	1589.22
416.36	1638.38
416.55	1607.95
416.74	1673.48
416.93	1703.91
417.12	1717.95
417.31	1701.57
417.50	1645.40
417.69	1767.10
417.88	1849.02
418.07	1783.49
418.26	1762.42
418.45	1706.25
418.64	1937.96
418.83	1849.02
419.02	1832.64
419.21	1830.30
419.39	1879.45
419.58	1820.94
419.77	1760.08
419.96	1860.73
420.15	1860.73
420.34	1966.05
420.53	1977.75
420.72	1942.64
420.91	1940.30
421.10	2087.76
421.29	1966.05
421.48	1860.73
421.67	1987.11
421.86	1963.71
422.05	1970.73
422.24	2057.33
422.43	2031.58
422.61	2122.87
422.80	2073.71
422.99	2129.89
423.18	2076.06
423.37	2087.76
423.56	2092.44
423.75	2169.68
423.94	2050.31
424.13	1870.09
424.32	1933.28
424.50	2111.16
424.69	2090.10
424.88	2195.42
425.07	2064.35
425.26	2038.61
425.45	2012.86
425.64	2120.53
425.83	2129.89
426.01	2118.18
426.20	2094.78
426.39	2108.82
426.58	2099.46
426.77	2172.02
426.96	2104.14
427.15	1996.48
427.33	2083.08
427.52	2169.68
427.71	2078.40
427.90	2209.47
428.09	2195.42
428.28	2237.55
428.46	2305.43
428.65	2230.53
428.84	2218.83
429.03	2333.51
429.22	2298.41
429.40	2319.47
429.59	2366.28
429.78	2108.82
429.97	2216.49
430.16	2221.17
430.34	2293.72
430.53	2277.34
430.72	2310.11
430.91	2394.37
431.10	2256.28
431.28	2366.28
431.47	2356.92
431.66	2518.42
431.85	2410.75
432.03	2506.71
432.22	2473.95
432.41	2551.18
432.60	2534.80
432.79	2490.33
432.97	2560.55
433.16	2576.93
433.35	2583.95
433.54	2546.50
433.72	2509.05
433.91	2565.23
434.10	2565.23
434.28	2649.49
434.47	2586.29
434.66	2619.06
434.85	2700.98
435.03	2600.34
435.22	2738.43
435.41	2740.77
435.59	2565.23
435.78	2677.57
435.97	2733.75
436.16	2689.28
436.34	2715.02
436.53	2731.41
436.72	2703.32
436.90	2658.85
437.09	2750.13
437.28	2768.85
437.46	2731.41
437.65	2843.75
437.84	2761.83
438.02	2836.73
438.21	2967.80
438.40	2759.49
438.58	2963.12
438.77	2967.80
438.96	3042.70
439.14	3040.36
439.33	3023.97
439.52	3143.34
439.70	3126.96
439.89	3103.55
440.08	3019.29
440.26	3049.72
440.45	3119.93
440.63	3159.72
440.82	3220.58
441.01	3302.50
441.19	3208.87
441.38	3290.79
441.57	3269.73
441.75	3421.86
441.94	3194.83
442.12	3330.58
442.31	3480.38
442.50	3403.14
442.68	3442.93
442.87	3393.78
443.05	3314.20
443.24	3562.30
443.43	3412.50
443.61	3452.29
443.80	3590.38
443.98	3405.48
444.17	3255.69
444.35	3473.36
444.54	3569.32
444.73	3431.23
444.91	3552.93
445.10	3520.17
445.28	3566.98
445.47	3386.76
445.65	3452.29
445.84	3407.82
446.02	3627.83
446.21	3492.08
446.39	3599.74
446.58	3562.30
446.77	3576.34
446.95	3503.78
447.14	3506.12
447.32	3492.08
447.51	3506.12
447.69	3733.15
447.88	3566.98
448.06	3641.87
448.25	3492.08
448.43	3653.58
448.62	3581.02
448.80	3597.40
448.99	3609.11
449.17	3861.88
449.36	3555.27
449.54	3688.68
449.73	3908.69
449.91	3747.20
450.10	3721.45
450.28	3859.54
450.46	3932.10
450.65	3735.50
450.83	3756.56
451.02	3892.31
451.20	3967.21
451.39	3880.61
451.57	3971.89
451.76	3843.16
451.94	3908.69
452.13	3969.55
452.31	3948.48
452.49	4056.15
452.68	3981.25
452.86	3861.88
453.05	3948.48
453.23	4124.02
453.42	3941.46
453.60	3936.78
453.78	4053.81
453.97	3927.42
454.15	4084.23
454.34	4032.74
454.52	4142.75
454.70	4056.15
454.89	4035.08
455.07	4166.15
455.26	4077.21
455.44	4159.13
455.62	4187.22
455.81	4187.22
455.99	4168.49
456.17	4191.90
456.36	4353.40
456.54	4308.93
456.73	4271.48
456.91	4355.74
457.09	4271.48
457.28	4573.41
457.46	4360.42
457.64	4414.25
457.83	4348.72
458.01	4468.08
458.19	4353.40
458.38	4346.37
458.56	4542.98
458.74	4610.86
458.93	4624.90
459.11	4461.06
459.29	4667.03
459.48	4575.75
459.66	4507.87
459.84	4723.20
460.03	4709.16
460.21	4608.51
460.39	4699.80
460.57	4608.51
460.76	4610.86
460.94	4772.35
461.12	4685.75
461.31	4655.33
461.49	4765.33
461.67	4685.75
461.85	4718.52
462.04	4840.23
462.22	4800.44
462.40	4973.64
462.59	4753.63
462.77	4898.74
462.95	4840.23
463.13	4922.15
463.32	4980.66
463.50	4940.87
463.68	4975.98
463.86	4933.85
464.05	5034.49
464.23	4887.04
464.41	5093.01
464.59	5006.41
464.78	5114.07
464.96	4884.70
465.14	5078.96
465.32	5139.82
465.50	5130.45
465.69	5160.88
465.87	5067.26
466.05	5064.92
466.23	5025.13
466.41	5203.01
466.60	5245.14
466.78	5142.16
466.96	4940.87
467.14	5224.08
467.32	5090.67
467.51	5252.16
467.69	5186.63
467.87	5320.04
468.05	5231.10
468.23	5177.26
468.41	5284.93
468.60	5303.65
468.78	5301.31
468.96	5284.93
469.14	5481.53
469.32	5507.28
469.50	5446.43
469.69	5448.77
469.87	5614.95
470.05	5657.07
470.23	5556.43
470.41	5474.51
470.59	5514.30
470.77	5497.92
470.95	5584.52
471.14	5591.54
471.32	5621.97
471.50	5837.30
471.68	5724.95
471.86	5696.86
472.04	5879.43
472.22	5980.07
472.40	5696.86
472.58	5804.53
472.77	5881.77
472.95	5895.81
473.13	6221.14
473.31	5860.70
473.49	6024.54
473.67	6127.52
473.85	6038.58
474.03	6019.86
474.21	6111.14
474.39	6146.25
474.57	6331.15
474.75	6361.58
474.93	6406.05
475.12	6328.81
475.30	6286.68
475.48	6401.37
475.66	6408.39
475.84	6525.41
476.02	6588.61
476.20	6459.88
476.38	6642.44
476.56	6717.34
476.74	6616.69
476.92	6696.27
477.10	6719.68
477.28	6857.77
477.46	6895.22
477.64	6829.68
477.82	6724.36
478.00	7063.74
478.18	7059.06
478.36	7178.42
478.54	7133.95
478.72	7082.46
478.90	7283.75
479.08	7438.22
479.26	7510.78
479.44	7529.50
479.62	7557.59
479.80	7786.96
479.98	7447.58
480.16	7653.55
480.34	7609.08
480.52	7850.16
480.70	7861.86
480.88	7786.96
481.06	7836.11
481.24	7962.50
481.41	8009.31
481.59	8091.23
481.77	8182.51
481.95	8210.60
482.13	8365.07
482.31	8088.89
482.49	8486.78
482.67	8517.21
482.85	8524.23
483.03	8709.13
483.21	8741.90
483.39	8809.78
483.57	8662.32
483.74	9043.83
483.92	8922.12
484.10	8940.85
484.28	9022.77
484.46	9376.19
484.64	9310.65
484.82	9411.29
485.00	9415.98
485.18	9432.36
485.35	9465.13
485.53	9320.01
485.71	9727.27
485.89	9783.44
486.07	9743.65
486.25	9834.93
486.43	9877.06
486.61	10012.81
486.78	10174.31
486.96	10408.36
487.14	10307.72
487.32	10413.04
487.50	10328.78
487.68	10609.65
487.85	10548.79
488.03	10642.42
488.21	11026.26
488.39	10834.34
488.57	10960.73
488.75	10998.18
488.92	11269.68
489.10	10923.28
489.28	11070.73
489.46	11314.15
489.64	11386.71
489.81	11253.30
489.99	11496.71
490.17	11578.63
490.35	11878.22
490.53	11707.36
490.70	12067.80
490.88	11545.86
491.06	12112.27
491.24	12156.74
491.41	11978.86
491.59	12318.24
491.77	12351.01
491.95	12559.31
492.13	12332.28
492.30	12606.13
492.48	12594.42
492.66	12720.81
492.84	12573.36
493.01	12863.58
493.19	12894.01
493.37	12954.87
493.54	12961.89
493.72	13305.95
493.90	13495.53
494.08	13280.20
494.25	13341.05
494.43	13577.45
494.61	13568.09
494.79	13858.31
494.96	13650.00
495.14	13678.09
495.32	13841.93
495.49	14118.11
495.67	13928.53
495.85	14389.61
496.02	13930.87
496.20	14455.15
496.38	14228.12
496.55	14368.55
496.73	14787.50
496.91	14260.88
497.09	14633.03
497.26	14869.42
497.44	14693.88
497.62	14527.71
497.79	14806.23
497.97	14981.77
498.14	15169.01
498.32	15150.29
498.50	15276.68
498.67	15461.58
498.85	15520.09
499.03	15337.53
499.20	15414.77
499.38	15501.37
499.56	15545.84
499.73	15513.07
499.91	15758.83
500.08	15782.23
500.26	15367.96
500.44	15861.81
500.61	16046.71
500.79	15782.23
500.97	15943.73
501.14	16245.66
501.32	16280.77
501.49	16428.22
501.67	16409.50
501.84	16126.29
502.02	16226.93
502.20	16919.73
502.37	16695.04
502.55	16517.16
502.72	16578.01
502.90	16559.29
503.07	16535.88
503.25	16807.39
503.43	16943.14
503.60	17043.78
503.78	17053.14
503.95	16812.07
504.13	17111.66
504.30	17184.21
504.48	17060.16
504.65	17179.53
504.83	17399.54
505.01	17631.26
505.18	17584.44
505.36	17912.12
505.53	17547.00
505.71	17748.28
505.88	17563.38
506.06	17617.21
506.23	17507.21
506.41	17610.19
506.58	17575.08
506.76	17905.10
506.93	17898.08
507.11	17776.37
507.28	18078.30
507.46	18008.08
507.63	18251.50
507.81	18066.60
507.98	18394.27
508.16	18384.91
508.33	18361.50
508.50	18293.63
508.68	18515.98
508.85	18508.96
509.03	18412.99
509.20	18785.14
509.38	18515.98
509.55	18824.93
509.73	18909.19
509.90	18794.50
510.08	18820.25
510.25	18831.95
510.42	18932.59
510.60	19405.38
510.77	19349.21
510.95	19161.97
511.12	19033.24
511.30	19454.53
511.47	19344.53
511.64	19412.40
511.82	19407.72
511.99	19454.53
512.17	19775.19
512.34	19513.05
512.51	19625.39
512.69	19386.66
512.86	19637.09
513.04	20009.24
513.21	20250.32
513.38	19630.07
513.56	19819.66
513.73	20128.61
513.90	20236.27
514.08	19878.17
514.25	19880.51
514.43	20348.62
514.60	20341.60
514.77	20053.71
514.95	20603.74
515.12	20257.34
515.29	20063.07
515.47	20659.91
515.64	20470.33
515.81	20224.57
515.99	20725.44
516.16	21170.15
516.33	21060.14
516.51	20683.31
516.68	21041.42
516.85	20528.84
517.03	21076.52
517.20	21542.29
517.37	21296.53
517.54	21130.36
517.72	21060.14
517.89	21097.59
518.06	21088.23
518.24	21228.66
518.41	20908.01
518.58	21614.85
518.75	21200.57
518.93	21724.85
519.10	21436.97
519.27	21766.98
519.45	21516.54
519.62	21869.97
519.79	21724.85
519.96	21575.06
520.14	21837.20
520.31	21823.16
520.48	22071.25
520.65	22312.33
520.83	22331.05
521.00	22008.06
521.17	21970.61
521.34	22125.08
521.52	22146.15
521.69	22167.21
521.86	22080.61
522.03	22427.01
522.20	22216.36
522.38	22377.86
522.55	22352.12
522.72	22293.60
522.89	22806.18
523.07	23161.94
523.24	22848.31
523.41	22712.56
523.58	22750.01
523.75	22836.61
523.92	22693.83
524.10	22906.82
524.27	22742.99
524.44	23133.86
524.61	22977.04
524.78	23365.57
524.96	23061.30
525.13	22799.16
525.30	22939.59
525.47	23255.56
525.64	23101.09
525.81	23503.66
525.98	23318.76
526.16	23248.54
526.33	23608.98
526.50	23548.13
526.67	23517.70
526.84	23145.56
527.01	23517.70
527.18	23604.30
527.36	23482.59
527.53	23536.43
527.70	24013.90
527.87	23737.71
528.04	23967.09
528.21	23744.73
528.38	23796.23
528.55	24159.01
528.72	24079.43
528.89	24049.00
529.07	23833.68
529.24	23910.91
529.41	24269.01
529.58	24027.94
529.75	23995.17
529.92	24280.72
530.09	24367.32
530.26	24112.20
530.43	24458.60
530.60	24528.81
530.77	24245.61
530.94	24521.79
531.11	24617.75
531.28	24559.24
531.46	24479.66
531.63	24603.71
531.80	24872.87
531.97	25025.01
532.14	24624.78
532.31	24566.26
532.48	24636.48
532.65	24797.98
532.82	24760.53
532.99	25123.31
533.16	24697.33
533.33	25083.52
533.50	25041.39
533.67	25071.82
533.84	24884.58
534.01	25043.73
534.18	24903.30
534.35	25247.36
534.52	25233.32
534.69	25399.49
534.86	25427.58
535.03	25104.59
535.20	24835.42
535.37	25483.75
535.54	25436.94
535.71	25348.00
535.88	25553.97
536.05	25598.44
536.22	25338.64
536.38	26019.74
536.55	25923.77
536.72	25745.89
536.89	25556.31
537.06	25537.59
537.23	26080.59
537.40	25879.30
537.57	25860.58
537.74	25745.89
537.91	25771.64
538.08	25820.79
538.25	26136.76
538.42	25673.34
538.59	26436.35
538.75	26017.40
538.92	25979.95
539.09	26429.33
539.26	26167.19
539.43	26073.57
539.60	26169.53
539.77	26188.25
539.94	26363.79
540.11	26370.82
540.28	26579.12
540.44	26251.45
540.61	26408.26
540.78	26300.60
540.95	26223.36
541.12	26314.64
541.29	26642.32
541.46	26462.10
541.62	26288.90
541.79	26438.69
541.96	26499.55
542.13	26623.59
542.30	26644.66
542.47	27056.59
542.63	26436.35
542.80	27061.27
542.97	27239.15
543.14	27140.85
543.31	26815.52
543.48	27133.83
543.64	27023.83
543.81	27501.29
543.98	27218.09
544.15	27199.37
544.32	27112.77
544.48	27501.29
544.65	27002.76
544.82	27157.24
544.99	26803.82
545.16	27309.37
545.32	27398.31
545.49	27857.06
545.66	27435.76
545.83	27590.24
546.00	27604.28
546.16	27522.36
546.33	27360.86
546.50	27398.31
546.67	27810.25
546.83	27410.01
547.00	27520.02
547.17	27899.19
547.34	27866.42
547.50	27824.29
547.67	27903.87
547.84	28308.78
548.00	28032.60
548.17	27835.99
548.34	27978.76
548.51	28353.25
548.67	28189.41
548.84	27988.13
549.01	27749.39
549.18	27873.44
549.34	28070.04
549.51	28252.61
549.68	28606.03
549.84	27934.29
550.01	28299.42
550.18	28208.14
550.34	28126.22
550.51	28697.31
550.68	28327.50
550.84	28086.43
551.01	28388.36
551.18	28276.01
551.34	28400.06
551.51	27878.12
551.68	28182.39
551.84	28685.61
552.01	28280.69
552.18	28952.43
552.34	28510.07
552.51	28725.39
552.68	28680.92
552.84	28540.49
553.01	28350.91
553.18	28149.62
553.34	28552.20
553.51	28439.85
553.67	28755.82
553.84	29237.97
554.01	28842.42
554.17	28929.02
554.34	28631.77
554.51	28711.35
554.67	28884.55
554.84	28648.16
555.00	29123.29
555.17	28896.25
555.33	28802.63
555.50	29371.38
555.67	29088.18
555.83	29071.79
556.00	29036.69
556.16	28985.19
556.33	29188.82
556.50	28940.72
556.66	29181.80
556.83	29048.39
556.99	29472.03
557.16	29511.81
557.32	29228.61
557.49	29088.18
557.65	29179.46
557.82	29233.29
557.98	29041.37
558.15	29413.51
558.32	29301.17
558.48	29582.03
558.65	29411.17
558.81	29839.49
558.98	29422.87
559.14	29373.72
559.31	29710.76
559.47	29385.43
559.64	29551.60
559.80	30005.67
559.97	29631.18
560.13	29612.46
560.30	29549.26
560.46	29528.20
560.63	29326.91
560.79	29476.71
560.96	29743.53
561.12	29479.05
561.29	29825.45
561.45	29722.46
561.61	29851.19
561.78	29617.14
561.94	29759.91
562.11	30087.59
562.27	29701.40
562.44	30059.50
562.60	29788.00
562.77	30066.52
562.93	29876.94
563.10	29713.10
563.26	29898.00
563.42	30335.68
563.59	29975.24
563.75	29954.18
563.92	30012.69
564.08	29715.44
564.24	29947.15
564.41	29729.48
564.57	29628.84
564.74	29799.70
564.90	30295.89
565.07	29603.10
565.23	29888.64
565.39	30415.26
565.56	30417.60
565.72	30059.50
565.88	29968.22
566.05	29923.75
566.21	29830.13
566.38	30284.19
566.54	30129.72
566.70	30204.61
566.87	30415.26
567.03	30026.73
567.19	30384.83
567.36	30464.41
567.52	30155.46
567.68	30396.54
567.85	30012.69
568.01	30005.67
568.17	30536.97
568.34	30279.51
568.50	30424.62
568.66	30071.20
568.83	30525.27
568.99	30190.57
569.15	30148.44
569.32	30099.29
569.48	30319.30
569.64	30195.25
569.81	30735.92
569.97	30281.85
570.13	30333.34
570.30	30146.10
570.46	30415.26
570.62	30433.99
570.78	30288.87
570.95	30190.57
571.11	30286.53
571.27	30129.72
571.43	30476.12
571.60	30520.59
571.76	30424.62
571.92	30359.09
572.09	30607.19
572.25	30632.93
572.41	30754.64
572.57	30745.28
572.74	30771.02
572.90	30712.51
573.06	30525.27
573.22	30312.28
573.38	30258.45
573.55	30349.73
573.71	30560.37
573.87	30876.35
574.03	30373.13
574.20	30796.77
574.36	30745.28
574.52	30501.86
574.68	30309.94
574.84	30480.80
575.01	30452.71
575.17	30780.39
575.33	30693.79
575.49	30567.40
575.65	30614.21
575.82	31133.81
575.98	30567.40
576.14	30785.07
576.30	30705.49
576.46	30431.65
576.62	30618.89
576.79	30508.88
576.95	30471.43
577.11	30817.83
577.27	30764.00
577.43	30939.54
577.59	30745.28
577.75	30342.70
577.92	30740.60
578.08	30319.30
578.24	30455.05
578.40	30806.13
578.56	30728.89
578.72	30796.77
578.88	30932.52
579.04	31061.25
579.21	30731.23
579.37	30588.46
579.53	30761.66
579.69	30288.87
579.85	30595.48
580.01	30529.95
580.17	30614.21
580.33	30745.28
580.49	30672.72
580.65	31019.12
580.82	30806.13
580.98	31000.40
581.14	30848.26
581.30	30794.43
581.46	30618.89
581.62	30551.01
581.78	30403.56
581.94	30850.60
582.10	30583.78
582.26	31005.08
582.42	30473.78
582.58	30897.41
582.74	31079.97
582.90	30785.07
583.06	30916.14
583.22	30843.58
583.38	30773.36
583.54	30771.02
583.70	30742.94
583.86	30714.85
584.02	30518.25
584.18	31084.65
584.34	31337.43
584.50	30827.20
584.66	31103.38
584.82	30658.68
584.98	30806.13
585.14	30621.23
585.30	30965.29
585.46	30883.37
585.62	30951.24
585.78	30707.83
585.94	30595.48
586.10	30604.84
586.26	31197.00
586.42	31021.46
586.58	30909.11
586.74	31068.27
586.90	30501.86
587.06	30728.89
587.22	30974.65
587.38	30703.15
587.54	30974.65
587.70	31016.78
587.86	30845.92
588.02	31159.55
588.18	31346.79
588.34	31012.10
588.49	31232.11
588.65	30850.60
588.81	30934.86
588.97	30988.69
589.13	30801.45
589.29	31030.82
589.45	30689.10
589.61	31044.87
589.77	31508.29
589.93	31503.61
590.08	31498.93
590.24	31562.12
590.40	31456.80
590.56	31260.20
590.72	30995.71
590.88	31105.72
591.04	31070.61
591.20	31323.39
591.35	31405.31
591.51	31861.71
591.67	31152.53
591.83	31861.71
591.99	31728.30
592.15	31438.08
592.31	31225.09
592.46	31283.60
592.62	31171.25
592.78	31187.64
592.94	31332.75
593.10	31360.84
593.26	31255.51
593.41	31344.45
593.57	31484.89
593.73	31424.03
593.89	31789.16
594.05	31353.82
594.20	31267.22
594.36	31143.17
594.52	31227.43
594.68	31005.08
594.84	31246.15
594.99	31536.38
595.15	31274.24
595.31	31955.33
595.47	31419.35
595.62	31307.01
595.78	31393.61
595.94	31440.42
596.10	31199.34
596.25	31536.38
596.41	31026.14
596.57	31232.11
596.73	31445.10
596.88	31215.72
597.04	31271.90
597.20	31288.28
597.36	31772.77
597.51	31407.65
597.67	31234.45
597.83	31381.90
597.99	31545.74
598.14	31615.96
598.30	31379.56
598.46	31304.67
598.61	31751.71
598.77	31426.37
598.93	31744.69
599.09	31597.23
599.24	31913.20
599.40	31791.50
599.56	32210.45
599.71	31704.90
599.87	31821.92
600.03	31508.29
600.18	31468.50
600.34	31297.64
600.50	31391.26
600.65	31421.69
600.81	31784.48
600.97	31559.78
601.12	31779.79
601.28	31707.24
601.44	31728.30
601.59	31768.09
601.75	31356.16
601.91	31786.82
602.06	31470.84
602.22	31653.40
602.37	31433.39
602.53	31356.16
602.69	31718.94
602.84	32023.21
603.00	31541.06
603.16	32009.17
603.31	31915.54
603.47	31360.84
603.62	31674.47
603.78	31534.04
603.94	31274.24
604.09	31229.77
604.25	31711.92
604.40	31442.76
604.56	31180.62
604.71	31566.81
604.87	31573.83
605.03	31786.82
605.18	31850.01
605.34	31679.15
605.49	31531.70
605.65	31709.58
605.80	31297.64
605.96	31489.57
606.12	31129.12
606.27	31454.46
606.43	31145.51
606.58	31606.59
606.74	31648.72
606.89	31386.58
607.05	31611.28
607.20	31749.37
607.36	31426.37
607.51	31487.23
607.67	31171.25
607.82	31185.30
607.98	30993.37
608.13	31732.98
608.29	31468.50
608.44	31625.32
608.60	31288.28
608.75	31054.23
608.91	31693.19
609.06	30916.14
609.22	31346.79
609.37	31241.47
609.53	31033.16
609.68	31164.23
609.84	30838.90
609.99	31482.55
610.15	30904.43
610.30	30820.17
610.46	31199.34
610.61	31321.05
610.76	31166.57
610.92	31463.82
611.07	31164.23
611.23	31360.84
611.38	31016.78
611.54	30707.83
611.69	30974.65
611.84	31218.07
612.00	30995.71
612.15	31316.37
612.31	31332.75
612.46	31353.82
612.62	31295.30
612.77	30796.77
612.92	31494.25
613.08	31098.70
613.23	31150.19
613.39	30794.43
613.54	30986.35
613.69	30976.99
613.85	30738.26
614.00	30937.20
614.15	30841.24
614.31	30558.03
614.46	31136.15
614.62	31016.78
614.77	31311.69
614.92	30993.37
615.08	30764.00
615.23	30728.89
615.38	30988.69
615.54	30773.36
615.69	31016.78
615.84	30593.14
616.00	31082.31
616.15	30602.50
616.30	30944.22
616.46	30806.13
616.61	30726.55
616.76	30850.60
616.92	30387.18
617.07	31079.97
617.22	30436.33
617.37	30700.81
617.53	31171.25
617.68	30352.07
617.83	30513.56
617.99	30632.93
618.14	30621.23
618.29	30391.86
618.45	30705.49
618.60	30658.68
618.75	30508.88
618.90	30675.06
619.06	30426.96
619.21	30541.65
619.36	30604.84
619.51	30274.83
619.67	30246.74
619.82	30658.68
619.97	30272.49
620.12	30118.01
620.28	30377.81
620.43	30221.00
620.58	30331.00
620.73	30305.26
620.89	30525.27
621.04	30649.32
621.19	30600.16
621.34	30579.10
621.49	30398.88
621.65	30136.74
621.80	30436.33
621.95	29940.13
622.10	30277.17
622.25	29930.77
622.41	30068.86
622.56	30188.23
622.71	30441.01
622.86	30101.63
623.01	30380.15
623.16	30092.27
623.32	30143.76
623.47	30047.80
623.62	29965.88
623.77	29912.05
623.92	30448.03
624.07	30052.48
624.23	30153.12
624.38	29851.19
624.53	29905.02
624.68	30103.97
624.83	30043.12
624.98	29869.92
625.13	29813.74
625.29	30043.12
625.44	30192.91
625.59	29481.39
625.74	29757.57
625.89	29696.72
626.04	29460.32
626.19	29830.13
626.34	29556.28
626.49	29523.52
626.65	29755.23
626.80	29996.31
626.95	29296.49
627.10	29670.97
627.25	29490.75
627.40	29607.78
627.55	29024.98
627.70	29500.11
627.85	29434.58
628.00	29455.64
628.15	29757.57
628.30	29380.74
628.45	29680.33
628.60	29343.30
628.76	29085.84
628.91	29586.71
629.06	29188.82
629.21	29301.17
629.36	29343.30
629.51	29362.02
629.66	29872.26
629.81	29177.12
629.96	29275.42
630.11	29355.00
630.26	28973.49
630.41	29193.50
630.56	28748.80
630.71	29266.06
630.86	29579.69
631.01	29249.67
631.16	29024.98
631.31	29205.20
631.46	28917.32
631.61	29200.52
631.76	29158.39
631.91	28865.83
632.06	28606.03
632.21	28903.28
632.36	29027.32
632.51	28690.29
632.66	29081.16
632.81	28882.21
632.96	28666.88
633.10	28938.38
633.25	28716.03
633.40	28858.81
633.55	28875.19
633.70	28683.27
633.85	28760.50
634.00	28706.67
634.15	28727.74
634.30	28643.48
634.45	28903.28
634.60	28463.25
634.75	28397.72
634.90	28601.35
635.05	28821.36
635.19	28711.35
635.34	29032.00
635.49	28692.63
635.64	28711.35
635.79	28481.98
635.94	28512.41
636.09	28615.39
636.24	28297.08
636.39	28322.82
636.53	28472.62
636.68	28491.34
636.83	28566.24
636.98	28414.10
637.13	28243.24
637.28	28140.26
637.43	28652.84
637.57	28388.36
637.72	28088.77
637.87	28095.79
638.02	28313.46
638.17	28383.68
638.32	28098.13
638.46	28158.99
638.61	28004.51
638.76	28231.54
638.91	27798.54
639.06	28086.43
639.20	28432.83
639.35	28210.48
639.50	28112.17
639.65	28524.11
639.80	28318.14
639.94	28362.61
640.09	28463.25
640.24	27859.40
640.39	28219.84
640.54	27782.16
640.68	27833.65
640.83	27910.89
640.98	27630.02
641.13	27583.21
641.27	28238.56
641.42	28081.75
641.57	27903.87
641.72	27903.87
641.86	27557.47
642.01	27981.10
642.16	27634.71
642.31	27552.79
642.45	27831.31
642.60	27398.31
642.75	27557.47
642.90	27468.53
643.04	27824.29
643.19	27407.67
643.34	27550.45
643.48	27641.73
643.63	27850.03
643.78	27611.30
643.93	27754.07
644.07	27527.04
644.22	27442.78
644.37	27915.57
644.51	27658.11
644.66	27072.98
644.81	27866.42
644.95	27557.47
645.10	26977.01
645.25	27171.28
645.39	27405.33
645.54	27112.77
645.69	27047.23
645.83	27445.12
645.98	27555.13
646.13	27611.30
646.27	27623.00
646.42	27381.93
646.57	27620.66
646.71	27192.34
646.86	27274.26
647.00	27190.00
647.15	27353.84
647.30	27438.10
647.44	27042.55
647.59	26817.86
647.74	27033.19
647.88	27194.68
648.03	27234.47
648.17	27061.27
648.32	27374.91
648.47	27108.08
648.61	26883.39
648.76	27356.18
648.90	26960.63
649.05	27285.97
649.20	26946.59
649.34	27164.26
649.49	26651.68
649.63	26874.03
649.78	26874.03
649.92	26560.40
650.07	27087.02
650.21	26775.73
650.36	27154.90
650.51	26792.11
650.65	26953.61
650.80	26941.91
650.94	27084.68
651.09	26527.63
651.23	26710.19
651.38	26731.26
651.52	26661.04
651.67	26749.98
651.81	27051.91
651.96	26532.31
652.10	26654.02
652.25	26562.74
652.39	26916.16
652.54	26953.61
652.68	26684.45
652.83	26836.58
652.97	26902.12
653.12	26775.73
653.26	26647.00
653.41	26752.32
653.55	26600.19
653.70	26380.18
653.84	26637.64
653.99	26515.93
654.13	26153.15
654.27	26527.63
654.42	26380.18
654.56	26466.78
654.71	26471.46
654.85	26569.76
655.00	26658.70
655.14	26471.46
655.29	26160.17
655.43	26377.84
655.57	26237.41
655.72	26181.23
655.86	26127.40
656.01	26412.95
656.15	26232.72
656.30	25862.92
656.44	25839.51
656.58	25996.33
656.73	26169.53
656.87	25830.15
657.01	26270.17
657.16	26120.38
657.30	26167.19
657.45	26129.74
657.59	26319.32
657.73	25741.21
657.88	26235.06
658.02	25858.24
658.16	25731.85
658.31	25668.66
658.45	25998.67
658.60	25694.40
658.74	25860.58
658.88	25900.37
659.03	26075.91
659.17	26024.42
659.31	25802.07
659.46	25458.01
659.60	25640.57
659.74	25593.76
659.89	25570.35
660.03	25621.84
660.17	25249.70
660.32	25575.03
660.46	25385.45
660.60	25528.22
660.74	25053.09
660.89	25565.67
661.03	25202.89
661.17	25432.26
661.32	25071.82
661.46	25558.65
661.60	25329.28
661.74	25404.17
661.89	25383.11
662.03	25102.25
662.17	25008.62
662.31	24840.11
662.46	25427.58
662.60	25041.39
662.74	25027.35
662.88	24989.90
663.03	25088.20
663.17	24676.27
663.31	24617.75
663.45	24767.55
663.60	24805.00
663.74	24957.13
663.88	24795.64
664.02	24790.95
664.17	24800.32
664.31	24737.12
664.45	24840.11
664.59	24704.35
664.73	24877.55
664.88	24659.88
665.02	24247.95
665.16	24486.68
665.30	24292.42
665.44	24500.73
665.59	24215.18
665.73	24254.97
665.87	24041.98
666.01	23962.40
666.15	24257.31
666.29	24364.98
666.44	24067.73
666.58	24212.84
666.72	23723.67
666.86	24191.78
667.00	24484.34
667.14	24170.71
667.28	24011.56
667.43	23784.52
667.57	23735.37
667.71	23995.17
667.85	23864.10
667.99	23861.76
668.13	23676.86
668.27	23803.25
668.41	23887.51
668.56	23658.14
668.70	23873.46
668.84	23655.79
668.98	23721.33
669.12	23410.04
669.26	23707.29
669.40	23662.82
669.54	23864.10
669.68	23388.97
669.82	23515.36
669.96	23257.90
670.10	23297.69
670.25	23332.80
670.39	23040.23
670.53	23438.12
670.67	23016.83
670.81	23103.43
670.95	23208.75
671.09	23028.53
671.23	23129.17
671.37	23037.89
671.51	22923.21
671.65	23080.02
671.79	22852.99
671.93	23037.89
672.07	23040.23
672.21	22874.06
672.35	22569.79
672.49	22443.40
672.63	22478.50
672.77	22403.61
672.91	22630.64
673.05	22419.99
673.19	22031.46
673.33	22314.67
673.47	22359.14
673.61	22476.16
673.75	22251.47
673.89	22274.88
674.03	22225.73
674.17	22026.78
674.31	22118.06
674.45	22104.02
674.59	22050.19
674.73	21774.00
674.87	21891.03
675.01	21907.41
675.15	21862.94
675.29	21813.79
675.43	21844.22
675.56	21888.69
675.70	21736.56
675.84	21972.95
675.98	20896.30
676.12	21521.23
676.26	21844.22
676.40	21483.78
676.54	21425.26
676.68	21563.36
676.82	21177.17
676.96	21216.96
677.10	20957.16
677.23	20842.47
677.37	20868.22
677.51	20563.95
677.65	20690.34
677.79	20533.52
677.93	20727.78
678.07	20678.63
678.21	20467.98
678.34	20353.30
678.48	20725.44
678.62	20243.29
678.76	20161.37
678.90	20542.88
679.04	20561.61
679.18	20252.66
679.31	20137.97
679.45	20027.96
679.59	20137.97
679.73	19880.51
679.87	19807.95
680.00	19878.17
680.14	19491.98
680.28	19784.55
680.42	19967.11
680.56	19861.79
680.70	19583.26
680.83	19707.31
680.97	19716.67
681.11	19403.04
681.25	19456.87
681.39	19243.88
681.52	19040.26
681.66	19197.07
681.80	19033.24
681.94	18780.46
682.07	18970.04
682.21	18853.02
682.35	18883.44
682.49	18855.36
682.62	18815.57
682.76	18782.80
682.90	18794.50
683.04	18822.59
683.17	18663.43
683.31	18876.42
683.45	18691.52
683.59	18410.65
683.72	18452.78
683.86	18537.04
684.00	18658.75
684.13	18382.57
684.27	18366.18
684.41	18054.89
684.55	17987.02
684.68	17671.04
684.82	18150.85
684.96	17895.74
685.09	17692.11
685.23	17584.44
685.37	17525.93
685.50	18047.87
685.64	17834.88
685.78	17357.41
685.91	17769.35
686.05	17734.24
686.19	17530.61
686.32	17682.75
686.46	17121.02
686.60	17132.72
686.73	17151.45
686.87	17097.61
687.01	17343.37
687.14	17160.81
687.28	16678.66
687.42	16697.38
687.55	16961.86
687.69	16954.84
687.82	16372.05
687.96	16732.49
688.10	16758.24
688.23	16376.73
688.37	16493.76
688.50	16629.51
688.64	16390.77
688.78	16414.18
688.91	16645.89
689.05	16243.32
689.18	16215.23
689.32	15941.39
689.46	16170.76
689.59	15936.71
689.73	16086.50
689.86	16105.23
690.00	15878.19
690.13	15847.77
690.27	15899.26
690.41	15702.65
690.54	15859.47
690.68	15630.10
690.81	15597.33
690.95	15559.88
691.08	15583.29
691.22	15599.67
691.35	15279.02
691.49	15197.10
691.62	15580.95
691.76	15510.73
691.89	15417.11
692.03	14965.39
692.16	14902.19
692.30	15077.73
692.43	14764.10
692.57	14817.93
692.70	14677.50
692.84	14740.69
692.97	14420.04
693.11	14649.41
693.24	14583.88
693.38	14822.61
693.51	14352.16
693.65	14738.35
693.78	14251.52
693.92	14305.35
694.05	14127.47
694.19	14183.65
694.32	14127.47
694.45	13970.66
694.59	14209.39
694.72	13717.88
694.86	13774.05
694.99	13799.80
695.13	13734.26
695.26	13703.84
695.39	13532.98
695.53	13745.97
695.66	13673.41
695.80	13420.63
695.93	13350.42
696.07	13516.59
696.20	13774.05
696.33	13331.69
696.47	13355.10
696.60	13397.23
696.73	13312.97
696.87	13275.52
697.00	13226.37
697.14	13001.68
697.27	12830.82
697.40	12760.60
697.54	12725.49
697.67	12980.61
697.80	12699.75
697.94	12554.63
698.07	12578.04
698.21	12627.19
698.34	12407.18
698.47	12456.33
698.61	12461.01
698.74	12788.69
698.87	12505.48
699.01	12187.17
699.14	12074.82
699.27	12166.10
699.40	12252.70
699.54	12079.50
699.67	12173.13
699.80	12102.91
699.94	11910.99
700.07	11915.67
700.20	11644.17
700.34	11580.97
700.47	11786.94
700.60	11852.47
700.73	11817.36
700.87	11740.13
701.00	11735.45
701.13	11637.14
701.26	11508.41
701.40	11379.68
701.53	11784.60
701.66	11604.38
701.79	11410.11
701.93	11180.74
702.06	11197.12
702.19	11176.06
702.32	10984.13
702.46	11103.50
702.59	10885.83
702.72	10867.11
702.85	10984.13
702.99	10787.53
703.12	10686.89
703.25	10604.97
703.38	10871.79
703.51	10729.02
703.65	10590.92
703.78	10590.92
703.91	10478.58
704.04	10640.08
704.17	10714.97
704.31	10443.47
704.44	10370.91
704.57	10410.70
704.70	10225.80
704.83	10164.95
704.96	9954.30
705.10	10022.17
705.23	9689.82
>>>>>End Processed Spectral Data<<<<<
