SpectraSuite Data File
++++++++++++++++++++++++++++++++++++
Date: Fri Oct 18 13:58:40 GMT-05:00 2013
User: bianchi
Dark Spectrum Present: No
Reference Spectrum Present: No
Number of Sampled Component Spectra: 1
Spectrometers: USB2+H05261
Integration Time (usec): 50000 (USB2+H05261)
Spectra Averaged: 1 (USB2+H05261)
Boxcar Smoothing: 0 (USB2+H05261)
Correct for Electrical Dark: No (USB2+H05261)
Strobe/Lamp Enabled: No (USB2+H05261)
Correct for Detector Non-linearity: No (USB2+H05261)
Correct for Stray Light: No (USB2+H05261)
Number of Pixels in Processed Spectrum: 2048
>>>>>Begin Processed Spectral Data<<<<<
365.73	0.00
365.92	0.00
366.12	0.00
366.32	0.00
366.52	0.00
366.72	0.00
366.91	0.00
367.11	0.00
367.31	0.00
367.51	0.00
367.70	0.00
367.90	0.00
368.10	0.00
368.30	0.00
368.49	0.00
368.69	0.00
368.89	0.00
369.09	0.00
369.28	0.00
369.48	0.00
369.68	0.00
369.87	0.00
370.07	0.00
370.27	0.00
370.47	0.00
370.66	44.47
370.86	95.96
371.06	152.13
371.25	119.37
371.45	154.48
371.65	135.75
371.84	156.82
372.04	180.22
372.24	182.56
372.44	210.65
372.63	182.56
372.83	173.20
373.03	220.01
373.22	112.35
373.42	266.82
373.62	262.14
373.81	255.12
374.01	166.18
374.21	245.76
374.40	220.01
374.60	227.03
374.79	238.73
374.99	182.56
375.19	257.46
375.38	304.27
375.58	229.37
375.78	264.48
375.97	290.23
376.17	243.42
376.37	156.82
376.56	259.80
376.76	315.97
376.95	227.03
377.15	332.36
377.35	248.10
377.54	201.29
377.74	330.02
377.93	229.37
378.13	325.33
378.33	257.46
378.52	210.65
378.72	215.33
378.91	271.50
379.11	290.23
379.31	210.65
379.50	285.55
379.70	332.36
379.89	301.93
380.09	259.80
380.28	313.63
380.48	276.18
380.68	311.29
380.87	236.39
381.07	250.44
381.26	315.97
381.46	322.99
381.65	341.72
381.85	292.57
382.04	259.80
382.24	358.10
382.43	334.70
382.63	271.50
382.83	287.89
383.02	376.83
383.22	395.55
383.41	332.36
383.61	360.44
383.80	381.51
384.00	320.65
384.19	299.59
384.39	294.91
384.58	411.93
384.78	390.87
384.97	355.76
385.17	386.19
385.36	397.89
385.56	400.23
385.75	409.59
385.95	301.93
386.14	344.06
386.34	411.93
386.53	397.89
386.72	318.31
386.92	311.29
387.11	367.46
387.31	447.04
387.50	397.89
387.70	362.78
387.89	449.38
388.09	372.15
388.28	475.13
388.48	465.77
388.67	461.09
388.86	465.77
389.06	552.37
389.25	458.74
389.45	514.92
389.64	458.74
389.84	421.30
390.03	470.45
390.22	496.19
390.42	510.24
390.61	491.51
390.81	463.43
391.00	543.00
391.19	489.17
391.39	514.92
391.58	514.92
391.78	573.43
391.97	479.81
392.16	463.43
392.36	554.71
392.55	528.96
392.75	535.98
392.94	533.64
393.13	458.74
393.33	521.94
393.52	519.60
393.71	503.22
393.91	557.05
394.10	557.05
394.29	559.39
394.49	585.13
394.68	601.52
394.88	585.13
395.07	671.73
395.26	589.82
395.46	610.88
395.65	589.82
395.84	674.07
396.04	678.76
396.23	634.29
396.42	540.66
396.62	713.86
396.81	620.24
397.00	564.07
397.19	681.10
397.39	650.67
397.58	641.31
397.77	674.07
397.97	723.23
398.16	622.58
398.35	697.48
398.55	643.65
398.74	709.18
398.93	725.57
399.12	641.31
399.32	695.14
399.51	737.27
399.70	812.17
399.90	875.36
400.09	730.25
400.28	774.72
400.47	774.72
400.67	795.78
400.86	739.61
401.05	720.88
401.24	809.83
401.44	746.63
401.63	809.83
401.82	725.57
402.01	741.95
402.21	800.46
402.40	798.12
402.59	851.96
402.78	877.70
402.97	868.34
403.17	856.64
403.36	800.46
403.55	835.57
403.74	847.27
403.93	870.68
404.13	842.59
404.32	858.98
404.51	936.21
404.70	931.53
404.89	945.58
405.09	980.68
405.28	924.51
405.47	917.49
405.66	933.87
405.85	959.62
406.05	1022.81
406.24	910.47
406.43	959.62
406.62	966.64
406.81	1034.52
407.00	945.58
407.20	1018.13
407.39	1008.77
407.58	1025.15
407.77	973.66
407.96	1109.41
408.15	1013.45
408.34	1043.88
408.54	1053.24
408.73	1055.58
408.92	1074.31
409.11	1214.74
409.30	1191.33
409.49	1114.10
409.68	1170.27
409.87	1163.25
410.07	1027.50
410.26	1214.74
410.45	1196.01
410.64	1153.88
410.83	1247.51
411.02	1196.01
411.21	1212.40
411.40	1303.68
411.59	1226.44
411.78	1252.19
411.98	1334.11
412.17	1308.36
412.36	1224.10
412.55	1345.81
412.74	1350.49
412.93	1338.79
413.12	1399.64
413.31	1411.34
413.50	1390.28
413.69	1416.02
413.88	1369.21
414.07	1423.05
414.26	1427.73
414.45	1462.83
414.64	1476.88
414.83	1568.16
415.02	1437.09
415.22	1504.96
415.41	1451.13
415.60	1526.03
415.79	1596.25
415.98	1654.76
416.17	1582.20
416.36	1551.78
416.55	1577.52
416.74	1600.93
416.93	1619.65
417.12	1675.82
417.31	1659.44
417.50	1729.66
417.69	1806.89
417.88	1680.50
418.07	1675.82
418.26	1799.87
418.45	1724.97
418.64	1820.94
418.83	1760.08
419.02	1827.96
419.21	1851.36
419.39	1849.02
419.58	1778.81
419.77	1776.47
419.96	1788.17
420.15	1907.54
420.34	1839.66
420.53	1940.30
420.72	1935.62
420.91	1933.28
421.10	1823.28
421.29	2015.20
421.48	1940.30
421.67	1961.37
421.86	1935.62
422.05	1998.82
422.24	1909.88
422.43	1923.92
422.61	1968.39
422.80	1968.39
422.99	1994.14
423.18	2045.63
423.37	1952.01
423.56	1954.35
423.75	2069.03
423.94	2040.95
424.13	1907.54
424.32	1851.36
424.50	2064.35
424.69	2069.03
424.88	2113.50
425.07	2036.27
425.26	2008.18
425.45	2045.63
425.64	1914.56
425.83	2054.99
426.01	2073.71
426.20	2094.78
426.39	2101.80
426.58	2127.55
426.77	2033.93
426.96	2127.55
427.15	2071.37
427.33	2062.01
427.52	2165.00
427.71	2132.23
427.90	2150.95
428.09	2193.08
428.28	2211.81
428.46	2209.47
428.65	2249.25
428.84	2239.89
429.03	2246.91
429.22	2136.91
429.40	2263.30
429.59	2200.10
429.78	2153.29
429.97	2242.23
430.16	2069.03
430.34	2328.83
430.53	2466.92
430.72	2359.26
430.91	2275.00
431.10	2277.34
431.28	2443.52
431.47	2396.71
431.66	2466.92
431.85	2272.66
432.03	2410.75
432.22	2485.65
432.41	2429.48
432.60	2359.26
432.79	2396.71
432.97	2612.04
433.16	2436.50
433.35	2354.58
433.54	2480.97
433.72	2485.65
433.91	2600.34
434.10	2518.42
434.28	2520.76
434.47	2558.21
434.66	2551.18
434.85	2595.65
435.03	2537.14
435.22	2642.46
435.41	2640.12
435.59	2544.16
435.78	2497.35
435.97	2693.96
436.16	2670.55
436.34	2623.74
436.53	2754.81
436.72	2672.89
436.90	2637.78
437.09	2778.22
437.28	2588.63
437.46	2644.81
437.65	2605.02
437.84	2810.98
438.02	2801.62
438.21	2782.90
438.40	2689.28
438.58	2836.73
438.77	2949.08
438.96	2820.35
439.14	2733.75
439.33	2920.99
439.52	2960.78
439.70	3026.31
439.89	2972.48
440.08	3012.27
440.26	3112.91
440.45	3101.21
440.63	3045.04
440.82	3124.62
441.01	3049.72
441.19	3126.96
441.38	3173.77
441.57	3211.22
441.75	3178.45
441.94	3283.77
442.12	3227.60
442.31	3318.88
442.50	3405.48
442.68	3258.03
442.87	3262.71
443.05	3426.54
443.24	3456.97
443.43	3204.19
443.61	3417.18
443.80	3527.19
443.98	3361.01
444.17	3398.46
444.35	3342.28
444.54	3412.50
444.73	3478.04
444.91	3405.48
445.10	3506.12
445.28	3438.25
445.47	3368.03
445.65	3260.37
445.84	3330.58
446.02	3396.12
446.21	3440.59
446.39	3342.28
446.58	3559.95
446.77	3508.46
446.95	3225.26
447.14	3375.05
447.32	3543.57
447.51	3499.10
447.69	3545.91
447.88	3487.40
448.06	3398.46
448.25	3482.72
448.43	3506.12
448.62	3398.46
448.80	3482.72
448.99	3524.85
449.17	3557.61
449.36	3557.61
449.54	3791.67
449.73	3630.17
449.91	3777.62
450.10	3653.58
450.28	3742.52
450.46	3784.65
450.65	3520.17
450.83	3751.88
451.02	3686.34
451.20	3749.54
451.39	3751.88
451.57	3758.90
451.76	3691.02
451.94	3889.97
452.13	3761.24
452.31	3791.67
452.49	3803.37
452.68	3756.56
452.86	3822.09
453.05	3850.18
453.23	3913.38
453.42	3843.16
453.60	3805.71
453.78	4016.36
453.97	4004.66
454.15	3817.41
454.34	3964.87
454.52	4074.87
454.70	3840.82
454.89	3936.78
455.07	4084.23
455.26	4112.32
455.44	4086.58
455.62	4039.76
455.81	4053.81
455.99	4021.04
456.17	4149.77
456.36	4105.30
456.54	4365.10
456.73	4189.56
456.91	4269.14
457.09	4425.95
457.28	4374.46
457.46	4278.50
457.64	4425.95
457.83	4262.12
458.01	4383.82
458.19	4468.08
458.38	4325.31
458.56	4428.29
458.74	4507.87
458.93	4479.79
459.11	4421.27
459.29	4442.34
459.48	4493.83
459.66	4482.13
459.84	4580.43
460.03	4589.79
460.21	4599.15
460.39	4365.10
460.57	4344.03
460.76	4418.93
460.94	4615.54
461.12	4564.04
461.31	4643.62
461.49	4547.66
461.67	4718.52
461.85	4676.39
462.04	4472.76
462.22	4870.65
462.40	4720.86
462.59	4526.60
462.77	4760.65
462.95	4657.67
463.13	4791.08
463.32	4765.33
463.50	4821.50
463.68	4758.31
463.86	4809.80
464.05	4732.56
464.23	4828.53
464.41	4990.02
464.59	4882.36
464.78	4966.62
464.96	4985.34
465.14	4975.98
465.32	4933.85
465.50	5064.92
465.69	4978.32
465.87	4910.44
466.05	4987.68
466.23	5036.83
466.41	5074.28
466.60	5231.10
466.78	5008.75
466.96	5001.72
467.14	5095.35
467.32	5029.81
467.51	5188.97
467.69	5004.07
467.87	5186.63
468.05	5104.71
468.23	5294.29
468.41	5116.41
468.60	4959.60
468.78	5191.31
468.96	5076.62
469.14	5247.48
469.32	5348.12
469.50	5238.12
469.69	5364.51
469.87	5348.12
470.05	5507.28
470.23	5359.83
470.41	5458.13
470.59	5373.87
470.77	5495.58
470.95	5561.11
471.14	5518.98
471.32	5528.35
471.50	5528.35
471.68	5486.22
471.86	5610.26
472.04	5584.52
472.22	5729.63
472.40	5603.24
472.58	5722.61
472.77	5713.25
472.95	5788.14
473.13	5867.72
473.31	5865.38
473.49	5846.66
473.67	5783.46
473.85	5853.68
474.03	5795.17
474.21	5973.05
474.39	6057.31
474.57	6026.88
474.75	6036.24
474.93	6249.23
475.12	6097.10
475.30	6069.01
475.48	6134.54
475.66	6305.40
475.84	6286.68
476.02	6270.30
476.20	6235.19
476.38	6532.44
476.56	6534.78
476.74	6513.71
476.92	6485.62
477.10	6420.09
477.28	6593.29
477.46	6609.67
477.64	6698.61
477.82	6846.07
478.00	6970.12
478.18	6789.89
478.36	6846.07
478.54	6981.82
478.72	7014.59
478.90	7087.14
479.08	7040.33
479.26	7302.47
479.44	7176.08
479.62	7192.47
479.80	7438.22
479.98	7405.46
480.16	7548.23
480.34	7342.26
480.52	7597.38
480.70	7651.21
480.88	7346.94
481.06	7646.53
481.24	7623.12
481.41	7562.27
481.59	7871.22
481.77	7826.75
481.95	7911.01
482.13	8006.97
482.31	8032.72
482.49	8154.43
482.67	8264.43
482.85	8205.92
483.03	8407.20
483.21	8519.55
483.39	8573.38
483.57	8599.13
483.74	8676.37
483.92	8830.84
484.10	8681.05
484.28	9055.53
484.46	9137.45
484.64	9249.80
484.82	8877.65
485.00	9008.72
485.18	9362.14
485.35	9289.59
485.53	9275.54
485.71	9439.38
485.89	9483.85
486.07	9554.07
486.25	9607.90
486.43	9584.49
486.61	9818.55
486.78	9825.57
486.96	9919.19
487.14	9884.08
487.32	10031.54
487.50	10033.88
487.68	10171.97
487.85	10455.17
488.03	10492.62
488.21	10394.32
488.39	10569.86
488.57	10499.64
488.75	10593.26
488.92	11014.56
489.10	10892.85
489.28	11054.35
489.46	11183.08
489.64	11150.31
489.81	11201.80
489.99	11162.01
490.17	11353.94
490.35	11218.19
490.53	11468.62
490.70	11566.93
490.88	11482.67
491.06	11730.76
491.24	11763.53
491.41	11733.11
491.59	11690.98
491.77	11985.88
491.95	12102.91
492.13	12102.91
492.30	12388.46
492.48	12341.64
492.66	12315.90
492.84	12243.34
493.01	12505.48
493.19	12477.40
493.37	12762.94
493.54	12706.77
493.72	12809.75
493.90	12723.15
494.08	12886.99
494.25	13111.68
494.43	13170.19
494.61	13458.08
494.79	13273.18
494.96	13336.37
495.14	13191.26
495.32	13362.12
495.49	13437.02
495.67	13551.70
495.85	13722.56
496.02	13818.52
496.20	13846.61
496.38	13785.76
496.55	13647.66
496.73	14164.92
496.91	14319.40
497.09	14216.41
497.26	14045.55
497.44	14190.67
497.62	14478.55
497.79	14438.76
497.97	14541.75
498.14	14733.67
498.32	15063.69
498.50	14927.94
498.67	14885.81
498.85	14918.57
499.03	14813.25
499.20	14920.92
499.38	14967.73
499.56	15138.58
499.73	15000.49
499.91	15569.24
500.08	15440.51
500.26	15056.67
500.44	15204.12
500.61	15555.20
500.79	15466.26
500.97	15817.34
501.14	15714.36
501.32	15761.17
501.49	15735.42
501.67	15681.59
501.84	15838.41
502.02	15786.91
502.20	15941.39
502.37	16339.28
502.55	16016.29
502.72	16187.14
502.90	16156.72
503.07	16100.55
503.25	16065.44
503.43	16067.78
503.60	16367.37
503.78	16545.25
503.95	16650.57
504.13	16610.78
504.30	16510.14
504.48	16313.53
504.65	16844.84
504.83	16903.35
505.01	16994.63
505.18	16940.80
505.36	17224.00
505.53	16793.34
505.71	16915.05
505.88	17083.57
506.06	16989.95
506.23	17291.88
506.41	17273.15
506.58	17280.18
506.76	17195.92
506.93	17483.80
507.11	17598.49
507.28	17701.47
507.46	17214.64
507.63	17504.87
507.81	17624.23
507.98	17923.82
508.16	17652.32
508.33	17771.69
508.50	17797.43
508.68	18026.81
508.85	18242.14
509.03	18017.44
509.20	18108.72
509.38	18405.97
509.55	18389.59
509.73	18375.55
509.90	18427.04
510.08	18417.68
510.25	18520.66
510.42	18948.98
510.60	18625.98
510.77	18764.07
510.95	18705.56
511.12	18455.12
511.30	18588.53
511.47	18750.03
511.64	18567.47
511.82	19140.90
511.99	19049.62
512.17	18930.25
512.34	18780.46
512.51	19339.85
512.69	19190.05
512.86	19178.35
513.04	19307.08
513.21	19424.11
513.38	19325.80
513.56	19477.94
513.73	19126.86
513.90	19548.15
514.08	19421.77
514.25	19314.10
514.43	19880.51
514.60	19609.01
514.77	19847.74
514.95	19740.08
515.12	19686.25
515.29	20020.94
515.47	20011.58
515.64	19873.49
515.81	20196.48
515.99	20210.53
516.16	20336.91
516.33	20301.81
516.51	20229.25
516.68	20442.24
516.85	20259.68
517.03	20175.42
517.20	20357.98
517.37	20184.78
517.54	20489.05
517.72	20503.09
517.89	20210.53
518.06	20648.21
518.24	20545.22
518.41	20788.64
518.58	20627.14
518.75	20875.24
518.93	21001.63
519.10	20489.05
519.27	20589.69
519.45	20889.28
519.62	20753.53
519.79	20678.63
519.96	21062.48
520.14	20989.92
520.31	21104.61
520.48	21259.09
520.65	20790.98
520.83	21397.18
521.00	21263.77
521.17	21369.09
521.34	21186.53
521.52	21553.99
521.69	21680.38
521.86	22026.78
522.03	21645.27
522.20	21593.78
522.38	21415.90
522.55	21535.27
522.72	21572.72
522.89	21673.36
523.07	22092.32
523.24	21909.75
523.41	22089.98
523.58	21916.78
523.75	21832.52
523.92	21846.56
524.10	22001.04
524.27	22445.74
524.44	22232.75
524.61	22424.67
524.78	22354.46
524.96	22183.60
525.13	22595.53
525.30	22527.66
525.47	22532.34
525.64	22661.07
525.81	22672.77
525.98	22764.05
526.16	22574.47
526.33	22747.67
526.50	22897.46
526.67	22480.85
526.84	22792.14
527.01	22885.76
527.18	22909.16
527.36	23091.73
527.53	22977.04
527.70	23070.66
527.87	23311.74
528.04	22991.08
528.21	23309.40
528.38	22684.47
528.55	23269.61
528.72	23154.92
528.89	23339.82
529.07	23344.50
529.24	23178.33
529.41	23367.91
529.58	23604.30
529.75	23215.77
529.92	23302.37
530.09	23594.94
530.26	23309.40
530.43	23690.90
530.60	23749.42
530.77	23477.91
530.94	23700.26
531.11	23714.31
531.28	23831.33
531.46	23697.92
531.63	23534.09
531.80	23854.74
531.97	24163.69
532.14	24053.69
532.31	23939.00
532.48	23920.28
532.65	24229.23
532.82	23826.65
532.99	24030.28
533.16	24196.46
533.33	24285.40
533.50	24528.81
533.67	24063.05
533.84	24196.46
534.01	23934.32
534.18	24563.92
534.35	24814.36
534.52	23950.70
534.69	24758.19
534.86	24261.99
535.03	24409.45
535.20	24690.31
535.37	24486.68
535.54	24748.82
535.71	24568.60
535.88	24341.57
536.05	24737.12
536.22	25006.28
536.38	24907.98
536.55	25263.74
536.72	24755.85
536.89	24755.85
537.06	24854.15
537.23	25029.69
537.40	24737.12
537.57	24877.55
537.74	24760.53
537.91	25397.15
538.08	24842.45
538.25	24957.13
538.42	25132.67
538.59	25123.31
538.75	25092.88
538.92	25057.78
539.09	25139.69
539.26	25303.53
539.43	25193.53
539.60	25530.56
539.77	25549.29
539.94	25336.30
540.11	25565.67
540.28	25207.57
540.44	25310.55
540.61	25216.93
540.78	25345.66
540.95	25769.30
541.12	25586.74
541.29	25631.21
541.46	25806.75
541.62	25912.07
541.79	25490.77
541.96	25408.86
542.13	25869.94
542.30	25816.11
542.47	26017.40
542.63	25776.32
542.80	25968.24
542.97	26068.89
543.14	26082.93
543.31	26008.03
543.48	26129.74
543.64	26071.23
543.81	26176.55
543.98	26426.99
544.15	26314.64
544.32	26291.24
544.48	27042.55
544.65	26270.17
544.82	26508.91
544.99	26141.44
545.16	26450.39
545.32	26761.69
545.49	26885.73
545.66	26771.05
545.83	26473.80
546.00	26810.84
546.16	26813.18
546.33	26497.20
546.50	26183.57
546.67	26991.06
546.83	26412.95
547.00	26899.78
547.17	27054.25
547.34	26991.06
547.50	26808.50
547.67	27246.18
547.84	27042.55
548.00	26897.44
548.17	26855.31
548.34	27070.64
548.51	27328.10
548.67	27342.14
548.84	27295.33
549.01	27161.92
549.18	27138.51
549.34	27206.39
549.51	27002.76
549.68	27070.64
549.84	27278.94
550.01	27550.45
550.18	27171.28
550.34	27342.14
550.51	27456.82
550.68	27505.98
550.84	27218.09
551.01	27669.81
551.18	27304.69
551.34	27417.04
551.51	27438.10
551.68	27697.90
551.84	27484.91
552.01	27733.01
552.18	27594.92
552.34	27917.91
552.51	27896.85
552.68	27328.10
552.84	27431.08
553.01	27548.11
553.18	27730.67
553.34	27810.25
553.51	27669.81
553.67	27796.20
553.84	27730.67
554.01	27716.62
554.17	27653.43
554.34	27733.01
554.51	27641.73
554.67	27765.78
554.84	27924.93
555.00	28161.33
555.17	27714.28
555.33	27805.56
555.50	27967.06
555.67	27931.95
555.83	28065.36
556.00	28231.54
556.16	28299.42
556.33	28051.32
556.50	28119.20
556.66	27941.32
556.83	27922.59
556.99	28212.82
557.16	28760.50
557.32	28229.20
557.49	28889.23
557.65	28250.27
557.82	28357.93
557.98	28444.53
558.15	28226.86
558.32	28561.56
558.48	28465.60
558.65	28416.44
558.81	28311.12
558.98	28320.48
559.14	28484.32
559.31	28379.00
559.47	28034.94
559.64	28266.65
559.80	28479.64
559.97	28491.34
560.13	28271.33
560.30	28732.42
560.46	28767.52
560.63	28446.87
560.79	28879.87
560.96	28786.25
561.12	28730.08
561.29	28276.01
561.45	28926.68
561.61	28655.18
561.78	28807.31
561.94	28701.99
562.11	29039.03
562.27	28896.25
562.44	29076.48
562.60	28542.83
562.77	28481.98
562.93	28479.64
563.10	29097.54
563.26	29095.20
563.42	29261.38
563.59	29032.00
563.75	28687.95
563.92	28823.70
564.08	28858.81
564.24	28987.53
564.41	28912.64
564.57	28957.11
564.74	29085.84
564.90	29338.62
565.07	28996.90
565.23	29233.29
565.39	29010.94
565.56	28992.22
565.72	28917.32
565.88	28755.82
566.05	28877.53
566.21	29144.35
566.38	28816.68
566.54	29071.79
566.70	29280.10
566.87	29385.43
567.03	29130.31
567.19	29455.64
567.36	29116.26
567.52	28760.50
567.68	28964.13
567.85	29076.48
568.01	28978.17
568.17	28910.30
568.34	29469.69
568.50	29329.25
568.66	29261.38
568.83	29261.38
568.99	29329.25
569.15	29343.30
569.32	29053.07
569.48	29621.82
569.64	29434.58
569.81	29362.02
569.97	29125.63
570.13	29350.32
570.30	29303.51
570.46	29565.65
570.62	29490.75
570.78	29181.80
570.95	29345.64
571.11	29252.02
571.27	29174.78
571.43	29034.35
571.60	29411.17
571.76	29420.53
571.92	29600.76
572.09	29766.93
572.25	29338.62
572.41	29703.74
572.57	29223.93
572.74	29701.40
572.90	29362.02
573.06	29097.54
573.22	29029.66
573.38	29497.77
573.55	29696.72
573.71	30045.46
573.87	29703.74
574.03	29493.09
574.20	29413.51
574.36	29493.09
574.52	29699.06
574.68	29153.71
574.84	29729.48
575.01	29586.71
575.17	29570.33
575.33	29546.92
575.49	29862.90
575.65	29773.95
575.82	29507.13
575.98	29132.65
576.14	29893.32
576.30	29670.97
576.46	29376.06
576.62	29872.26
576.79	29507.13
576.95	29289.46
577.11	29734.17
577.27	29600.76
577.43	29949.50
577.59	29663.95
577.75	29745.87
577.92	29614.80
578.08	29577.35
578.24	29453.30
578.40	29474.37
578.56	29579.69
578.72	29607.78
578.88	29748.21
579.04	29708.42
579.21	29703.74
579.37	30204.61
579.53	29507.13
579.69	29582.03
579.85	29640.54
580.01	29523.52
580.17	29331.59
580.33	29727.14
580.49	29411.17
580.65	29685.01
580.82	29867.58
580.98	29954.18
581.14	29614.80
581.30	29642.88
581.46	29537.56
581.62	29565.65
581.78	29783.32
581.94	29626.50
582.10	29649.91
582.26	29701.40
582.42	29860.55
582.58	29551.60
582.74	29914.39
582.90	29649.91
583.06	29989.28
583.22	29675.65
583.38	29579.69
583.54	29598.41
583.70	30078.22
583.86	29502.45
584.02	29350.32
584.18	29785.66
584.34	30101.63
584.50	29696.72
584.66	29717.78
584.82	29666.29
584.98	29986.94
585.14	29598.41
585.30	29788.00
585.46	29738.85
585.62	29802.04
585.78	29968.22
585.94	29640.54
586.10	29729.48
586.26	30008.01
586.42	29926.09
586.58	29944.81
586.74	29549.26
586.90	29399.47
587.06	29364.36
587.22	29968.22
587.38	30000.99
587.54	29649.91
587.70	30050.14
587.86	30129.72
588.02	29846.51
588.18	30382.49
588.34	29956.52
588.49	29972.90
588.65	29628.84
588.81	29668.63
588.97	29905.02
589.13	30003.33
589.29	29656.93
589.45	29919.07
589.61	30071.20
589.77	29991.62
589.93	30433.99
590.08	30511.22
590.24	30450.37
590.40	30171.85
590.56	30008.01
590.72	29926.09
590.88	30017.37
591.04	30118.01
591.20	30120.35
591.35	30492.50
591.51	30436.33
591.67	30164.82
591.83	30419.94
591.99	30265.47
592.15	30267.81
592.31	30199.93
592.46	29722.46
592.62	29961.20
592.78	29942.47
592.94	30307.60
593.10	29982.26
593.26	30345.05
593.41	30426.96
593.57	30206.95
593.73	29982.26
593.89	30403.56
594.05	30277.17
594.20	30354.41
594.36	29984.60
594.52	30218.66
594.68	30221.00
594.84	30038.44
594.99	30260.79
595.15	30232.70
595.31	30576.76
595.47	30321.64
595.62	30422.28
595.78	30057.16
595.94	29944.81
596.10	30389.52
596.25	30246.74
596.41	30204.61
596.57	30078.22
596.73	30197.59
596.88	29979.92
597.04	30286.53
597.20	30469.09
597.36	30803.79
597.51	30366.11
597.67	30333.34
597.83	30291.21
597.99	30113.33
598.14	30277.17
598.30	30181.21
598.46	30026.73
598.61	30251.42
598.77	30096.95
598.93	30539.31
599.09	30595.48
599.24	30309.94
599.40	30452.71
599.56	30499.52
599.71	30338.02
599.87	30534.63
600.03	30129.72
600.18	30419.94
600.34	30209.29
600.50	30211.64
600.65	30541.65
600.81	30487.82
600.97	30534.63
601.12	30422.28
601.28	30487.82
601.44	30286.53
601.59	30464.41
601.75	30251.42
601.91	30637.61
602.06	30855.28
602.22	30501.86
602.37	30038.44
602.53	30356.75
602.69	30724.21
602.84	30171.85
603.00	30663.36
603.16	30625.91
603.31	30651.66
603.47	30295.89
603.62	30363.77
603.78	30726.55
603.94	30562.72
604.09	30012.69
604.25	30195.25
604.40	29989.28
604.56	30646.97
604.71	30675.06
604.87	30319.30
605.03	30426.96
605.18	30192.91
605.34	30822.51
605.49	29713.10
605.65	30312.28
605.80	29944.81
605.96	30375.47
606.12	30473.78
606.27	30323.98
606.43	30223.34
606.58	30700.81
606.74	30225.68
606.89	30415.26
607.05	30532.29
607.20	30267.81
607.36	30309.94
607.51	30118.01
607.67	30284.19
607.82	30057.16
607.98	30015.03
608.13	29986.94
608.29	30213.98
608.44	30087.59
608.60	30417.60
608.75	30267.81
608.91	30621.23
609.06	30103.97
609.22	30253.76
609.37	29799.70
609.53	30052.48
609.68	30455.05
609.84	29963.54
609.99	30218.66
610.15	30022.05
610.30	29942.47
610.46	30078.22
610.61	30211.64
610.76	30251.42
610.92	29998.65
611.07	30057.16
611.23	30199.93
611.38	29902.68
611.54	29951.84
611.69	29654.59
611.84	30059.50
612.00	30120.35
612.15	29670.97
612.31	30146.10
612.46	29729.48
612.62	29865.24
612.77	29783.32
612.92	30188.23
613.08	29879.28
613.23	29914.39
613.39	30066.52
613.54	29778.64
613.69	29860.55
613.85	30232.70
614.00	29474.37
614.15	29954.18
614.31	30047.80
614.46	30015.03
614.62	29745.87
614.77	29509.47
614.92	29972.90
615.08	29661.61
615.23	29876.94
615.38	29867.58
615.54	29706.08
615.69	29912.05
615.84	29219.25
616.00	29865.24
616.15	29259.04
616.30	29722.46
616.46	29013.28
616.61	30045.46
616.76	29734.17
616.92	30019.71
617.07	29546.92
617.22	29476.71
617.37	29277.76
617.53	29687.36
617.68	29254.36
617.83	29497.77
617.99	29378.40
618.14	29282.44
618.29	29858.21
618.45	29378.40
618.60	29347.98
618.75	29483.73
618.90	29593.73
619.06	29476.71
619.21	29455.64
619.36	29385.43
619.51	29282.44
619.67	28940.72
619.82	29301.17
619.97	29008.60
620.12	28837.74
620.28	29043.71
620.43	29205.20
620.58	29378.40
620.73	28926.68
620.89	29003.92
621.04	29439.26
621.19	29146.69
621.34	29556.28
621.49	28931.36
621.65	29153.71
621.80	29399.47
621.95	28666.88
622.10	29256.70
622.25	29032.00
622.41	28676.24
622.56	29310.53
622.71	29013.28
622.86	29034.35
623.01	28912.64
623.16	28788.59
623.32	28772.21
623.47	28804.97
623.62	28603.69
623.77	28912.64
623.92	29125.63
624.07	28769.86
624.23	28568.58
624.38	29032.00
624.53	28861.15
624.68	28753.48
624.83	29032.00
624.98	29195.84
625.13	28940.72
625.29	28989.88
625.44	29017.96
625.59	28362.61
625.74	28650.50
625.89	28652.84
626.04	28489.00
626.19	28264.31
626.34	28032.60
626.49	28203.46
626.65	28339.21
626.80	28634.11
626.95	28411.76
627.10	28414.10
627.25	28804.97
627.40	27941.32
627.55	28493.68
627.70	28643.48
627.85	28283.03
628.00	28283.03
628.15	28114.52
628.30	28283.03
628.45	28231.54
628.60	28105.15
628.76	28208.14
628.91	28222.18
629.06	28243.24
629.21	28182.39
629.36	28371.97
629.51	28285.37
629.66	28517.09
629.81	28271.33
629.96	28077.07
630.11	28238.56
630.26	27618.32
630.41	27718.96
630.56	27995.15
630.71	28025.57
630.86	28126.22
631.01	28147.28
631.16	27812.59
631.31	28158.99
631.46	27789.18
631.61	27812.59
631.76	27768.12
631.91	27702.58
632.06	28123.88
632.21	27566.83
632.36	27730.67
632.51	27840.67
632.66	27763.43
632.81	27782.16
632.96	27658.11
633.10	27681.52
633.25	28002.17
633.40	28161.33
633.55	28032.60
633.70	27194.68
633.85	27627.68
634.00	27419.38
634.15	27545.76
634.30	27725.99
634.45	27793.86
634.60	27662.79
634.75	27686.20
634.90	27386.61
635.05	27756.41
635.19	27164.26
635.34	27777.48
635.49	27641.73
635.64	27655.77
635.79	27676.83
635.94	27491.93
636.09	27496.61
636.24	27424.06
636.39	26859.99
636.53	27363.20
636.68	27466.19
636.83	27562.15
636.98	27562.15
637.13	27143.19
637.28	27421.72
637.43	27447.46
637.57	27232.13
637.72	27501.29
637.87	27323.41
638.02	27220.43
638.17	27042.55
638.32	27087.02
638.46	27063.61
638.61	27007.44
638.76	26862.33
638.91	26951.27
639.06	26841.26
639.20	27161.92
639.35	27061.27
639.50	27274.26
639.65	27115.11
639.80	27524.70
639.94	27122.13
640.09	27091.70
640.24	26817.86
640.39	26588.49
640.54	26682.11
640.68	27033.19
640.83	26712.53
640.98	26820.20
641.13	26347.41
641.27	26757.00
641.42	26597.85
641.57	26724.24
641.72	26644.66
641.86	26836.58
642.01	26661.04
642.16	26977.01
642.31	26328.69
642.45	26754.66
642.60	26347.41
642.75	26448.05
642.90	26214.00
643.04	26452.73
643.19	26101.65
643.34	26506.57
643.48	26721.90
643.63	26703.17
643.78	26766.37
643.93	26429.33
644.07	26422.31
644.22	27056.59
644.37	26314.64
644.51	26848.29
644.66	26532.31
644.81	26307.62
644.95	26352.09
645.10	26279.54
645.25	26242.09
645.39	26141.44
645.54	26279.54
645.69	26047.82
645.83	26356.77
645.98	26281.88
646.13	26094.63
646.27	26249.11
646.42	26214.00
646.57	26625.93
646.71	26129.74
646.86	26005.69
647.00	26366.13
647.15	26129.74
647.30	26122.72
647.44	25883.98
647.59	26246.77
647.74	25916.75
647.88	25970.58
648.03	26237.41
648.17	26480.82
648.32	26352.09
648.47	26185.91
648.61	25979.95
648.76	26368.48
648.90	26043.14
649.05	26031.44
649.20	25755.26
649.34	26099.31
649.49	25750.57
649.63	25778.66
649.78	25773.98
649.92	25811.43
650.07	25788.02
650.21	25862.92
650.36	25776.32
650.51	25743.55
650.65	25467.37
650.80	25804.41
650.94	25635.89
651.09	25682.70
651.23	25539.93
651.38	25834.83
651.52	25481.41
651.67	25647.59
651.81	25649.93
651.96	25605.46
652.10	25483.75
652.25	25659.29
652.39	25458.01
652.54	25631.21
652.68	25804.41
652.83	25710.78
652.97	25937.82
653.12	25605.46
653.26	25436.94
653.41	25216.93
653.55	25305.87
653.70	25174.80
653.84	25202.89
653.99	25345.66
654.13	25350.34
654.27	25221.61
654.42	25216.93
654.56	25214.59
654.71	25474.39
654.85	25336.30
655.00	25362.04
655.14	25352.68
655.29	25406.52
655.43	25127.99
655.57	25474.39
655.72	25172.46
655.86	25245.02
656.01	25308.21
656.15	24994.58
656.30	25163.10
656.44	24805.00
656.58	25238.00
656.73	24875.21
656.87	25043.73
657.01	24783.93
657.16	25256.72
657.30	25064.80
657.45	24865.85
657.59	24893.94
657.73	24898.62
657.88	25120.97
658.02	25032.03
658.16	24755.85
658.31	24905.64
658.45	24744.14
658.60	24652.86
658.74	24851.81
658.88	24526.47
659.03	24355.61
659.17	24388.38
659.31	24805.00
659.46	24474.98
659.60	24687.97
659.74	24889.26
659.89	24711.38
660.03	24400.08
660.17	24556.90
660.32	24570.94
660.46	24285.40
660.60	24376.68
660.74	24212.84
660.89	24166.03
661.03	23892.19
661.17	24283.06
661.32	24100.50
661.46	24367.32
661.60	24315.83
661.74	24126.24
661.89	24311.14
662.03	24425.83
662.17	24367.32
662.31	24098.16
662.46	23927.30
662.60	24034.96
662.74	23630.05
662.88	23976.45
663.03	23667.50
663.17	23688.56
663.31	23517.70
663.45	23452.17
663.60	23749.42
663.74	23681.54
663.88	23976.45
664.02	23627.71
664.17	23693.24
664.31	23314.08
664.45	23981.13
664.59	23761.12
664.73	23578.56
664.88	23655.79
665.02	23470.89
665.16	23372.59
665.30	23433.44
665.44	23185.35
665.59	23077.68
665.73	23412.38
665.87	23126.83
666.01	23311.74
666.15	23398.34
666.29	22881.08
666.44	23379.61
666.58	23040.23
666.72	23183.01
666.86	23056.62
667.00	23206.41
667.14	23119.81
667.28	23073.00
667.43	22960.66
667.57	22972.36
667.71	22810.86
667.85	22773.41
667.99	22597.87
668.13	22852.99
668.27	22735.96
668.41	23080.02
668.56	22757.03
668.70	22665.75
668.84	22864.69
668.98	22625.96
669.12	22871.72
669.26	22593.19
669.40	22555.74
669.54	22157.85
669.68	22527.66
669.82	22497.23
669.96	22427.01
670.10	22106.36
670.25	22438.72
670.39	22302.96
670.53	21933.16
670.67	22349.78
670.81	22209.34
670.95	22312.33
671.09	22129.77
671.23	22235.09
671.37	22288.92
671.51	22190.62
671.65	22235.09
671.79	21923.80
671.93	22118.06
672.07	22104.02
672.21	21825.50
672.35	21530.59
672.49	21879.33
672.63	21404.20
672.77	21570.38
672.91	21455.69
673.05	21359.73
673.19	21598.46
673.33	21273.13
673.47	21205.25
673.61	21514.20
673.75	21472.07
673.89	21390.16
674.03	21256.75
674.17	21156.10
674.31	21032.05
674.45	21111.63
674.59	21149.08
674.73	21146.74
674.87	21081.21
675.01	21198.23
675.15	20858.85
675.29	20638.84
675.43	20699.70
675.56	20908.01
675.70	20760.55
675.84	20472.67
675.98	20561.61
676.12	20772.25
676.26	20854.17
676.40	20603.74
676.54	20442.24
676.68	20692.68
676.82	20051.37
676.96	20243.29
677.10	20238.61
677.23	20177.76
677.37	20198.82
677.51	19974.13
677.65	20187.12
677.79	19775.19
677.93	19866.47
678.07	19866.47
678.21	19857.10
678.34	19536.45
678.48	19686.25
678.62	19667.52
678.76	19297.72
678.90	19168.99
679.04	19545.81
679.18	19377.30
679.31	19248.57
679.45	19185.37
679.59	19309.42
679.73	19138.56
679.87	18981.74
680.00	19058.98
680.14	18853.02
680.28	18876.42
680.42	18951.32
680.56	18927.91
680.70	18941.96
680.83	18726.63
680.97	18787.48
681.11	18771.10
681.25	18483.21
681.39	18752.37
681.52	18534.70
681.66	18609.60
681.80	18183.62
681.94	18204.69
682.07	18312.35
682.21	18335.76
682.35	18115.75
682.49	17972.97
682.62	18108.72
682.76	18001.06
682.90	18192.98
683.04	18143.83
683.17	17806.80
683.31	17987.02
683.45	17996.38
683.59	17376.14
683.72	17493.16
683.86	17326.99
684.00	17451.03
684.13	17392.52
684.27	17495.50
684.41	17233.36
684.55	17205.28
684.68	17177.19
684.82	17125.70
684.96	17116.34
685.09	17081.23
685.23	16992.29
685.37	16945.48
685.50	17076.55
685.64	16889.31
685.78	17029.74
685.91	16872.92
686.05	16985.27
686.19	16662.27
686.32	16643.55
686.46	16589.72
686.60	16456.31
686.73	16500.78
686.87	16390.77
687.01	16308.85
687.14	16046.71
687.28	15903.94
687.42	16154.38
687.55	16168.42
687.69	16084.16
687.82	15962.45
687.96	16177.78
688.10	15868.83
688.23	15995.22
688.37	15609.03
688.50	15754.15
688.64	15983.52
688.78	15756.49
688.91	15552.86
689.05	15693.29
689.18	15417.11
689.32	15419.45
689.46	15398.38
689.59	15267.31
689.73	15260.29
689.86	15314.13
690.00	15068.37
690.13	15232.21
690.27	15101.14
690.41	15220.50
690.54	14637.71
690.68	15049.64
690.81	14883.47
690.95	15110.50
691.08	15037.94
691.22	14834.32
691.35	14719.63
691.49	14796.87
691.62	14764.10
691.76	14518.34
691.89	14621.33
692.03	14146.20
692.16	14260.88
692.30	14307.69
692.43	14256.20
692.57	14050.24
692.70	14068.96
692.84	13909.80
692.97	13884.06
693.11	14260.88
693.24	14054.92
693.38	14047.90
693.51	13982.36
693.65	13788.10
693.78	13577.45
693.92	13778.73
694.05	14061.94
694.19	13638.30
694.32	13518.93
694.45	13668.73
694.59	13139.77
694.72	13397.23
694.86	13209.98
694.99	13062.53
695.13	13111.68
695.26	13132.75
695.39	13004.02
695.53	13057.85
695.66	12931.46
695.80	12971.25
695.93	13020.40
696.07	13076.57
696.20	13025.08
696.33	12858.90
696.47	12875.29
696.60	12826.14
696.73	12812.09
696.87	12788.69
697.00	12479.74
697.14	12297.17
697.27	12404.84
697.40	12395.48
697.54	12226.96
697.67	12285.47
697.80	12114.61
697.94	12184.83
698.07	12123.98
698.21	11894.60
698.34	12306.54
698.47	12273.77
698.61	11840.77
698.74	12088.87
698.87	12088.87
699.01	11889.92
699.14	11845.45
699.27	11744.81
699.40	11625.44
699.54	11719.06
699.67	11475.65
699.80	11686.29
699.94	11309.47
700.07	11559.91
700.20	11316.49
700.34	11110.52
700.47	11084.78
700.60	11314.15
700.73	11126.91
700.87	11279.04
701.00	11103.50
701.13	11040.31
701.26	10951.37
701.40	11019.24
701.53	10771.15
701.66	10808.59
701.79	10731.36
701.93	10949.03
702.06	10736.04
702.19	10675.18
702.32	10614.33
702.46	10555.82
702.59	10532.41
702.72	10328.78
702.85	10480.92
702.99	10469.22
703.12	10406.02
703.25	10450.49
703.38	10237.50
703.51	10209.42
703.65	10169.63
703.78	10143.88
703.91	10118.14
704.04	10221.12
704.17	10066.64
704.31	9968.34
704.44	10008.13
704.57	9923.87
704.70	9935.57
704.83	9771.74
704.96	9778.76
705.10	9547.05
705.23	9507.26
>>>>>End Processed Spectral Data<<<<<
