SpectraSuite Data File
++++++++++++++++++++++++++++++++++++
Date: Fri Oct 18 13:57:59 GMT-05:00 2013
User: bianchi
Dark Spectrum Present: No
Reference Spectrum Present: No
Number of Sampled Component Spectra: 1
Spectrometers: USB2+H05261
Integration Time (usec): 50000 (USB2+H05261)
Spectra Averaged: 1 (USB2+H05261)
Boxcar Smoothing: 0 (USB2+H05261)
Correct for Electrical Dark: No (USB2+H05261)
Strobe/Lamp Enabled: No (USB2+H05261)
Correct for Detector Non-linearity: No (USB2+H05261)
Correct for Stray Light: No (USB2+H05261)
Number of Pixels in Processed Spectrum: 2048
>>>>>Begin Processed Spectral Data<<<<<
365.73	0.00
365.92	0.00
366.12	0.00
366.32	0.00
366.52	0.00
366.72	0.00
366.91	0.00
367.11	0.00
367.31	0.00
367.51	0.00
367.70	0.00
367.90	0.00
368.10	0.00
368.30	0.00
368.49	0.00
368.69	0.00
368.89	0.00
369.09	0.00
369.28	0.00
369.48	0.00
369.68	0.00
369.87	0.00
370.07	0.00
370.27	0.00
370.47	0.00
370.66	42.13
370.86	114.69
371.06	140.43
371.25	217.67
371.45	140.43
371.65	212.99
371.84	67.88
372.04	147.45
372.24	105.32
372.44	121.71
372.63	100.64
372.83	264.48
373.03	236.39
373.22	227.03
373.42	217.67
373.62	114.69
373.81	283.20
374.01	203.63
374.21	187.24
374.40	196.60
374.60	227.03
374.79	173.20
374.99	205.97
375.19	315.97
375.38	201.29
375.58	212.99
375.78	330.02
375.97	285.55
376.17	348.74
376.37	276.18
376.56	231.71
376.76	215.33
376.95	257.46
377.15	278.52
377.35	287.89
377.54	313.63
377.74	208.31
377.93	234.05
378.13	308.95
378.33	360.44
378.52	264.48
378.72	318.31
378.91	255.12
379.11	297.25
379.31	238.73
379.50	294.91
379.70	322.99
379.89	297.25
380.09	374.49
380.28	339.38
380.48	266.82
380.68	311.29
380.87	257.46
381.07	280.86
381.26	304.27
381.46	301.93
381.65	330.02
381.85	358.10
382.04	276.18
382.24	330.02
382.43	355.76
382.63	332.36
382.83	297.25
383.02	381.51
383.22	374.49
383.41	388.53
383.61	362.78
383.80	425.98
384.00	393.21
384.19	365.12
384.39	327.68
384.58	372.15
384.78	477.47
384.97	463.43
385.17	381.51
385.36	294.91
385.56	379.17
385.75	416.62
385.95	397.89
386.14	407.25
386.34	337.04
386.53	435.34
386.72	341.72
386.92	402.57
387.11	428.32
387.31	381.51
387.50	428.32
387.70	463.43
387.89	390.87
388.09	430.66
388.28	423.64
388.48	400.23
388.67	444.70
388.86	430.66
389.06	493.85
389.25	547.69
389.45	440.02
389.64	505.56
389.84	447.04
390.03	468.11
390.22	454.06
390.42	554.71
390.61	566.41
390.81	545.34
391.00	470.45
391.19	528.96
391.39	512.58
391.58	528.96
391.78	500.87
391.97	550.03
392.16	545.34
392.36	531.30
392.55	601.52
392.75	519.60
392.94	463.43
393.13	552.37
393.33	545.34
393.52	538.32
393.71	543.00
393.91	671.73
394.10	533.64
394.29	601.52
394.49	524.28
394.68	547.69
394.88	622.58
395.07	589.82
395.26	622.58
395.46	585.13
395.65	683.44
395.84	559.39
396.04	613.22
396.23	678.76
396.42	559.39
396.62	746.63
396.81	643.65
397.00	676.41
397.19	657.69
397.39	676.41
397.58	685.78
397.77	641.31
397.97	723.23
398.16	695.14
398.35	695.14
398.55	685.78
398.74	730.25
398.93	772.38
399.12	786.42
399.32	786.42
399.51	697.48
399.70	791.10
399.90	758.33
400.09	805.14
400.28	741.95
400.47	648.33
400.67	798.12
400.86	798.12
401.05	805.14
401.24	802.80
401.44	898.77
401.63	774.72
401.82	784.08
402.01	816.85
402.21	807.48
402.40	800.46
402.59	760.67
402.78	896.43
402.97	882.38
403.17	842.59
403.36	863.66
403.55	880.04
403.74	880.04
403.93	987.71
404.13	919.83
404.32	880.04
404.51	828.55
404.70	933.87
404.89	999.41
405.09	1097.71
405.28	971.32
405.47	987.71
405.66	931.53
405.85	936.21
406.05	1055.58
406.24	1008.77
406.43	1034.52
406.62	1100.05
406.81	1071.97
407.00	987.71
407.20	983.02
407.39	1076.65
407.58	1100.05
407.77	1107.07
407.96	1116.44
408.15	1083.67
408.34	1144.52
408.54	1118.78
408.73	1170.27
408.92	1153.88
409.11	1118.78
409.30	1167.93
409.49	1118.78
409.68	1214.74
409.87	1205.38
410.07	1198.35
410.26	1210.06
410.45	1221.76
410.64	1212.40
410.83	1193.67
411.02	1245.16
411.21	1301.34
411.40	1273.25
411.59	1331.76
411.78	1352.83
411.98	1254.53
412.17	1299.00
412.36	1320.06
412.55	1329.42
412.74	1366.87
412.93	1437.09
413.12	1355.17
413.31	1465.18
413.50	1373.89
413.69	1425.39
413.88	1542.41
414.07	1439.43
414.26	1483.90
414.45	1495.60
414.64	1514.33
414.83	1523.69
415.02	1563.48
415.22	1462.83
415.41	1483.90
415.60	1593.90
415.79	1643.06
415.98	1593.90
416.17	1664.12
416.36	1514.33
416.55	1652.42
416.74	1699.23
416.93	1671.14
417.12	1680.50
417.31	1706.25
417.50	1682.85
417.69	1657.10
417.88	1753.06
418.07	1802.21
418.26	1806.89
418.45	1785.83
418.64	1813.92
418.83	1928.60
419.02	1865.41
419.21	1879.45
419.39	1863.07
419.58	1867.75
419.77	1757.74
419.96	1914.56
420.15	2001.16
420.34	1893.49
420.53	1898.17
420.72	1975.41
420.91	1893.49
421.10	2059.67
421.29	1956.69
421.48	1820.94
421.67	1916.90
421.86	1973.07
422.05	1975.41
422.24	1884.13
422.43	2024.56
422.61	2092.44
422.80	2092.44
422.99	2073.71
423.18	2050.31
423.37	2113.50
423.56	2047.97
423.75	2040.95
423.94	2033.93
424.13	1907.54
424.32	1914.56
424.50	2033.93
424.69	2172.02
424.88	2092.44
425.07	2071.37
425.26	2024.56
425.45	2141.59
425.64	2047.97
425.83	2071.37
426.01	2141.59
426.20	2104.14
426.39	2024.56
426.58	1998.82
426.77	2132.23
426.96	2235.21
427.15	2139.25
427.33	2111.16
427.52	2183.72
427.71	2162.66
427.90	2218.83
428.09	2207.13
428.28	2232.87
428.46	2134.57
428.65	2270.32
428.84	2291.38
429.03	2317.13
429.22	2202.44
429.40	2403.73
429.59	2370.96
429.78	2216.49
429.97	2244.57
430.16	2228.19
430.34	2370.96
430.53	2256.28
430.72	2462.24
430.91	2417.77
431.10	2307.77
431.28	2385.01
431.47	2450.54
431.66	2490.33
431.85	2448.20
432.03	2459.90
432.22	2499.69
432.41	2455.22
432.60	2448.20
432.79	2469.27
432.97	2464.58
433.16	2525.44
433.35	2544.16
433.54	2527.78
433.72	2593.31
433.91	2539.48
434.10	2511.39
434.28	2495.01
434.47	2607.36
434.66	2530.12
434.85	2607.36
435.03	2590.97
435.22	2644.81
435.41	2703.32
435.59	2677.57
435.78	2773.53
435.97	2693.96
436.16	2775.88
436.34	2787.58
436.53	2661.19
436.72	2801.62
436.90	2789.92
437.09	2869.50
437.28	2736.09
437.46	2696.30
437.65	2754.81
437.84	2818.00
438.02	2871.84
438.21	2888.22
438.40	2895.24
438.58	2911.63
438.77	3000.57
438.96	2991.20
439.14	2984.18
439.33	3007.59
439.52	2993.55
439.70	3126.96
439.89	3143.34
440.08	3061.42
440.26	2946.73
440.45	2998.23
440.63	3169.09
440.82	3171.43
441.01	3122.27
441.19	3239.30
441.38	3229.94
441.57	3370.37
441.75	3435.91
441.94	3391.44
442.12	3276.75
442.31	3475.70
442.50	3276.75
442.68	3283.77
442.87	3428.88
443.05	3452.29
443.24	3344.63
443.43	3370.37
443.61	3588.04
443.80	3501.44
443.98	3316.54
444.17	3407.82
444.35	3424.20
444.54	3468.67
444.73	3517.83
444.91	3510.80
445.10	3522.51
445.28	3545.91
445.47	3471.01
445.65	3485.06
445.84	3531.87
446.02	3595.06
446.21	3447.61
446.39	3569.32
446.58	3566.98
446.77	3569.32
446.95	3412.50
447.14	3559.95
447.32	3538.89
447.51	3583.36
447.69	3581.02
447.88	3651.24
448.06	3604.42
448.25	3574.00
448.43	3648.90
448.62	3393.78
448.80	3431.23
448.99	3702.73
449.17	3583.36
449.36	3581.02
449.54	3740.18
449.73	3723.79
449.91	3721.45
450.10	3672.30
450.28	3803.37
450.46	3948.48
450.65	3824.44
450.83	3812.73
451.02	3882.95
451.20	3765.92
451.39	3892.31
451.57	3878.27
451.76	3840.82
451.94	3871.25
452.13	3859.54
452.31	3960.19
452.49	3836.14
452.68	3861.88
452.86	3868.91
453.05	4091.26
453.23	4138.07
453.42	4077.21
453.60	3894.65
453.78	3962.53
453.97	3948.48
454.15	4023.38
454.34	4004.66
454.52	4035.08
454.70	4114.66
454.89	4081.89
455.07	3985.93
455.26	4065.51
455.44	4014.02
455.62	4065.51
455.81	4039.76
455.99	4269.14
456.17	4219.99
456.36	4229.35
456.54	4332.33
456.73	4393.19
456.91	4540.64
457.09	4353.40
457.28	4425.95
457.46	4294.88
457.64	4447.02
457.83	4432.97
458.01	4402.55
458.19	4603.83
458.38	4402.55
458.56	4568.73
458.74	4493.83
458.93	4491.49
459.11	4592.13
459.29	4395.53
459.48	4744.27
459.66	4521.92
459.84	4629.58
460.03	4751.29
460.21	4573.41
460.39	4723.20
460.57	4627.24
460.76	4573.41
460.94	4847.25
461.12	4828.53
461.31	4739.58
461.49	4823.84
461.67	4667.03
461.85	4788.74
462.04	4779.37
462.22	5057.90
462.40	4718.52
462.59	4912.78
462.77	4788.74
462.95	4936.19
463.13	4931.51
463.32	4957.25
463.50	4880.02
463.68	5100.03
463.86	5022.79
464.05	4819.16
464.23	4926.83
464.41	5011.09
464.59	4992.36
464.78	4901.08
464.96	4924.49
465.14	4903.42
465.32	4980.66
465.50	5064.92
465.69	5118.75
465.87	5200.67
466.05	5114.07
466.23	5090.67
466.41	4983.00
466.60	5345.78
466.78	5102.37
466.96	5107.05
467.14	5018.11
467.32	5156.20
467.51	5305.99
467.69	5165.56
467.87	5289.61
468.05	5355.15
468.23	5261.52
468.41	5210.03
468.60	5420.68
468.78	5474.51
468.96	5273.23
469.14	5315.36
469.32	5423.02
469.50	5465.15
469.69	5385.57
469.87	5509.62
470.05	5490.90
470.23	5530.69
470.41	5589.20
470.59	5465.15
470.77	5516.64
470.95	5682.82
471.14	5727.29
471.32	5535.37
471.50	5947.30
471.68	5671.12
471.86	5626.65
472.04	5767.08
472.22	5839.64
472.40	5717.93
472.58	5884.11
472.77	5987.09
472.95	6015.18
473.13	5996.45
473.31	5912.19
473.49	5970.71
473.67	5923.90
473.85	6279.66
474.03	6106.46
474.21	6059.65
474.39	6171.99
474.57	6214.12
474.75	6347.53
474.93	6298.38
475.12	6345.19
475.30	6204.76
475.48	6298.38
475.66	6338.17
475.84	6361.58
476.02	6506.69
476.20	6457.54
476.38	6485.62
476.56	6623.72
476.74	6614.35
476.92	6754.79
477.10	6630.74
477.28	6703.29
477.46	6801.60
477.64	6850.75
477.82	7033.31
478.00	7047.35
478.18	7035.65
478.36	7185.44
478.54	7253.32
478.72	7288.43
478.90	7487.37
479.08	7318.86
479.26	7407.80
479.44	7592.70
479.62	7578.65
479.80	7620.78
479.98	7569.29
480.16	7737.81
480.34	7653.55
480.52	7588.02
480.70	7756.54
480.88	7798.66
481.06	7735.47
481.24	7894.63
481.41	8152.09
481.59	8229.32
481.77	8201.24
481.95	8187.19
482.13	8390.82
482.31	8285.50
482.49	8395.50
482.67	8475.08
482.85	8571.04
483.03	8526.57
483.21	8573.38
483.39	8716.16
483.57	8587.43
483.74	8816.80
483.92	8879.99
484.10	8910.42
484.28	9210.01
484.46	9303.63
484.64	9373.85
484.82	9177.24
485.00	9390.23
485.18	9404.27
485.35	9614.92
485.53	9376.19
485.71	9720.24
485.89	9799.82
486.07	9731.95
486.25	9621.94
486.43	9956.64
486.61	9872.38
486.78	9998.77
486.96	9980.04
487.14	10328.78
487.32	10424.75
487.50	10523.05
487.68	10324.10
487.85	10621.35
488.03	10754.76
488.21	10712.63
488.39	10839.02
488.57	11012.22
488.75	10953.71
488.92	11019.24
489.10	11105.84
489.28	11147.97
489.46	11480.33
489.64	11316.49
489.81	11709.70
489.99	11351.60
490.17	11515.44
490.35	11974.18
490.53	11665.23
490.70	11864.18
490.88	11761.19
491.06	12149.72
491.24	12081.85
491.41	11978.86
491.59	12241.00
491.77	12093.55
491.95	12451.65
492.13	12418.88
492.30	12369.73
492.48	12510.16
492.66	12580.38
492.84	12739.54
493.01	12842.52
493.19	12905.71
493.37	12978.27
493.54	13076.57
493.72	13200.62
493.90	12877.63
494.08	13083.59
494.25	13516.59
494.43	13451.06
494.61	13572.77
494.79	13710.86
494.96	13537.66
495.14	13762.35
495.32	13858.31
495.49	14001.08
495.67	14059.60
495.85	14162.58
496.02	14391.95
496.20	14209.39
496.38	14071.30
496.55	14118.11
496.73	14513.66
496.91	14171.94
497.09	14637.71
497.26	14530.05
497.44	14714.95
497.62	14764.10
497.79	15218.16
497.97	14677.50
498.14	15103.48
498.32	15169.01
498.50	15042.62
498.67	15248.59
498.85	15143.27
499.03	15506.05
499.20	15332.85
499.38	15206.46
499.56	15733.08
499.73	15613.71
499.91	15562.22
500.08	15999.90
500.26	15772.87
500.44	15777.55
500.61	15803.30
500.79	15960.11
500.97	15840.75
501.14	16067.78
501.32	16318.22
501.49	16224.59
501.67	15845.43
501.84	16205.87
502.02	16404.81
502.20	16755.90
502.37	16655.25
502.55	16376.73
502.72	16741.85
502.90	16793.34
503.07	16372.05
503.25	16706.74
503.43	16748.87
503.60	17151.45
503.78	17118.68
503.95	17032.08
504.13	16896.33
504.30	17139.74
504.48	17135.06
504.65	16989.95
504.83	17331.67
505.01	17640.62
505.18	17366.78
505.36	17404.22
505.53	17193.58
505.71	17572.74
505.88	17607.85
506.06	17659.34
506.23	17673.39
506.41	17563.38
506.58	17661.68
506.76	17511.89
506.93	17774.03
507.11	17734.24
507.28	17909.78
507.46	18064.25
507.63	17921.48
507.81	18384.91
507.98	18094.68
508.16	18441.08
508.33	18221.07
508.50	18249.16
508.68	18082.98
508.85	18551.09
509.03	18747.69
509.20	18555.77
509.38	18815.57
509.55	18895.14
509.73	18948.98
509.90	18705.56
510.08	18848.33
510.25	18831.95
510.42	19073.03
510.60	19154.94
510.77	19248.57
510.95	19208.78
511.12	18977.06
511.30	19229.84
511.47	19278.99
511.64	19412.40
511.82	19473.26
511.99	19421.77
512.17	19662.84
512.34	19569.22
512.51	19676.88
512.69	19639.44
512.86	19995.20
513.04	19943.70
513.21	19969.45
513.38	19866.47
513.56	20175.42
513.73	20020.94
513.90	20006.90
514.08	19681.56
514.25	19833.70
514.43	20245.63
514.60	20262.02
514.77	20297.13
514.95	20336.91
515.12	19990.52
515.29	20290.10
515.47	20662.25
515.64	20390.75
515.81	20592.03
515.99	20458.62
516.16	20776.94
516.33	20711.40
516.51	20875.24
516.68	20875.24
516.85	20709.06
517.03	21022.69
517.20	20910.35
517.37	20823.75
517.54	20945.45
517.72	21312.92
517.89	20994.61
518.06	21263.77
518.24	21238.02
518.41	21331.64
518.58	21345.69
518.75	21413.56
518.93	21282.49
519.10	21376.11
519.27	21680.38
519.45	21446.33
519.62	21387.82
519.79	21528.25
519.96	21397.18
520.14	21507.18
520.31	21507.18
520.48	21682.72
520.65	21694.43
520.83	22120.40
521.00	21694.43
521.17	21881.67
521.34	21972.95
521.52	21958.91
521.69	21972.95
521.86	22286.58
522.03	22473.82
522.20	22324.03
522.38	22352.12
522.55	22424.67
522.72	22710.22
522.89	22288.92
523.07	22595.53
523.24	22424.67
523.41	22618.94
523.58	22658.73
523.75	22787.46
523.92	22562.76
524.10	22752.35
524.27	22895.12
524.44	22810.86
524.61	22967.68
524.78	23166.62
524.96	23058.96
525.13	22944.27
525.30	23070.66
525.47	22764.05
525.64	23049.60
525.81	23077.68
525.98	23410.04
526.16	23353.87
526.33	23552.81
526.50	23295.35
526.67	23173.64
526.84	23498.98
527.01	23655.79
527.18	23496.64
527.36	23641.75
527.53	23840.70
527.70	24030.28
527.87	23660.48
528.04	23784.52
528.21	23988.15
528.38	23828.99
528.55	23948.36
528.72	23290.67
528.89	23866.44
529.07	23786.86
529.24	24276.04
529.41	23990.49
529.58	24006.87
529.75	24137.94
529.92	24137.94
530.09	24130.92
530.26	24474.98
530.43	24512.43
530.60	24013.90
530.77	24086.45
530.94	24561.58
531.11	24353.27
531.28	24435.19
531.46	24528.81
531.63	24542.86
531.80	24402.43
531.97	24734.78
532.14	24886.92
532.31	24496.05
532.48	24393.06
532.65	24842.45
532.82	24615.41
532.99	24922.02
533.16	24725.42
533.33	24900.96
533.50	25132.67
533.67	25256.72
533.84	24877.55
534.01	24973.52
534.18	24912.66
534.35	25151.40
534.52	25071.82
534.69	25317.57
534.86	25458.01
535.03	24978.20
535.20	25212.25
535.37	25528.22
535.54	25247.36
535.71	25348.00
535.88	25469.71
536.05	25104.59
536.22	25481.41
536.38	26003.35
536.55	25687.38
536.72	25804.41
536.89	25500.14
537.06	25645.25
537.23	25933.14
537.40	25736.53
537.57	25614.82
537.74	25935.48
537.91	25905.05
538.08	26008.03
538.25	25621.84
538.42	25916.75
538.59	25687.38
538.75	25816.11
538.92	25912.07
539.09	25783.34
539.26	26045.48
539.43	26309.96
539.60	26242.09
539.77	25942.50
539.94	26335.71
540.11	26148.46
540.28	25965.90
540.44	26059.52
540.61	26485.50
540.78	26293.58
540.95	26284.22
541.12	26658.70
541.29	26232.72
541.46	26450.39
541.62	26195.28
541.79	26504.23
541.96	26462.10
542.13	26279.54
542.30	26253.79
542.47	26602.53
542.63	26897.44
542.80	26469.12
542.97	26962.97
543.14	27253.20
543.31	26897.44
543.48	26960.63
543.64	27117.45
543.81	27353.84
543.98	27337.46
544.15	27215.75
544.32	27517.68
544.48	27709.60
544.65	27187.66
544.82	27257.88
544.99	27435.76
545.16	27342.14
545.32	27292.99
545.49	27658.11
545.66	27428.74
545.83	27257.88
546.00	27215.75
546.16	27674.49
546.33	26967.65
546.50	27260.22
546.67	27475.55
546.83	27035.53
547.00	27035.53
547.17	27222.77
547.34	27623.00
547.50	27690.88
547.67	27978.76
547.84	27831.31
548.00	27871.10
548.17	27725.99
548.34	28102.81
548.51	27929.61
548.67	28112.17
548.84	27744.71
549.01	27756.41
549.18	27892.16
549.34	27812.59
549.51	27931.95
549.68	28357.93
549.84	27838.33
550.01	28252.61
550.18	28257.29
550.34	28084.09
550.51	28222.18
550.68	28112.17
550.84	28093.45
551.01	28191.75
551.18	27995.15
551.34	27957.70
551.51	28577.94
551.68	28458.57
551.84	28383.68
552.01	28278.35
552.18	28744.12
552.34	28659.86
552.51	28868.17
552.68	28287.71
552.84	28259.63
553.01	28528.79
553.18	28510.07
553.34	28849.44
553.51	28545.17
553.67	28907.96
553.84	29156.05
554.01	28819.02
554.17	29057.75
554.34	28739.44
554.51	28655.18
554.67	29099.88
554.84	28744.12
555.00	28840.08
555.17	28891.57
555.33	28514.75
555.50	28847.10
555.67	28645.82
555.83	29095.20
556.00	29006.26
556.16	29233.29
556.33	29254.36
556.50	28837.74
556.66	29092.86
556.83	29343.30
556.99	29357.34
557.16	29481.39
557.32	29413.51
557.49	29462.66
557.65	29097.54
557.82	28903.28
557.98	28968.81
558.15	29078.82
558.32	29465.00
558.48	29298.83
558.65	29369.04
558.81	29191.16
558.98	29214.57
559.14	29289.46
559.31	29493.09
559.47	29256.70
559.64	29624.16
559.80	29256.70
559.97	29593.73
560.13	29434.58
560.30	29467.34
560.46	29755.23
560.63	29268.40
560.79	29743.53
560.96	29855.87
561.12	29385.43
561.29	29481.39
561.45	29638.20
561.61	30125.04
561.78	29745.87
561.94	29748.21
562.11	29823.11
562.27	29322.23
562.44	29888.64
562.60	29497.77
562.77	29605.44
562.93	29525.86
563.10	30012.69
563.26	29692.04
563.42	30082.91
563.59	29883.96
563.75	29701.40
563.92	29486.07
564.08	30171.85
564.24	29635.86
564.41	29968.22
564.57	29399.47
564.74	29715.44
564.90	29860.55
565.07	29771.61
565.23	30242.06
565.39	29792.68
565.56	29811.40
565.72	29792.68
565.88	29811.40
566.05	29818.42
566.21	29724.80
566.38	30040.78
566.54	29839.49
566.70	30253.76
566.87	30192.91
567.03	30352.07
567.19	30642.29
567.36	30323.98
567.52	30197.59
567.68	30068.86
567.85	29914.39
568.01	30293.55
568.17	30178.87
568.34	30506.54
568.50	30539.31
568.66	30288.87
568.83	30277.17
568.99	30492.50
569.15	30349.73
569.32	30295.89
569.48	29928.43
569.64	30302.92
569.81	30300.58
569.97	30401.22
570.13	30373.13
570.30	29916.73
570.46	30099.29
570.62	30506.54
570.78	29942.47
570.95	30087.59
571.11	30342.70
571.27	30110.99
571.43	30221.00
571.60	30567.40
571.76	30192.91
571.92	30213.98
572.09	30375.47
572.25	30429.30
572.41	30546.33
572.57	30408.24
572.74	30431.65
572.90	30197.59
573.06	30279.51
573.22	30230.36
573.38	30270.15
573.55	30405.90
573.71	30909.11
573.87	30686.76
574.03	30295.89
574.20	30448.03
574.36	30274.83
574.52	30476.12
574.68	30319.30
574.84	30857.62
575.01	30625.91
575.17	30417.60
575.33	30621.23
575.49	30569.74
575.65	30656.34
575.82	30331.00
575.98	30529.95
576.14	30298.23
576.30	30635.27
576.46	30316.96
576.62	30768.68
576.79	30483.14
576.95	30253.76
577.11	30572.08
577.27	30621.23
577.43	30719.53
577.59	30424.62
577.75	30513.56
577.92	30668.04
578.08	30338.02
578.24	30244.40
578.40	30370.79
578.56	30890.39
578.72	31002.74
578.88	30803.79
579.04	30895.07
579.21	30466.75
579.37	30920.82
579.53	30813.15
579.69	30443.35
579.85	30558.03
580.01	30759.32
580.17	30298.23
580.33	30623.57
580.49	30466.75
580.65	30773.36
580.82	30637.61
580.98	30838.90
581.14	30888.05
581.30	30668.04
581.46	30260.79
581.62	30471.43
581.78	30321.64
581.94	30588.46
582.10	30513.56
582.26	30801.45
582.42	30726.55
582.58	31061.25
582.74	30654.00
582.90	30452.71
583.06	31150.19
583.22	30342.70
583.38	30668.04
583.54	31096.36
583.70	30733.57
583.86	30752.30
584.02	30644.63
584.18	30883.37
584.34	30927.84
584.50	30862.30
584.66	30967.63
584.82	30824.86
584.98	30876.35
585.14	30857.62
585.30	30242.06
585.46	30705.49
585.62	30452.71
585.78	30534.63
585.94	31328.07
586.10	30782.73
586.26	30801.45
586.42	31068.27
586.58	31112.74
586.74	31049.55
586.90	30525.27
587.06	30333.34
587.22	30600.16
587.38	30707.83
587.54	31150.19
587.70	31182.96
587.86	30934.86
588.02	31079.97
588.18	31351.48
588.34	30824.86
588.49	30801.45
588.65	30719.53
588.81	30841.24
588.97	31042.53
589.13	31035.50
589.29	30946.56
589.45	30939.54
589.61	31136.15
589.77	31409.99
589.93	31180.62
590.08	31304.67
590.24	31211.04
590.40	30815.49
590.56	31281.26
590.72	30883.37
590.88	30866.98
591.04	31222.75
591.20	31168.91
591.35	31154.87
591.51	31559.78
591.67	31452.12
591.83	31405.31
591.99	31522.34
592.15	31077.63
592.31	31211.04
592.46	31019.12
592.62	30953.58
592.78	30941.88
592.94	31138.49
593.10	31084.65
593.26	31274.24
593.41	31262.54
593.57	31456.80
593.73	31445.10
593.89	31304.67
594.05	31332.75
594.20	31269.56
594.36	31253.17
594.52	31033.16
594.68	31454.46
594.84	31325.73
594.99	31440.42
595.15	31452.12
595.31	31580.85
595.47	31426.37
595.62	31700.22
595.78	31456.80
595.94	31426.37
596.10	30906.77
596.25	31136.15
596.41	31356.16
596.57	31189.98
596.73	31077.63
596.88	31122.10
597.04	31105.72
597.20	31758.73
597.36	31541.06
597.51	31496.59
597.67	31529.36
597.83	31541.06
597.99	31473.18
598.14	31440.42
598.30	31227.43
598.46	31435.74
598.61	31248.49
598.77	31105.72
598.93	31449.78
599.09	31557.44
599.24	31597.23
599.40	31798.52
599.56	31749.37
599.71	31868.73
599.87	31475.52
600.03	31562.12
600.18	31068.27
600.34	30967.63
600.50	31117.42
600.65	31402.97
600.81	31672.13
600.97	31454.46
601.12	31873.42
601.28	31615.96
601.44	31922.57
601.59	31681.49
601.75	31983.42
601.91	31569.15
602.06	31208.70
602.22	31236.79
602.37	31236.79
602.53	31314.03
602.69	31496.59
602.84	31267.22
603.00	31417.01
603.16	31529.36
603.31	31480.21
603.47	31583.19
603.62	31772.77
603.78	31040.18
603.94	31243.81
604.09	31005.08
604.25	31014.44
604.40	31365.52
604.56	31637.02
604.71	31775.11
604.87	31814.90
605.03	31569.15
605.18	31456.80
605.34	31424.03
605.49	31173.60
605.65	31625.32
605.80	31405.31
605.96	31021.46
606.12	31248.49
606.27	31393.61
606.43	31075.29
606.58	31519.99
606.74	31370.20
606.89	31814.90
607.05	31522.34
607.20	31789.16
607.36	31447.44
607.51	31709.58
607.67	31143.17
607.82	31035.50
607.98	31208.70
608.13	30874.01
608.29	31424.03
608.44	31098.70
608.60	31407.65
608.75	31697.88
608.91	31337.43
609.06	31262.54
609.22	31255.51
609.37	30841.24
609.53	31021.46
609.68	30939.54
609.84	30857.62
609.99	31248.49
610.15	31063.59
610.30	30932.52
610.46	31101.04
610.61	31428.71
610.76	31445.10
610.92	31063.59
611.07	30974.65
611.23	30672.72
611.38	30890.39
611.54	31044.87
611.69	30766.34
611.84	30864.64
612.00	30712.51
612.15	30773.36
612.31	31515.31
612.46	31089.34
612.62	31150.19
612.77	31180.62
612.92	31292.96
613.08	31433.39
613.23	31077.63
613.39	30675.06
613.54	30822.51
613.69	30532.29
613.85	30478.46
614.00	30707.83
614.15	31124.44
614.31	30874.01
614.46	31087.00
614.62	30909.11
614.77	30766.34
614.92	30927.84
615.08	30703.15
615.23	30745.28
615.38	30859.96
615.54	30431.65
615.69	31089.34
615.84	30396.54
616.00	30639.95
616.15	30265.47
616.30	30621.23
616.46	30773.36
616.61	30742.94
616.76	30948.90
616.92	30553.35
617.07	30796.77
617.22	30476.12
617.37	30178.87
617.53	30567.40
617.68	29914.39
617.83	30178.87
617.99	30543.99
618.14	30513.56
618.29	30433.99
618.45	30146.10
618.60	30534.63
618.75	30096.95
618.90	30520.59
619.06	30504.20
619.21	30082.91
619.36	30665.70
619.51	30118.01
619.67	29975.24
619.82	30136.74
619.97	30263.13
620.12	30534.63
620.28	29825.45
620.43	30277.17
620.58	30480.80
620.73	30323.98
620.89	30534.63
621.04	30403.56
621.19	30040.78
621.34	30391.86
621.49	29736.51
621.65	30019.71
621.80	30359.09
621.95	30075.88
622.10	29900.34
622.25	30108.65
622.41	30209.29
622.56	30139.08
622.71	30300.58
622.86	29947.15
623.01	29710.76
623.16	30012.69
623.32	29778.64
623.47	29958.86
623.62	29986.94
623.77	29982.26
623.92	29869.92
624.07	29675.65
624.23	29926.09
624.38	29956.52
624.53	29947.15
624.68	30033.75
624.83	29605.44
624.98	29846.51
625.13	29710.76
625.29	30316.96
625.44	29792.68
625.59	29617.14
625.74	29802.04
625.89	29233.29
626.04	29406.49
626.19	29502.45
626.34	29408.83
626.49	29713.10
626.65	29415.85
626.80	29769.27
626.95	29378.40
627.10	29319.89
627.25	29198.18
627.40	29247.33
627.55	29259.04
627.70	29329.25
627.85	29336.27
628.00	29802.04
628.15	29605.44
628.30	28903.28
628.45	29457.98
628.60	28922.00
628.76	29387.77
628.91	29343.30
629.06	29567.99
629.21	29497.77
629.36	29387.77
629.51	29235.63
629.66	29252.02
629.81	29305.85
629.96	28996.90
630.11	28755.82
630.26	28910.30
630.41	29156.05
630.56	29418.19
630.71	28985.19
630.86	29003.92
631.01	29151.37
631.16	29359.68
631.31	29624.16
631.46	28891.57
631.61	28912.64
631.76	28807.31
631.91	28769.86
632.06	28891.57
632.21	28814.34
632.36	28664.54
632.51	28751.14
632.66	29003.92
632.81	28584.96
632.96	28914.98
633.10	28781.57
633.25	29074.13
633.40	28606.03
633.55	28627.09
633.70	28664.54
633.85	28470.28
634.00	28900.94
634.15	28556.88
634.30	28650.50
634.45	28290.06
634.60	28362.61
634.75	28166.01
634.90	28748.80
635.05	28793.27
635.19	28652.84
635.34	28570.92
635.49	28294.74
635.64	28561.56
635.79	28847.10
635.94	28620.07
636.09	28716.03
636.24	28215.16
636.39	27868.76
636.53	28533.47
636.68	28505.38
636.83	28442.19
636.98	28343.89
637.13	28276.01
637.28	28407.08
637.43	28559.22
637.57	28676.24
637.72	28168.35
637.87	28285.37
638.02	28247.93
638.17	28716.03
638.32	27922.59
638.46	27896.85
638.61	28121.54
638.76	28006.85
638.91	27976.42
639.06	28065.36
639.20	27854.72
639.35	28074.73
639.50	28299.42
639.65	28196.43
639.80	28456.23
639.94	28034.94
640.09	28156.64
640.24	28027.92
640.39	27800.88
640.54	27793.86
640.68	27711.94
640.83	27908.55
640.98	27810.25
641.13	27548.11
641.27	27852.38
641.42	27625.34
641.57	27623.00
641.72	28009.19
641.86	27630.02
642.01	27662.79
642.16	27653.43
642.31	27381.93
642.45	27859.40
642.60	27402.99
642.75	27587.89
642.90	27449.80
643.04	27421.72
643.19	27267.24
643.34	27529.38
643.48	27463.85
643.63	27576.19
643.78	27618.32
643.93	27484.91
644.07	27498.95
644.22	27168.94
644.37	27365.54
644.51	27552.79
644.66	27601.94
644.81	27049.57
644.95	27503.64
645.10	27381.93
645.25	27213.41
645.39	27309.37
645.54	27147.87
645.69	27292.99
645.83	27580.87
645.98	27218.09
646.13	27524.70
646.27	27676.83
646.42	27250.86
646.57	27077.66
646.71	27250.86
646.86	27398.31
647.00	27311.71
647.15	27339.80
647.30	26930.20
647.44	26677.43
647.59	26984.04
647.74	27094.04
647.88	27253.20
648.03	27117.45
648.17	27229.79
648.32	27253.20
648.47	27332.78
648.61	27377.25
648.76	26962.97
648.90	27194.68
649.05	27215.75
649.20	26869.35
649.34	26822.54
649.49	26536.99
649.63	26782.75
649.78	26953.61
649.92	26703.17
650.07	27056.59
650.21	26838.92
650.36	26852.97
650.51	26635.30
650.65	26656.36
650.80	26824.88
650.94	26869.35
651.09	26703.17
651.23	26424.65
651.38	26588.49
651.52	26511.25
651.67	26618.91
651.81	26719.56
651.96	26700.83
652.10	26614.23
652.25	26314.64
652.39	26663.38
652.54	26665.72
652.68	26897.44
652.83	26757.00
652.97	26829.56
653.12	26572.10
653.26	26490.18
653.41	26675.09
653.55	26251.45
653.70	26291.24
653.84	26199.96
653.99	26438.69
654.13	25954.20
654.27	26476.14
654.42	26473.80
654.56	26480.82
654.71	26342.73
654.85	26361.45
655.00	26335.71
655.14	26359.11
655.29	26419.97
655.43	26312.30
655.57	26143.78
655.72	26288.90
655.86	26597.85
656.01	26087.61
656.15	26281.88
656.30	26078.25
656.44	25982.29
656.58	25982.29
656.73	25970.58
656.87	26101.65
657.01	26143.78
657.16	26073.57
657.30	25905.05
657.45	25961.22
657.59	25940.16
657.73	25823.13
657.88	26111.02
658.02	25734.19
658.16	25905.05
658.31	25696.74
658.45	25806.75
658.60	25191.19
658.74	25610.14
658.88	25448.64
659.03	25392.47
659.17	25568.01
659.31	25579.71
659.46	25373.75
659.60	25811.43
659.74	25570.35
659.89	25525.88
660.03	25436.94
660.17	25781.00
660.32	25757.60
660.46	25535.24
660.60	25179.48
660.74	25200.55
660.89	25488.43
661.03	25280.13
661.17	25355.02
661.32	25174.80
661.46	25362.04
661.60	25280.13
661.74	25247.36
661.89	25013.31
662.03	24875.21
662.17	25113.95
662.31	24917.34
662.46	25053.09
662.60	24975.86
662.74	24662.22
662.88	24662.22
663.03	24697.33
663.17	24819.04
663.31	24563.92
663.45	24723.08
663.60	24594.35
663.74	24496.05
663.88	24615.41
664.02	24596.69
664.17	24760.53
664.31	24458.60
664.45	24353.27
664.59	24538.18
664.73	24638.82
664.88	24498.39
665.02	24472.64
665.16	24084.11
665.30	24683.29
665.44	24404.77
665.59	24086.45
665.73	24294.76
665.87	23960.06
666.01	24254.97
666.15	24072.41
666.29	24154.33
666.44	24128.58
666.58	23796.23
666.72	23875.80
666.86	24161.35
667.00	24287.74
667.14	24032.62
667.28	23852.40
667.43	23836.02
667.57	23803.25
667.71	23613.66
667.85	23709.63
667.99	23557.49
668.13	23543.45
668.27	23538.77
668.41	23683.88
668.56	23538.77
668.70	23559.83
668.84	23599.62
668.98	23501.32
669.12	23468.55
669.26	23405.36
669.40	23503.66
669.54	23239.18
669.68	23269.61
669.82	23311.74
669.96	23274.29
670.10	22939.59
670.25	23236.84
670.39	23257.90
670.53	23173.64
670.67	22892.78
670.81	23049.60
670.95	23138.54
671.09	22813.20
671.23	23250.88
671.37	22869.37
671.51	23197.05
671.65	23073.00
671.79	23030.87
671.93	22831.93
672.07	22375.52
672.21	22555.74
672.35	22448.08
672.49	22321.69
672.63	22487.87
672.77	22422.33
672.91	22441.06
673.05	22162.53
673.19	22651.70
673.33	22174.24
673.47	22066.57
673.61	22558.08
673.75	22408.29
673.89	22359.14
674.03	22225.73
674.17	22216.36
674.31	21649.96
674.45	22099.34
674.59	21776.34
674.73	21888.69
674.87	22129.77
675.01	21483.78
675.15	21654.64
675.29	21692.08
675.43	21858.26
675.56	21633.57
675.70	21923.80
675.84	21722.51
675.98	21139.72
676.12	21415.90
676.26	21535.27
676.40	21500.16
676.54	21158.44
676.68	21387.82
676.82	20947.79
676.96	21294.19
677.10	21163.12
677.23	21029.71
677.37	20812.04
677.51	20847.15
677.65	20671.61
677.79	20744.17
677.93	20643.52
678.07	20706.72
678.21	20390.75
678.34	20449.26
678.48	20599.05
678.62	20329.89
678.76	20126.27
678.90	20201.16
679.04	20205.84
679.18	20357.98
679.31	19932.00
679.45	19819.66
679.59	20084.14
679.73	19939.02
679.87	19985.83
680.00	19742.42
680.14	19782.21
680.28	19463.90
680.42	19803.27
680.56	19728.38
680.70	19695.61
680.83	19562.20
680.97	19704.97
681.11	19513.05
681.25	19276.65
681.39	19302.40
681.52	19140.90
681.66	18740.67
681.80	18750.03
681.94	18918.55
682.07	19190.05
682.21	18934.93
682.35	18757.05
682.49	18757.05
682.62	18803.86
682.76	18572.15
682.90	18698.54
683.04	18696.20
683.17	18649.39
683.31	18665.77
683.45	18649.39
683.59	18523.00
683.72	18361.50
683.86	18178.94
684.00	18347.46
684.13	18139.15
684.27	18052.55
684.41	17933.18
684.55	17989.36
684.68	17469.76
684.82	17996.38
684.96	17888.71
685.09	17434.65
685.23	17547.00
685.37	17535.29
685.50	17825.52
685.64	17722.54
685.78	17748.28
685.91	17844.24
686.05	17607.85
686.19	17408.90
686.32	17542.32
686.46	17338.69
686.60	17114.00
686.73	17202.94
686.87	16847.18
687.01	16973.56
687.14	16786.32
687.28	16849.52
687.42	16812.07
687.55	16699.72
687.69	16638.87
687.82	16648.23
687.96	16891.65
688.10	16788.66
688.23	16798.02
688.37	16631.85
688.50	16585.04
688.64	16367.37
688.78	16374.39
688.91	16217.57
689.05	15976.50
689.18	15976.50
689.32	15889.90
689.46	15740.10
689.59	15896.92
689.73	16116.93
689.86	15934.37
690.00	15815.00
690.13	15822.02
690.27	15777.55
690.41	15903.94
690.54	15690.95
690.68	15367.96
690.81	15403.07
690.95	15480.30
691.08	15503.71
691.22	15527.11
691.35	15489.67
691.49	15508.39
691.62	15398.38
691.76	14913.89
691.89	15232.21
692.03	14853.04
692.16	15040.28
692.30	14740.69
692.43	14764.10
692.57	14738.35
692.70	14672.82
692.84	14780.48
692.97	14595.58
693.11	14785.16
693.24	14740.69
693.38	14511.32
693.51	14532.39
693.65	14190.67
693.78	14284.29
693.92	14080.66
694.05	14544.09
694.19	14204.71
694.32	14073.64
694.45	14005.77
694.59	13942.57
694.72	13781.07
694.86	13781.07
694.99	13483.83
695.13	13596.17
695.26	13706.18
695.39	13547.02
695.53	13558.72
695.66	13734.26
695.80	13603.19
695.93	13458.08
696.07	13472.12
696.20	13502.55
696.33	13329.35
696.47	13287.22
696.60	13156.15
696.73	13308.29
696.87	13233.39
697.00	13202.96
697.14	13144.45
697.27	12753.58
697.40	12865.92
697.54	12765.28
697.67	12596.76
697.80	12484.42
697.94	12805.07
698.07	12526.55
698.21	12503.14
698.34	12624.85
698.47	12439.95
698.61	12451.65
698.74	12615.49
698.87	12566.34
699.01	12404.84
699.14	12086.53
699.27	12315.90
699.40	12294.83
699.54	12196.53
699.67	12072.48
699.80	11918.01
699.94	11700.34
700.07	12046.74
700.20	11648.85
700.34	11609.06
700.47	11866.52
700.60	11632.46
700.73	11693.32
700.87	11597.35
701.00	11360.96
701.13	11363.30
701.26	11515.44
701.40	11822.05
701.53	11529.48
701.66	11492.03
701.79	11190.10
701.93	11183.08
702.06	11281.38
702.19	10918.60
702.32	10993.50
702.46	10963.07
702.59	11075.42
702.72	10815.62
702.85	10677.52
702.99	10764.12
703.12	10745.40
703.25	10686.89
703.38	10621.35
703.51	10649.44
703.65	10700.93
703.78	10738.38
703.91	10501.98
704.04	10581.56
704.17	10476.24
704.31	10429.43
704.44	10335.81
704.57	10384.96
704.70	10228.14
704.83	10143.88
704.96	10085.37
705.10	10099.41
705.23	9940.26
>>>>>End Processed Spectral Data<<<<<
