SpectraSuite Data File
++++++++++++++++++++++++++++++++++++
Date: Fri Oct 18 13:58:42 GMT-05:00 2013
User: bianchi
Dark Spectrum Present: No
Reference Spectrum Present: No
Number of Sampled Component Spectra: 1
Spectrometers: USB2+H05261
Integration Time (usec): 50000 (USB2+H05261)
Spectra Averaged: 1 (USB2+H05261)
Boxcar Smoothing: 0 (USB2+H05261)
Correct for Electrical Dark: No (USB2+H05261)
Strobe/Lamp Enabled: No (USB2+H05261)
Correct for Detector Non-linearity: No (USB2+H05261)
Correct for Stray Light: No (USB2+H05261)
Number of Pixels in Processed Spectrum: 2048
>>>>>Begin Processed Spectral Data<<<<<
365.73	0.00
365.92	0.00
366.12	0.00
366.32	0.00
366.52	0.00
366.72	0.00
366.91	0.00
367.11	0.00
367.31	0.00
367.51	0.00
367.70	0.00
367.90	0.00
368.10	0.00
368.30	0.00
368.49	0.00
368.69	0.00
368.89	0.00
369.09	0.00
369.28	0.00
369.48	0.00
369.68	0.00
369.87	0.00
370.07	0.00
370.27	0.00
370.47	0.00
370.66	60.85
370.86	114.69
371.06	110.01
371.25	133.41
371.45	147.45
371.65	159.16
371.84	117.03
372.04	152.13
372.24	229.37
372.44	135.75
372.63	170.86
372.83	259.80
373.03	156.82
373.22	224.69
373.42	170.86
373.62	229.37
373.81	231.71
374.01	208.31
374.21	208.31
374.40	222.35
374.60	250.44
374.79	262.14
374.99	229.37
375.19	241.08
375.38	180.22
375.58	238.73
375.78	259.80
375.97	264.48
376.17	376.83
376.37	292.57
376.56	227.03
376.76	250.44
376.95	196.60
377.15	227.03
377.35	276.18
377.54	250.44
377.74	243.42
377.93	283.20
378.13	292.57
378.33	315.97
378.52	313.63
378.72	276.18
378.91	290.23
379.11	327.68
379.31	325.33
379.50	208.31
379.70	276.18
379.89	327.68
380.09	301.93
380.28	294.91
380.48	306.61
380.68	255.12
380.87	337.04
381.07	351.08
381.26	283.20
381.46	339.38
381.65	362.78
381.85	280.86
382.04	304.27
382.24	285.55
382.43	297.25
382.63	365.12
382.83	276.18
383.02	294.91
383.22	330.02
383.41	334.70
383.61	287.89
383.80	299.59
384.00	397.89
384.19	414.27
384.39	418.96
384.58	369.80
384.78	294.91
384.97	397.89
385.17	367.46
385.36	339.38
385.56	369.80
385.75	430.66
385.95	416.62
386.14	374.49
386.34	404.91
386.53	318.31
386.72	416.62
386.92	379.17
387.11	397.89
387.31	418.96
387.50	421.30
387.70	440.02
387.89	402.57
388.09	440.02
388.28	440.02
388.48	444.70
388.67	472.79
388.86	521.94
389.06	407.25
389.25	430.66
389.45	486.83
389.64	507.90
389.84	388.53
390.03	491.51
390.22	512.58
390.42	496.19
390.61	475.13
390.81	540.66
391.00	479.81
391.19	524.28
391.39	503.22
391.58	550.03
391.78	491.51
391.97	531.30
392.16	510.24
392.36	645.99
392.55	543.00
392.75	496.19
392.94	561.73
393.13	557.05
393.33	512.58
393.52	503.22
393.71	629.60
393.91	531.30
394.10	519.60
394.29	557.05
394.49	507.90
394.68	613.22
394.88	634.29
395.07	578.11
395.26	552.37
395.46	596.84
395.65	592.16
395.84	631.94
396.04	638.97
396.23	660.03
396.42	601.52
396.62	599.18
396.81	564.07
397.00	709.18
397.19	688.12
397.39	645.99
397.58	732.59
397.77	631.94
397.97	678.76
398.16	702.16
398.35	695.14
398.55	681.10
398.74	699.82
398.93	697.48
399.12	709.18
399.32	697.48
399.51	744.29
399.70	784.08
399.90	758.33
400.09	685.78
400.28	730.25
400.47	739.61
400.67	781.74
400.86	819.19
401.05	706.84
401.24	800.46
401.44	753.65
401.63	781.74
401.82	812.17
402.01	828.55
402.21	795.78
402.40	767.70
402.59	791.10
402.78	844.93
402.97	898.77
403.17	854.30
403.36	901.11
403.55	894.08
403.74	877.70
403.93	819.19
404.13	940.90
404.32	877.70
404.51	999.41
404.70	880.04
404.89	926.85
405.09	985.37
405.28	884.72
405.47	943.24
405.66	980.68
405.85	1006.43
406.05	915.15
406.24	987.71
406.43	978.34
406.62	964.30
406.81	1081.33
407.00	1011.11
407.20	926.85
407.39	983.02
407.58	1004.09
407.77	1029.84
407.96	1076.65
408.15	1081.33
408.34	1100.05
408.54	1132.82
408.73	1132.82
408.92	994.73
409.11	1114.10
409.30	1111.75
409.49	1146.86
409.68	1081.33
409.87	1137.50
410.07	1177.29
410.26	1172.61
410.45	1179.63
410.64	1151.54
410.83	1219.42
411.02	1256.87
411.21	1221.76
411.40	1149.20
411.59	1252.19
411.78	1280.27
411.98	1165.59
412.17	1224.10
412.36	1299.00
412.55	1378.58
412.74	1270.91
412.93	1357.51
413.12	1327.08
413.31	1434.75
413.50	1343.47
413.69	1406.66
413.88	1441.77
414.07	1406.66
414.26	1493.26
414.45	1465.18
414.64	1404.32
414.83	1479.22
415.02	1495.60
415.22	1465.18
415.41	1514.33
415.60	1519.01
415.79	1572.84
415.98	1591.56
416.17	1593.90
416.36	1558.80
416.55	1696.89
416.74	1591.56
416.93	1706.25
417.12	1746.04
417.31	1678.16
417.50	1736.68
417.69	1760.08
417.88	1624.33
418.07	1764.76
418.26	1746.04
418.45	1598.59
418.64	1905.20
418.83	1755.40
419.02	1706.25
419.21	1820.94
419.39	1746.04
419.58	1827.96
419.77	1898.17
419.96	1879.45
420.15	1860.73
420.34	1923.92
420.53	1937.96
420.72	1937.96
420.91	1954.35
421.10	2033.93
421.29	2026.90
421.48	1902.86
421.67	1877.11
421.86	1963.71
422.05	2092.44
422.24	1837.32
422.43	2064.35
422.61	1942.64
422.80	2026.90
422.99	1877.11
423.18	2024.56
423.37	2019.88
423.56	2047.97
423.75	2080.74
423.94	1961.37
424.13	1818.60
424.32	1937.96
424.50	1921.58
424.69	2097.12
424.88	2052.65
425.07	1994.14
425.26	1998.82
425.45	2040.95
425.64	2015.20
425.83	1977.75
426.01	2080.74
426.20	1956.69
426.39	2101.80
426.58	2059.67
426.77	1987.11
426.96	2122.87
427.15	2031.58
427.33	2097.12
427.52	2038.61
427.71	2083.08
427.90	2045.63
428.09	2087.76
428.28	2239.89
428.46	2193.08
428.65	2202.44
428.84	2113.50
429.03	2092.44
429.22	2228.19
429.40	2314.79
429.59	2188.40
429.78	2239.89
429.97	2113.50
430.16	2136.91
430.34	2347.56
430.53	2260.96
430.72	2228.19
430.91	2275.00
431.10	2300.75
431.28	2373.30
431.47	2513.74
431.66	2415.43
431.85	2324.15
432.03	2370.96
432.22	2401.39
432.41	2356.92
432.60	2520.76
432.79	2406.07
432.97	2525.44
433.16	2471.61
433.35	2490.33
433.54	2436.50
433.72	2485.65
433.91	2572.25
434.10	2473.95
434.28	2555.86
434.47	2480.97
434.66	2593.31
434.85	2480.97
435.03	2623.74
435.22	2546.50
435.41	2551.18
435.59	2668.21
435.78	2572.25
435.97	2684.59
436.16	2708.00
436.34	2644.81
436.53	2595.65
436.72	2708.00
436.90	2696.30
437.09	2637.78
437.28	2708.00
437.46	2658.85
437.65	2661.19
437.84	2768.85
438.02	2785.24
438.21	2750.13
438.40	2689.28
438.58	2799.28
438.77	2843.75
438.96	2902.26
439.14	2935.03
439.33	2911.63
439.52	3016.95
439.70	3063.76
439.89	3002.91
440.08	3035.67
440.26	3068.44
440.45	2923.33
440.63	3129.30
440.82	3049.72
441.01	3089.51
441.19	3070.78
441.38	3117.59
441.57	3143.34
441.75	3187.81
441.94	3187.81
442.12	3309.52
442.31	3361.01
442.50	3403.14
442.68	3316.54
442.87	3283.77
443.05	3386.76
443.24	3410.16
443.43	3414.84
443.61	3403.14
443.80	3496.76
443.98	3281.43
444.17	3190.15
444.35	3283.77
444.54	3478.04
444.73	3365.69
444.91	3492.08
445.10	3370.37
445.28	3398.46
445.47	3384.41
445.65	3370.37
445.84	3377.39
446.02	3471.01
446.21	3456.97
446.39	3522.51
446.58	3485.06
446.77	3445.27
446.95	3492.08
447.14	3606.77
447.32	3559.95
447.51	3494.42
447.69	3686.34
447.88	3569.32
448.06	3468.67
448.25	3478.04
448.43	3566.98
448.62	3473.36
448.80	3466.33
448.99	3480.38
449.17	3440.59
449.36	3576.34
449.54	3648.90
449.73	3595.06
449.91	3517.83
450.10	3667.62
450.28	3768.26
450.46	3719.11
450.65	3782.31
450.83	3772.94
451.02	3754.22
451.20	3754.22
451.39	3815.07
451.57	3770.60
451.76	3742.52
451.94	3978.91
452.13	3817.41
452.31	3904.01
452.49	3578.68
452.68	3836.14
452.86	3784.65
453.05	3866.56
453.23	3857.20
453.42	3831.46
453.60	3691.02
453.78	3864.22
453.97	3791.67
454.15	3887.63
454.34	3953.16
454.52	3999.98
454.70	4028.06
454.89	4070.19
455.07	4114.66
455.26	3943.80
455.44	4065.51
455.62	3983.59
455.81	4065.51
455.99	4194.24
456.17	4063.17
456.36	4138.07
456.54	4227.01
456.73	4140.41
456.91	4358.08
457.09	4376.80
457.28	4311.27
457.46	4304.25
457.64	4407.23
457.83	4351.06
458.01	4236.37
458.19	4435.32
458.38	4243.39
458.56	4217.65
458.74	4362.76
458.93	4458.72
459.11	4236.37
459.29	4400.21
459.48	4535.96
459.66	4285.52
459.84	4500.85
460.03	4575.75
460.21	4533.62
460.39	4650.64
460.57	4521.92
460.76	4545.32
460.94	4585.11
461.12	4741.93
461.31	4678.73
461.49	4638.94
461.67	4610.86
461.85	4669.37
462.04	4795.76
462.22	4711.50
462.40	4730.22
462.59	4723.20
462.77	4709.16
462.95	4695.11
463.13	4791.08
463.32	4746.61
463.50	4823.84
463.68	4870.65
463.86	4882.36
464.05	4798.10
464.23	4791.08
464.41	4924.49
464.59	4903.42
464.78	4964.28
464.96	4968.96
465.14	4933.85
465.32	4929.17
465.50	4894.06
465.69	4980.66
465.87	4954.91
466.05	4901.08
466.23	5048.54
466.41	4943.21
466.60	5233.44
466.78	4959.60
466.96	5078.96
467.14	5006.41
467.32	5245.14
467.51	5242.80
467.69	4917.47
467.87	5214.71
468.05	5039.17
468.23	5179.61
468.41	5172.58
468.60	5193.65
468.78	5217.05
468.96	5137.48
469.14	5231.10
469.32	5451.11
469.50	5071.94
469.69	5210.03
469.87	5521.32
470.05	5434.72
470.23	5441.75
470.41	5416.00
470.59	5355.15
470.77	5352.81
470.95	5504.94
471.14	5387.91
471.32	5420.68
471.50	5547.07
471.68	5500.26
471.86	5572.82
472.04	5699.20
472.22	5769.42
472.40	5619.63
472.58	5748.36
472.77	5797.51
472.95	5809.21
473.13	5928.58
473.31	5792.83
473.49	5692.18
473.67	5710.91
473.85	5991.77
474.03	5888.79
474.21	5865.38
474.39	6073.69
474.57	5893.47
474.75	6073.69
474.93	6143.91
475.12	6008.16
475.30	6033.90
475.48	6136.88
475.66	6141.57
475.84	6267.95
476.02	6422.43
476.20	6293.70
476.38	6593.29
476.56	6527.75
476.74	6429.45
476.92	6443.49
477.10	6588.61
477.28	6738.40
477.46	6572.22
477.64	6733.72
477.82	6771.17
478.00	6890.54
478.18	6724.36
478.36	6977.14
478.54	6932.67
478.72	7199.49
478.90	7096.50
479.08	7049.69
479.26	7197.15
479.44	7365.67
479.62	7103.53
479.80	7358.64
479.98	7363.33
480.16	7538.87
480.34	7527.16
480.52	7644.19
480.70	7592.70
480.88	7496.74
481.06	7620.78
481.24	7550.57
481.41	7651.21
481.59	7992.93
481.77	7852.50
481.95	8028.04
482.13	7992.93
482.31	8219.96
482.49	8451.67
482.67	8219.96
482.85	8369.76
483.03	8491.46
483.21	8580.40
483.39	8638.92
483.57	8641.26
483.74	8613.17
483.92	8603.81
484.10	8552.32
484.28	8887.01
484.46	8896.38
484.64	9062.55
484.82	8999.36
485.00	9116.39
485.18	9334.06
485.35	9483.85
485.53	9401.93
485.71	9509.60
485.89	9465.13
486.07	9310.65
486.25	9626.62
486.43	9472.15
486.61	9884.08
486.78	10012.81
486.96	9811.53
487.14	9923.87
487.32	10050.26
487.50	10122.82
487.68	10303.04
487.85	10188.35
488.03	10377.94
488.21	10644.76
488.39	10609.65
488.57	10513.69
488.75	10593.26
488.92	10934.98
489.10	10806.25
489.28	10806.25
489.46	11286.06
489.64	10817.96
489.81	11344.58
489.99	11372.66
490.17	11164.36
490.35	11459.26
490.53	11386.71
490.70	11744.81
490.88	11611.40
491.06	11934.39
491.24	11700.34
491.41	11815.02
491.59	11803.32
491.77	12042.06
491.95	12189.51
492.13	12210.57
492.30	12241.00
492.48	12343.99
492.66	12198.87
492.84	12152.06
493.01	12332.28
493.19	12355.69
493.37	12486.76
493.54	12444.63
493.72	12901.03
493.90	12713.79
494.08	12971.25
494.25	13280.20
494.43	13069.55
494.61	13331.69
494.79	13186.58
494.96	13490.85
495.14	13270.84
495.32	13514.25
495.49	13582.13
495.67	13415.95
495.85	13837.25
496.02	13542.34
496.20	14120.45
496.38	13621.92
496.55	13919.17
496.73	14396.64
496.91	14024.49
497.09	14118.11
497.26	14251.52
497.44	14008.11
497.62	14335.78
497.79	14295.99
497.97	14377.91
498.14	14560.47
498.32	14492.60
498.50	14618.99
498.67	14918.57
498.85	14740.69
499.03	15035.60
499.20	14970.07
499.38	15012.20
499.56	15051.99
499.73	15344.55
499.91	15356.25
500.08	15328.17
500.26	15398.38
500.44	15042.62
500.61	15295.40
500.79	15534.14
500.97	15719.04
501.14	15332.85
501.32	16130.97
501.49	15641.80
501.67	15751.81
501.84	15702.65
502.02	15817.34
502.20	15981.18
502.37	16056.08
502.55	16093.52
502.72	15927.35
502.90	16257.36
503.07	16070.12
503.25	16346.30
503.43	16243.32
503.60	16596.74
503.78	16416.52
503.95	16423.54
504.13	16350.98
504.30	16723.13
504.48	16372.05
504.65	16678.66
504.83	16603.76
505.01	16917.39
505.18	16964.20
505.36	16788.66
505.53	16816.75
505.71	16893.99
505.88	17114.00
506.06	16889.31
506.23	17174.85
506.41	17240.39
506.58	17422.95
506.76	17317.62
506.93	17547.00
507.11	17603.17
507.28	17446.35
507.46	17600.83
507.63	17755.30
507.81	17619.55
507.98	17654.66
508.16	18050.21
508.33	17387.84
508.50	17781.05
508.68	17898.08
508.85	17972.97
509.03	17830.20
509.20	18331.08
509.38	18160.22
509.55	18530.02
509.73	18429.38
509.90	18403.63
510.08	18324.05
510.25	18345.12
510.42	18326.39
510.60	18670.45
510.77	18679.82
510.95	18789.82
511.12	18394.27
511.30	18494.91
511.47	18579.17
511.64	18974.72
511.82	19126.86
511.99	18831.95
512.17	18963.02
512.34	19192.39
512.51	19124.52
512.69	19344.53
512.86	19126.86
513.04	19194.73
513.21	19590.28
513.38	19365.59
513.56	19342.19
513.73	19241.54
513.90	19405.38
514.08	19330.48
514.25	19316.44
514.43	19555.18
514.60	19908.60
514.77	19669.86
514.95	19868.81
515.12	19997.54
515.29	20023.28
515.47	19873.49
515.64	20049.03
515.81	19924.98
515.99	20161.37
516.16	20587.35
516.33	20034.99
516.51	20430.54
516.68	19711.99
516.85	19915.62
517.03	20128.61
517.20	20191.80
517.37	20744.17
517.54	20381.38
517.72	20465.64
517.89	20325.21
518.06	20606.08
518.24	20938.43
518.41	20533.52
518.58	20437.56
518.75	20505.43
518.93	20940.77
519.10	20669.27
519.27	20954.82
519.45	20688.00
519.62	20882.26
519.79	20865.88
519.96	21238.02
520.14	21102.27
520.31	20851.83
520.48	21284.83
520.65	20954.82
520.83	21390.16
521.00	21209.93
521.17	21188.87
521.34	21050.78
521.52	21443.99
521.69	21532.93
521.86	21558.67
522.03	21741.24
522.20	21813.79
522.38	21703.79
522.55	21855.92
522.72	21799.75
522.89	21699.11
523.07	21874.65
523.24	21909.75
523.41	21914.44
523.58	21923.80
523.75	21977.63
523.92	22153.17
524.10	21963.59
524.27	22022.10
524.44	22019.76
524.61	22317.01
524.78	22419.99
524.96	22293.60
525.13	22476.16
525.30	22319.35
525.47	22637.66
525.64	22319.35
525.81	22705.54
525.98	22485.53
526.16	22642.34
526.33	22677.45
526.50	22927.89
526.67	22499.57
526.84	22860.01
527.01	22642.34
527.18	22714.90
527.36	22745.33
527.53	22768.73
527.70	23461.53
527.87	23206.41
528.04	23475.57
528.21	23075.34
528.38	22974.70
528.55	23386.63
528.72	23438.12
528.89	23344.50
529.07	23337.48
529.24	23332.80
529.41	23435.78
529.58	23606.64
529.75	23513.02
529.92	23349.18
530.09	23346.84
530.26	23424.08
530.43	23541.11
530.60	23634.73
530.77	23665.16
530.94	23913.25
531.11	23669.84
531.28	23758.78
531.46	23936.66
531.63	23999.85
531.80	23934.32
531.97	24025.60
532.14	24240.93
532.31	23946.02
532.48	24105.18
532.65	24084.11
532.82	23899.21
532.99	24180.07
533.16	24004.53
533.33	24285.40
533.50	24271.36
533.67	24643.50
533.84	24315.83
534.01	24383.70
534.18	24105.18
534.35	24713.72
534.52	24231.57
534.69	24552.22
534.86	24397.74
535.03	24503.07
535.20	24390.72
535.37	24362.64
535.54	24680.95
535.71	24697.33
535.88	24613.07
536.05	24528.81
536.22	24449.24
536.38	24709.04
536.55	24858.83
536.72	24802.66
536.89	24807.34
537.06	24938.41
537.23	25081.18
537.40	24875.21
537.57	25364.39
537.74	25092.88
537.91	25020.33
538.08	25523.54
538.25	24842.45
538.42	25076.50
538.59	25186.50
538.75	25078.84
538.92	25076.50
539.09	24992.24
539.26	25006.28
539.43	25411.20
539.60	25120.97
539.77	25060.12
539.94	25617.16
540.11	25378.43
540.28	25523.54
540.44	25289.49
540.61	25481.41
540.78	25263.74
540.95	25467.37
541.12	25481.41
541.29	25521.20
541.46	25687.38
541.62	25373.75
541.79	25565.67
541.96	25432.26
542.13	25912.07
542.30	25771.64
542.47	25816.11
542.63	26052.50
542.80	26291.24
542.97	26335.71
543.14	26333.37
543.31	26111.02
543.48	26471.46
543.64	26389.54
543.81	26335.71
543.98	26340.39
544.15	26335.71
544.32	26469.12
544.48	26466.78
544.65	26602.53
544.82	26230.38
544.99	26139.10
545.16	26312.30
545.32	26286.56
545.49	26789.77
545.66	26728.92
545.83	26529.97
546.00	26611.89
546.16	26623.59
546.33	26611.89
546.50	26398.90
546.67	26567.42
546.83	26417.63
547.00	26738.28
547.17	26497.20
547.34	26771.05
547.50	27112.77
547.67	27236.81
547.84	26834.24
548.00	26965.31
548.17	27466.19
548.34	27009.78
548.51	26801.47
548.67	27180.64
548.84	27140.85
549.01	27077.66
549.18	27070.64
549.34	27255.54
549.51	26803.82
549.68	27040.21
549.84	27129.15
550.01	27065.96
550.18	27178.30
550.34	27255.54
550.51	27372.57
550.68	27604.28
550.84	27000.42
551.01	27363.20
551.18	27513.00
551.34	26859.99
551.51	27363.20
551.68	27564.49
551.84	27435.76
552.01	27580.87
552.18	27723.65
552.34	27573.85
552.51	27707.26
552.68	27412.35
552.84	27798.54
553.01	27789.18
553.18	27604.28
553.34	27672.15
553.51	27765.78
553.67	27845.35
553.84	28074.73
554.01	27910.89
554.17	27927.27
554.34	27805.56
554.51	27985.79
554.67	27747.05
554.84	27566.83
555.00	27693.22
555.17	28231.54
555.33	28233.88
555.50	27637.05
555.67	27508.32
555.83	28208.14
556.00	27936.63
556.16	28336.87
556.33	27868.76
556.50	28163.67
556.66	28261.97
556.83	28051.32
556.99	28439.85
557.16	28217.50
557.32	28400.06
557.49	28439.85
557.65	28486.66
557.82	27910.89
557.98	28140.26
558.15	28554.54
558.32	28348.57
558.48	28891.57
558.65	28011.53
558.81	28470.28
558.98	28601.35
559.14	28451.55
559.31	28327.50
559.47	28465.60
559.64	28828.38
559.80	28463.25
559.97	28739.44
560.13	28701.99
560.30	28470.28
560.46	28409.42
560.63	28683.27
560.79	28957.11
560.96	28566.24
561.12	28737.10
561.29	28432.83
561.45	28620.07
561.61	28776.89
561.78	28638.80
561.94	28428.15
562.11	28985.19
562.27	28554.54
562.44	28952.43
562.60	28701.99
562.77	29144.35
562.93	28725.39
563.10	28762.84
563.26	28655.18
563.42	29053.07
563.59	28741.78
563.75	29149.03
563.92	28870.51
564.08	28826.04
564.24	29181.80
564.41	28826.04
564.57	28950.09
564.74	29069.45
564.90	28987.53
565.07	29193.50
565.23	29085.84
565.39	28851.78
565.56	29305.85
565.72	29280.10
565.88	28926.68
566.05	29069.45
566.21	29130.31
566.38	29383.09
566.54	29427.56
566.70	29465.00
566.87	28900.94
567.03	29242.65
567.19	29252.02
567.36	29317.55
567.52	29003.92
567.68	29074.13
567.85	29046.05
568.01	29144.35
568.17	29378.40
568.34	29076.48
568.50	29422.87
568.66	29170.10
568.83	29495.43
568.99	29376.06
569.15	29275.42
569.32	29317.55
569.48	29465.00
569.64	28987.53
569.81	28936.04
569.97	29425.22
570.13	29572.67
570.30	29355.00
570.46	29371.38
570.62	29088.18
570.78	29259.04
570.95	29165.42
571.11	29132.65
571.27	29088.18
571.43	29207.55
571.60	29340.96
571.76	29085.84
571.92	29481.39
572.09	29411.17
572.25	29612.46
572.41	29560.97
572.57	29247.33
572.74	29909.71
572.90	29127.97
573.06	29621.82
573.22	28952.43
573.38	29277.76
573.55	29202.86
573.71	29703.74
573.87	29762.25
574.03	29523.52
574.20	29446.28
574.36	29383.09
574.52	29340.96
574.68	29434.58
574.84	29481.39
575.01	29738.85
575.17	29223.93
575.33	29465.00
575.49	29317.55
575.65	29696.72
575.82	30221.00
575.98	29387.77
576.14	29244.99
576.30	29713.10
576.46	29254.36
576.62	29788.00
576.79	29759.91
576.95	29645.23
577.11	29546.92
577.27	29912.05
577.43	29745.87
577.59	29677.99
577.75	29446.28
577.92	29497.77
578.08	29565.65
578.24	29270.74
578.40	29635.86
578.56	29675.65
578.72	29579.69
578.88	29846.51
579.04	29811.40
579.21	29556.28
579.37	29462.66
579.53	29900.34
579.69	29457.98
579.85	29832.47
580.01	29542.24
580.17	29235.63
580.33	29481.39
580.49	29523.52
580.65	29893.32
580.82	29764.59
580.98	29710.76
581.14	29783.32
581.30	30120.35
581.46	29654.59
581.62	29242.65
581.78	29638.20
581.94	29989.28
582.10	29820.77
582.26	29783.32
582.42	29638.20
582.58	30082.91
582.74	29649.91
582.90	29783.32
583.06	29914.39
583.22	29563.31
583.38	29483.73
583.54	29504.79
583.70	29795.02
583.86	29921.41
584.02	29577.35
584.18	30127.38
584.34	29928.43
584.50	29813.74
584.66	30171.85
584.82	29642.88
584.98	29844.17
585.14	29912.05
585.30	29647.57
585.46	29659.27
585.62	29855.87
585.78	29879.28
585.94	29317.55
586.10	30167.16
586.26	29881.62
586.42	29802.04
586.58	30066.52
586.74	29535.22
586.90	29493.09
587.06	29677.99
587.22	29364.36
587.38	29584.37
587.54	29827.79
587.70	29888.64
587.86	30029.07
588.02	30082.91
588.18	30433.99
588.34	30099.29
588.49	29902.68
588.65	30195.25
588.81	29837.15
588.97	30150.78
589.13	29825.45
589.29	29717.78
589.45	30305.26
589.61	29944.81
589.77	30551.01
589.93	30110.99
590.08	29993.97
590.24	30558.03
590.40	30246.74
590.56	30136.74
590.72	29919.07
590.88	29876.94
591.04	29771.61
591.20	30120.35
591.35	30670.38
591.51	30672.72
591.67	30391.86
591.83	30504.20
591.99	30291.21
592.15	30110.99
592.31	30068.86
592.46	29914.39
592.62	29762.25
592.78	29961.20
592.94	29942.47
593.10	29965.88
593.26	30349.73
593.41	30274.83
593.57	30527.61
593.73	30061.84
593.89	30448.03
594.05	30263.13
594.20	30047.80
594.36	30136.74
594.52	30623.57
594.68	29947.15
594.84	29713.10
594.99	30469.09
595.15	30370.79
595.31	30047.80
595.47	30260.79
595.62	30150.78
595.78	30391.86
595.94	30462.07
596.10	29876.94
596.25	30328.66
596.41	29933.11
596.57	30052.48
596.73	30246.74
596.88	30696.13
597.04	30321.64
597.20	30143.76
597.36	30735.92
597.51	30747.62
597.67	30246.74
597.83	30328.66
597.99	30642.29
598.14	30242.06
598.30	30036.09
598.46	30422.28
598.61	30419.94
598.77	30480.80
598.93	30408.24
599.09	30504.20
599.24	30721.87
599.40	30637.61
599.56	30312.28
599.71	30300.58
599.87	30183.55
600.03	30389.52
600.18	30527.61
600.34	30134.40
600.50	30466.75
600.65	30452.71
600.81	30824.86
600.97	30888.05
601.12	30469.09
601.28	30445.69
601.44	30639.95
601.59	30274.83
601.75	30441.01
601.91	30192.91
602.06	29961.20
602.22	30141.42
602.37	30377.81
602.53	30265.47
602.69	30672.72
602.84	30546.33
603.00	30588.46
603.16	30396.54
603.31	30281.85
603.47	30457.39
603.62	30061.84
603.78	29867.58
603.94	30354.41
604.09	30534.63
604.25	30284.19
604.40	29790.34
604.56	30321.64
604.71	30745.28
604.87	30747.62
605.03	30422.28
605.18	30366.11
605.34	30426.96
605.49	30075.88
605.65	29893.32
605.80	29867.58
605.96	29802.04
606.12	30326.32
606.27	30331.00
606.43	30050.14
606.58	30338.02
606.74	30438.67
606.89	30132.06
607.05	30164.82
607.20	30169.51
607.36	30015.03
607.51	30429.30
607.67	29951.84
607.82	29984.60
607.98	29862.90
608.13	30148.44
608.29	29993.97
608.44	30480.80
608.60	29998.65
608.75	30375.47
608.91	30506.54
609.06	30483.14
609.22	30232.70
609.37	29612.46
609.53	30153.12
609.68	29991.62
609.84	30101.63
609.99	30099.29
610.15	30029.07
610.30	30197.59
610.46	30202.27
610.61	29867.58
610.76	30396.54
610.92	30017.37
611.07	29610.12
611.23	30094.61
611.38	30005.67
611.54	30052.48
611.69	29886.30
611.84	29823.11
612.00	30110.99
612.15	30036.09
612.31	29935.45
612.46	30181.21
612.62	30157.80
612.77	29876.94
612.92	30384.83
613.08	30113.33
613.23	30106.31
613.39	29837.15
613.54	29392.45
613.69	30022.05
613.85	29804.38
614.00	29827.79
614.15	30183.55
614.31	29813.74
614.46	30169.51
614.62	29949.50
614.77	30148.44
614.92	29575.01
615.08	29546.92
615.23	29673.31
615.38	29422.87
615.54	29600.76
615.69	29544.58
615.84	29825.45
616.00	29811.40
616.15	29565.65
616.30	29996.31
616.46	29633.52
616.61	29530.54
616.76	29853.53
616.92	29916.73
617.07	29720.12
617.22	29476.71
617.37	29544.58
617.53	29940.13
617.68	29460.32
617.83	29486.07
617.99	29254.36
618.14	29717.78
618.29	29809.06
618.45	29483.73
618.60	29549.26
618.75	29586.71
618.90	29427.56
619.06	29394.79
619.21	29490.75
619.36	29680.33
619.51	28858.81
619.67	28673.90
619.82	29317.55
619.97	29329.25
620.12	29200.52
620.28	29441.60
620.43	29329.25
620.58	29387.77
620.73	29099.88
620.89	29282.44
621.04	28877.53
621.19	29446.28
621.34	29252.02
621.49	28980.51
621.65	29060.09
621.80	29359.68
621.95	29193.50
622.10	29104.56
622.25	28755.82
622.41	28903.28
622.56	28872.85
622.71	28992.22
622.86	29057.75
623.01	29284.78
623.16	28837.74
623.32	28603.69
623.47	28730.08
623.62	28889.23
623.77	28772.21
623.92	28657.52
624.07	28650.50
624.23	28872.85
624.38	29301.17
624.53	28629.43
624.68	29347.98
624.83	29273.08
624.98	28732.42
625.13	28833.06
625.29	28559.22
625.44	29062.43
625.59	28711.35
625.74	28493.68
625.89	28369.63
626.04	28479.64
626.19	28622.41
626.34	28343.89
626.49	28517.09
626.65	28346.23
626.80	28711.35
626.95	28318.14
627.10	28386.02
627.25	28414.10
627.40	28070.04
627.55	28458.57
627.70	28404.74
627.85	28709.01
628.00	28362.61
628.15	28353.25
628.30	28306.44
628.45	28034.94
628.60	28156.64
628.76	28381.34
628.91	28210.48
629.06	28313.46
629.21	28128.56
629.36	28116.86
629.51	28079.41
629.66	28133.24
629.81	28098.13
629.96	28212.82
630.11	28121.54
630.26	27946.00
630.41	28177.71
630.56	27999.83
630.71	28137.92
630.86	27901.53
631.01	28088.77
631.16	28411.76
631.31	28093.45
631.46	27962.38
631.61	27997.49
631.76	27775.14
631.91	27693.22
632.06	27697.90
632.21	27482.57
632.36	27763.43
632.51	27718.96
632.66	27976.42
632.81	27644.07
632.96	28247.93
633.10	27725.99
633.25	27791.52
633.40	27587.89
633.55	27697.90
633.70	27590.24
633.85	27641.73
634.00	27812.59
634.15	27517.68
634.30	27475.55
634.45	27735.35
634.60	27625.34
634.75	27367.88
634.90	27449.80
635.05	27627.68
635.19	27367.88
635.34	28053.66
635.49	27742.37
635.64	27704.92
635.79	27243.84
635.94	27606.62
636.09	27391.29
636.24	27108.08
636.39	27281.28
636.53	27325.75
636.68	26977.01
636.83	27307.03
636.98	27461.51
637.13	27381.93
637.28	27814.93
637.43	27505.98
637.57	27108.08
637.72	27278.94
637.87	27215.75
638.02	27136.17
638.17	27016.80
638.32	26958.29
638.46	26859.99
638.61	26946.59
638.76	26782.75
638.91	27040.21
639.06	27105.74
639.20	26881.05
639.35	27161.92
639.50	27145.53
639.65	27583.21
639.80	26974.67
639.94	26988.72
640.09	26955.95
640.24	26913.82
640.39	27047.23
640.54	26597.85
640.68	26850.63
640.83	26422.31
640.98	26754.66
641.13	26740.62
641.27	27054.25
641.42	26501.89
641.57	26913.82
641.72	27056.59
641.86	26810.84
642.01	26815.52
642.16	26787.43
642.31	26728.92
642.45	26642.32
642.60	26263.15
642.75	26347.41
642.90	26792.11
643.04	26604.87
643.19	26796.79
643.34	26934.88
643.48	26539.33
643.63	26443.37
643.78	26417.63
643.93	26548.70
644.07	26520.61
644.22	26939.57
644.37	26651.68
644.51	26855.31
644.66	26377.84
644.81	26424.65
644.95	26216.34
645.10	26450.39
645.25	26249.11
645.39	26469.12
645.54	26160.17
645.69	26424.65
645.83	26188.25
645.98	26658.70
646.13	26260.81
646.27	26455.08
646.42	26527.63
646.57	26274.85
646.71	26075.91
646.86	26281.88
647.00	26096.97
647.15	26305.28
647.30	26073.57
647.44	25963.56
647.59	25898.03
647.74	26225.70
647.88	26157.83
648.03	26031.44
648.17	26127.40
648.32	26256.13
648.47	26092.29
648.61	26066.55
648.76	26197.62
648.90	25993.99
649.05	26010.37
649.20	25678.02
649.34	25708.44
649.49	25582.06
649.63	25968.24
649.78	25795.04
649.92	25582.06
650.07	25881.64
650.21	25525.88
650.36	25865.26
650.51	26082.93
650.65	26064.21
650.80	25846.54
650.94	25954.20
651.09	26045.48
651.23	25474.39
651.38	25792.70
651.52	25727.17
651.67	25703.76
651.81	25593.76
651.96	25785.68
652.10	25301.19
652.25	25720.15
652.39	25900.37
652.54	25579.71
652.68	25582.06
652.83	25781.00
652.97	25832.49
653.12	25605.46
653.26	25568.01
653.41	25448.64
653.55	25408.86
653.70	25369.07
653.84	25764.62
653.99	25095.22
654.13	25809.09
654.27	25256.72
654.42	25387.79
654.56	25228.63
654.71	25549.29
654.85	25497.80
655.00	25584.40
655.14	25476.73
655.29	25340.98
655.43	25434.60
655.57	25387.79
655.72	25149.06
655.86	25057.78
656.01	25048.41
656.15	25029.69
656.30	25441.62
656.44	25137.35
656.58	25099.90
656.73	24793.29
656.87	25408.86
657.01	25020.33
657.16	25298.85
657.30	25139.69
657.45	25240.34
657.59	25319.92
657.73	24755.85
657.88	24826.06
658.02	25282.47
658.16	24638.82
658.31	25135.01
658.45	24716.06
658.60	24746.48
658.74	24767.55
658.88	24865.85
659.03	24486.68
659.17	24812.02
659.31	25015.65
659.46	24709.04
659.60	24996.92
659.74	24875.21
659.89	24577.97
660.03	24524.13
660.17	24315.83
660.32	24650.52
660.46	24449.24
660.60	24217.52
660.74	24367.32
660.89	24648.18
661.03	24140.29
661.17	24313.48
661.32	24503.07
661.46	24528.81
661.60	24119.22
661.74	24343.91
661.89	24395.40
662.03	24294.76
662.17	24533.50
662.31	24161.35
662.46	23845.38
662.60	24329.87
662.74	24238.59
662.88	23992.83
663.03	23948.36
663.17	24011.56
663.31	23857.08
663.45	23763.46
663.60	23351.52
663.74	23648.77
663.88	23903.89
664.02	23655.79
664.17	23789.20
664.31	23754.10
664.45	23562.17
664.59	23971.77
664.73	23559.83
664.88	23461.53
665.02	23173.64
665.16	23447.49
665.30	23407.70
665.44	23220.45
665.59	22883.42
665.73	23063.64
665.87	23058.96
666.01	23119.81
666.15	23293.01
666.29	23220.45
666.44	23419.40
666.58	22944.27
666.72	23414.72
666.86	23431.10
667.00	23358.55
667.14	23035.55
667.28	23077.68
667.43	22876.40
667.57	23126.83
667.71	23000.44
667.85	22668.09
667.99	23075.34
668.13	22955.97
668.27	22511.27
668.41	23030.87
668.56	22551.06
668.70	22611.92
668.84	22665.75
668.98	22796.82
669.12	22927.89
669.26	22597.87
669.40	22661.07
669.54	22321.69
669.68	22675.11
669.82	22508.93
669.96	22155.51
670.10	21979.97
670.25	22277.22
670.39	22253.81
670.53	22384.88
670.67	21982.31
670.81	22309.99
670.95	22167.21
671.09	21926.14
671.23	22363.82
671.37	22195.30
671.51	22153.17
671.65	22164.87
671.79	21879.33
671.93	21858.26
672.07	21750.60
672.21	21862.94
672.35	21654.64
672.49	21652.30
672.63	21600.80
672.77	21558.67
672.91	21472.07
673.05	21345.69
673.19	21572.72
673.33	21310.58
673.47	21364.41
673.61	21212.28
673.75	21607.83
673.89	21287.17
674.03	21371.43
674.17	21394.84
674.31	20833.11
674.45	21092.91
674.59	20957.16
674.73	21144.40
674.87	21153.76
675.01	21170.15
675.15	20793.32
675.29	20610.76
675.43	20936.09
675.56	20666.93
675.70	20828.43
675.84	20772.25
675.98	19932.00
676.12	20650.55
676.26	20919.71
676.40	20952.48
676.54	20898.64
676.68	20599.05
676.82	20255.00
676.96	20489.05
677.10	20297.13
677.23	20229.25
677.37	20112.22
677.51	20140.31
677.65	19878.17
677.79	19763.48
677.93	19751.78
678.07	19840.72
678.21	19513.05
678.34	19480.28
678.48	19634.75
678.62	19578.58
678.76	19880.51
678.90	19711.99
679.04	19400.70
679.18	19421.77
679.31	19229.84
679.45	19356.23
679.59	18731.31
679.73	19222.82
679.87	19028.56
680.00	19112.81
680.14	18883.44
680.28	18801.52
680.42	18883.44
680.56	18684.50
680.70	19138.56
680.83	18925.57
680.97	18733.65
681.11	18628.32
681.25	18855.36
681.39	18197.67
681.52	18771.10
681.66	18200.01
681.80	18354.48
681.94	18291.29
682.07	18059.57
682.21	18185.96
682.35	17727.22
682.49	17963.61
682.62	17923.82
682.76	18003.40
682.90	18221.07
683.04	17877.01
683.17	17921.48
683.31	18031.49
683.45	17984.68
683.59	17762.33
683.72	17593.81
683.86	17713.17
684.00	17748.28
684.13	17591.47
684.27	17385.50
684.41	17240.39
684.55	17092.93
684.68	17018.04
684.82	17411.25
684.96	16980.59
685.09	17018.04
685.23	16893.99
685.37	16875.26
685.50	17121.02
685.64	16929.09
685.78	17092.93
685.91	16945.48
686.05	16931.44
686.19	16727.81
686.32	16795.68
686.46	16453.97
686.60	16409.50
686.73	16643.55
686.87	16191.83
687.01	16503.12
687.14	16149.70
687.28	16205.87
687.42	16362.69
687.55	16135.65
687.69	15962.45
687.82	16084.16
687.96	15925.00
688.10	15962.45
688.23	16044.37
688.37	15770.53
688.50	15978.84
688.64	15815.00
688.78	15693.29
688.91	15569.24
689.05	15667.55
689.18	15538.82
689.32	15089.43
689.46	15286.04
689.59	15307.10
689.73	15255.61
689.86	15351.57
690.00	15257.95
690.13	15262.63
690.27	15176.03
690.41	15122.20
690.54	15056.67
690.68	14874.10
690.81	15066.03
690.95	15030.92
691.08	14916.23
691.22	15066.03
691.35	14869.42
691.49	14846.02
691.62	14476.21
691.76	14483.24
691.89	14602.60
692.03	14413.02
692.16	14216.41
692.30	14134.50
692.43	14066.62
692.57	14097.05
692.70	14136.84
692.84	14083.00
692.97	13614.90
693.11	14218.75
693.24	13799.80
693.38	13888.74
693.51	13867.67
693.65	14036.19
693.78	13673.41
693.92	13862.99
694.05	13535.32
694.19	13640.64
694.32	13722.56
694.45	13540.00
694.59	13308.29
694.72	13205.30
694.86	12973.59
694.99	13048.49
695.13	13191.26
695.26	13207.64
695.39	13053.17
695.53	12982.95
695.66	12886.99
695.80	13060.19
695.93	13090.62
696.07	13139.77
696.20	12886.99
696.33	12952.52
696.47	12748.90
696.60	12692.73
696.73	12699.75
696.87	12250.36
697.00	12571.02
697.14	12468.03
697.27	12386.12
697.40	12154.40
697.54	12217.60
697.67	12346.33
697.80	12126.32
697.94	11880.56
698.07	11971.84
698.21	12042.06
698.34	12079.50
698.47	12226.96
698.61	11957.80
698.74	11903.96
698.87	11887.58
699.01	11892.26
699.14	11927.37
699.27	11777.58
699.40	11683.95
699.54	11833.75
699.67	11683.95
699.80	11421.81
699.94	11367.98
700.07	11433.52
700.20	11199.46
700.34	11075.42
700.47	11379.68
700.60	11424.15
700.73	11468.62
700.87	11213.51
701.00	11063.71
701.13	10972.43
701.26	10951.37
701.40	10895.19
701.53	10918.60
701.66	10902.22
701.79	10796.89
701.93	10913.92
702.06	10869.45
702.19	10576.88
702.32	10707.95
702.46	10375.59
702.59	10195.37
702.72	10324.10
702.85	10375.59
702.99	10373.25
703.12	10293.68
703.25	10043.24
703.38	10188.35
703.51	10352.19
703.65	10038.56
703.78	10136.86
703.91	10153.24
704.04	10071.33
704.17	10097.07
704.31	10057.28
704.44	10232.82
704.57	9785.78
704.70	9483.85
704.83	9839.61
704.96	9710.88
705.10	9729.61
705.23	9607.90
>>>>>End Processed Spectral Data<<<<<
