SpectraSuite Data File
++++++++++++++++++++++++++++++++++++
Date: Fri Oct 18 13:58:07 GMT-05:00 2013
User: bianchi
Dark Spectrum Present: No
Reference Spectrum Present: No
Number of Sampled Component Spectra: 1
Spectrometers: USB2+H05261
Integration Time (usec): 50000 (USB2+H05261)
Spectra Averaged: 1 (USB2+H05261)
Boxcar Smoothing: 0 (USB2+H05261)
Correct for Electrical Dark: No (USB2+H05261)
Strobe/Lamp Enabled: No (USB2+H05261)
Correct for Detector Non-linearity: No (USB2+H05261)
Correct for Stray Light: No (USB2+H05261)
Number of Pixels in Processed Spectrum: 2048
>>>>>Begin Processed Spectral Data<<<<<
365.73	0.00
365.92	0.00
366.12	0.00
366.32	0.00
366.52	0.00
366.72	0.00
366.91	0.00
367.11	0.00
367.31	0.00
367.51	0.00
367.70	0.00
367.90	0.00
368.10	0.00
368.30	0.00
368.49	0.00
368.69	0.00
368.89	0.00
369.09	0.00
369.28	0.00
369.48	0.00
369.68	0.00
369.87	0.00
370.07	0.00
370.27	0.00
370.47	0.00
370.66	107.66
370.86	72.56
371.06	128.73
371.25	84.26
371.45	154.48
371.65	154.48
371.84	191.92
372.04	152.13
372.24	184.90
372.44	166.18
372.63	173.20
372.83	238.73
373.03	196.60
373.22	205.97
373.42	212.99
373.62	217.67
373.81	177.88
374.01	301.93
374.21	229.37
374.40	238.73
374.60	163.84
374.79	217.67
374.99	182.56
375.19	257.46
375.38	210.65
375.58	201.29
375.78	220.01
375.97	266.82
376.17	320.65
376.37	306.61
376.56	294.91
376.76	330.02
376.95	248.10
377.15	278.52
377.35	269.16
377.54	273.84
377.74	248.10
377.93	294.91
378.13	224.69
378.33	273.84
378.52	283.20
378.72	227.03
378.91	327.68
379.11	332.36
379.31	252.78
379.50	327.68
379.70	306.61
379.89	344.06
380.09	348.74
380.28	313.63
380.48	330.02
380.68	339.38
380.87	294.91
381.07	372.15
381.26	341.72
381.46	271.50
381.65	346.40
381.85	353.42
382.04	285.55
382.24	409.59
382.43	355.76
382.63	447.04
382.83	414.27
383.02	292.57
383.22	379.17
383.41	355.76
383.61	407.25
383.80	332.36
384.00	292.57
384.19	404.91
384.39	390.87
384.58	517.26
384.78	388.53
384.97	397.89
385.17	374.49
385.36	372.15
385.56	346.40
385.75	360.44
385.95	320.65
386.14	451.72
386.34	327.68
386.53	386.19
386.72	433.00
386.92	456.40
387.11	493.85
387.31	482.15
387.50	454.06
387.70	477.47
387.89	411.93
388.09	400.23
388.28	458.74
388.48	491.51
388.67	423.64
388.86	388.53
389.06	521.94
389.25	517.26
389.45	465.77
389.64	470.45
389.84	510.24
390.03	482.15
390.22	503.22
390.42	458.74
390.61	496.19
390.81	484.49
391.00	458.74
391.19	451.72
391.39	535.98
391.58	512.58
391.78	531.30
391.97	559.39
392.16	507.90
392.36	526.62
392.55	442.36
392.75	564.07
392.94	540.66
393.13	578.11
393.33	601.52
393.52	596.84
393.71	580.45
393.91	503.22
394.10	592.16
394.29	545.34
394.49	510.24
394.68	580.45
394.88	664.71
395.07	655.35
395.26	587.47
395.46	554.71
395.65	624.92
395.84	678.76
396.04	695.14
396.23	596.84
396.42	606.20
396.62	613.22
396.81	594.50
397.00	585.13
397.19	643.65
397.39	643.65
397.58	690.46
397.77	613.22
397.97	676.41
398.16	660.03
398.35	746.63
398.55	664.71
398.74	683.44
398.93	671.73
399.12	737.27
399.32	725.57
399.51	727.91
399.70	823.87
399.90	730.25
400.09	704.50
400.28	741.95
400.47	772.38
400.67	793.44
400.86	807.48
401.05	758.33
401.24	819.19
401.44	770.04
401.63	847.27
401.82	791.10
402.01	753.65
402.21	875.36
402.40	809.83
402.59	781.74
402.78	870.68
402.97	908.13
403.17	816.85
403.36	816.85
403.55	856.64
403.74	873.02
403.93	901.11
404.13	978.34
404.32	936.21
404.51	905.79
404.70	898.77
404.89	919.83
405.09	936.21
405.28	987.71
405.47	1071.97
405.66	957.28
405.85	1046.22
406.05	1018.13
406.24	976.00
406.43	1015.79
406.62	1048.56
406.81	1149.20
407.00	1004.09
407.20	983.02
407.39	957.28
407.58	1153.88
407.77	1107.07
407.96	1057.92
408.15	1064.94
408.34	1048.56
408.54	1062.60
408.73	1160.91
408.92	1179.63
409.11	1135.16
409.30	1116.44
409.49	1212.40
409.68	1153.88
409.87	1041.54
410.07	1158.57
410.26	1214.74
410.45	1291.98
410.64	1156.22
410.83	1196.01
411.02	1224.10
411.21	1266.23
411.40	1343.47
411.59	1249.85
411.78	1256.87
411.98	1280.27
412.17	1345.81
412.36	1200.69
412.55	1366.87
412.74	1350.49
412.93	1409.00
413.12	1376.24
413.31	1336.45
413.50	1345.81
413.69	1406.66
413.88	1488.58
414.07	1416.02
414.26	1451.13
414.45	1465.18
414.64	1495.60
414.83	1519.01
415.02	1526.03
415.22	1514.33
415.41	1542.41
415.60	1612.63
415.79	1551.78
415.98	1619.65
416.17	1671.14
416.36	1710.93
416.55	1694.55
416.74	1607.95
416.93	1668.80
417.12	1722.63
417.31	1753.06
417.50	1811.57
417.69	1802.21
417.88	1703.91
418.07	1776.47
418.26	1788.17
418.45	1685.19
418.64	1863.07
418.83	1769.44
419.02	1769.44
419.21	1886.47
419.39	1872.43
419.58	1783.49
419.77	1813.92
419.96	1895.83
420.15	1926.26
420.34	1769.44
420.53	1926.26
420.72	2015.20
420.91	1984.77
421.10	1940.30
421.29	1963.71
421.48	1919.24
421.67	1902.86
421.86	1870.09
422.05	2017.54
422.24	1963.71
422.43	1989.46
422.61	2045.63
422.80	1968.39
422.99	2085.42
423.18	2073.71
423.37	2017.54
423.56	2052.65
423.75	2019.88
423.94	1991.80
424.13	1928.60
424.32	1977.75
424.50	2045.63
424.69	2003.50
424.88	2017.54
425.07	2059.67
425.26	2024.56
425.45	1989.46
425.64	2062.01
425.83	2092.44
426.01	2057.33
426.20	2113.50
426.39	1973.07
426.58	2078.40
426.77	2186.06
426.96	2146.27
427.15	1991.80
427.33	2225.85
427.52	2111.16
427.71	2143.93
427.90	2073.71
428.09	2111.16
428.28	2179.04
428.46	2235.21
428.65	2275.00
428.84	2221.17
429.03	2214.15
429.22	2127.55
429.40	2169.68
429.59	2165.00
429.78	2115.84
429.97	2246.91
430.16	2307.77
430.34	2221.17
430.53	2333.51
430.72	2356.92
430.91	2282.02
431.10	2244.57
431.28	2331.17
431.47	2438.84
431.66	2436.50
431.85	2377.98
432.03	2368.62
432.22	2518.42
432.41	2443.52
432.60	2387.35
432.79	2445.86
432.97	2513.74
433.16	2527.78
433.35	2487.99
433.54	2562.89
433.72	2485.65
433.91	2551.18
434.10	2597.99
434.28	2588.63
434.47	2485.65
434.66	2464.58
434.85	2551.18
435.03	2485.65
435.22	2637.78
435.41	2715.02
435.59	2560.55
435.78	2654.17
435.97	2691.62
436.16	2633.10
436.34	2670.55
436.53	2752.47
436.72	2836.73
436.90	2750.13
437.09	2787.58
437.28	2558.21
437.46	2724.38
437.65	2818.00
437.84	2787.58
438.02	2787.58
438.21	2801.62
438.40	2801.62
438.58	2958.44
438.77	2890.56
438.96	2850.77
439.14	3000.57
439.33	3019.29
439.52	3061.42
439.70	2972.48
439.89	3028.65
440.08	3054.40
440.26	3000.57
440.45	3066.10
440.63	3166.74
440.82	3096.53
441.01	3232.28
441.19	3082.49
441.38	3173.77
441.57	3220.58
441.75	3297.81
441.94	3276.75
442.12	3222.92
442.31	3290.79
442.50	3382.07
442.68	3379.73
442.87	3447.61
443.05	3304.84
443.24	3412.50
443.43	3318.88
443.61	3440.59
443.80	3459.31
443.98	3398.46
444.17	3260.37
444.35	3442.93
444.54	3524.85
444.73	3522.51
444.91	3405.48
445.10	3417.18
445.28	3536.55
445.47	3300.16
445.65	3527.19
445.84	3417.18
446.02	3541.23
446.21	3529.53
446.39	3471.01
446.58	3604.42
446.77	3691.02
446.95	3445.27
447.14	3407.82
447.32	3452.29
447.51	3473.36
447.69	3557.61
447.88	3620.81
448.06	3342.28
448.25	3571.66
448.43	3644.21
448.62	3597.40
448.80	3597.40
448.99	3566.98
449.17	3679.32
449.36	3564.64
449.54	3653.58
449.73	3763.58
449.91	3723.79
450.10	3735.50
450.28	3911.04
450.46	3651.24
450.65	3735.50
450.83	3815.07
451.02	3819.75
451.20	3948.48
451.39	3943.80
451.57	3845.50
451.76	3794.01
451.94	3922.74
452.13	3836.14
452.31	3934.44
452.49	3892.31
452.68	3934.44
452.86	4016.36
453.05	3941.46
453.23	3988.27
453.42	3873.59
453.60	3887.63
453.78	4018.70
453.97	3960.19
454.15	3922.74
454.34	3904.01
454.52	4159.13
454.70	4124.02
454.89	4124.02
455.07	4109.98
455.26	4011.68
455.44	4156.79
455.62	4166.15
455.81	4166.15
455.99	4248.07
456.17	4196.58
456.36	4229.35
456.54	4327.65
456.73	4315.95
456.91	4329.99
457.09	4217.65
457.28	4470.42
457.46	4337.01
457.64	4475.10
457.83	4416.59
458.01	4360.42
458.19	4372.12
458.38	4444.68
458.56	4397.87
458.74	4496.17
458.93	4468.08
459.11	4547.66
459.29	4540.64
459.48	4521.92
459.66	4521.92
459.84	4540.64
460.03	4671.71
460.21	4571.07
460.39	4566.39
460.57	4418.93
460.76	4833.21
460.94	4725.54
461.12	4723.20
461.31	4788.74
461.49	4819.16
461.67	4704.48
461.85	4732.56
462.04	4802.78
462.22	5195.99
462.40	4746.61
462.59	4671.71
462.77	4751.29
462.95	4851.93
463.13	4870.65
463.32	4746.61
463.50	5074.28
463.68	4786.40
463.86	5001.72
464.05	4870.65
464.23	4854.27
464.41	4947.89
464.59	4702.14
464.78	5074.28
464.96	5088.32
465.14	4987.68
465.32	5036.83
465.50	5191.31
465.69	5041.51
465.87	4943.21
466.05	4961.94
466.23	4957.25
466.41	4952.57
466.60	5366.85
466.78	5186.63
466.96	5158.54
467.14	4987.68
467.32	5088.32
467.51	5198.33
467.69	5097.69
467.87	5425.36
468.05	5301.31
468.23	5093.01
468.41	5128.11
468.60	5420.68
468.78	5310.68
468.96	5214.71
469.14	5341.10
469.32	5249.82
469.50	5188.97
469.69	5275.57
469.87	5427.70
470.05	5636.01
470.23	5451.11
470.41	5455.79
470.59	5518.98
470.77	5345.78
470.95	5474.51
471.14	5575.16
471.32	5521.32
471.50	5710.91
471.68	5640.69
471.86	5582.18
472.04	5755.38
472.22	5727.29
472.40	5785.80
472.58	5804.53
472.77	5778.78
472.95	5907.51
473.13	6047.94
473.31	5996.45
473.49	5806.87
473.67	5973.05
473.85	5717.93
474.03	6106.46
474.21	5954.32
474.39	6181.35
474.57	6139.23
474.75	6228.17
474.93	6291.36
475.12	6157.95
475.30	6223.48
475.48	6179.01
475.66	6160.29
475.84	6251.57
476.02	6534.78
476.20	6581.59
476.38	6509.03
476.56	6562.86
476.74	6628.40
476.92	6576.91
477.10	6534.78
477.28	6789.89
477.46	6843.73
477.64	6717.34
477.82	6888.20
478.00	7070.76
478.18	6871.81
478.36	7126.93
478.54	6937.35
478.72	7180.76
478.90	7344.60
479.08	7241.62
479.26	7384.39
479.44	7342.26
479.62	7417.16
479.80	7370.35
479.98	7410.14
480.16	7691.00
480.34	7487.37
480.52	7698.02
480.70	7826.75
480.88	7674.62
481.06	7702.70
481.24	7784.62
481.41	7892.29
481.59	7939.10
481.77	8124.00
481.95	8149.75
482.13	8201.24
482.31	8196.56
482.49	8503.17
482.67	8582.74
482.85	8404.86
483.03	8587.43
483.21	8645.94
483.39	8622.53
483.57	8535.93
483.74	8578.06
483.92	8730.20
484.10	8879.99
484.28	9088.30
484.46	9256.82
484.64	9240.44
484.82	9193.62
485.00	9362.14
485.18	9261.50
485.35	9523.64
485.53	9593.86
485.71	9514.28
485.89	9837.27
486.07	9703.86
486.25	9643.01
486.43	9743.65
486.61	9886.42
486.78	10066.64
486.96	10265.59
487.14	10038.56
487.32	10291.34
487.50	10312.40
487.68	10342.83
487.85	10321.76
488.03	10609.65
488.21	10759.44
488.39	10604.97
488.57	10768.80
488.75	10960.73
488.92	10949.03
489.10	11169.04
489.28	10986.47
489.46	11105.84
489.64	11293.08
489.81	11480.33
489.99	11428.84
490.17	11529.48
490.35	11843.11
490.53	11733.11
490.70	11913.33
490.88	11772.89
491.06	11822.05
491.24	11798.64
491.41	12060.78
491.59	12058.44
491.77	12018.65
491.95	12437.61
492.13	12280.79
492.30	12678.68
492.48	12416.54
492.66	12386.12
492.84	12524.21
493.01	12657.62
493.19	12737.20
493.37	12896.35
493.54	12669.32
493.72	12924.44
493.90	13018.06
494.08	13207.64
494.25	13343.39
494.43	13310.63
494.61	13174.88
494.79	13371.48
494.96	13378.50
495.14	13600.85
495.32	13425.31
495.49	13830.23
495.67	13741.29
495.85	13764.69
496.02	13994.06
496.20	14118.11
496.38	14181.31
496.55	14178.97
496.73	14450.47
496.91	14363.87
497.09	14286.63
497.26	14724.31
497.44	14504.30
497.62	14740.69
497.79	15012.20
497.97	14998.15
498.14	14857.72
498.32	15150.29
498.50	15005.17
498.67	15190.08
498.85	15042.62
499.03	15592.65
499.20	15220.50
499.38	15206.46
499.56	15288.38
499.73	15456.90
499.91	15623.08
500.08	15374.98
500.26	15555.20
500.44	15637.12
500.61	15679.25
500.79	15384.34
500.97	15880.53
501.14	16547.59
501.32	15936.71
501.49	15915.64
501.67	16133.31
501.84	16180.12
502.02	16102.89
502.20	16290.13
502.37	16428.22
502.55	16322.90
502.72	16428.22
502.90	16224.59
503.07	16425.88
503.25	16463.33
503.43	16498.44
503.60	16723.13
503.78	16727.81
503.95	16615.46
504.13	16706.74
504.30	16706.74
504.48	16737.17
504.65	17036.76
504.83	17153.79
505.01	17380.82
505.18	17280.18
505.36	17376.14
505.53	17224.00
505.71	17214.64
505.88	17294.22
506.06	17254.43
506.23	17483.80
506.41	17537.63
506.58	17425.29
506.76	17652.32
506.93	17858.29
507.11	17614.87
507.28	17713.17
507.46	17940.21
507.63	18129.79
507.81	18181.28
507.98	18019.78
508.16	18019.78
508.33	18052.55
508.50	18174.26
508.68	18202.35
508.85	18417.68
509.03	18352.14
509.20	18333.42
509.38	18670.45
509.55	18579.17
509.73	18787.48
509.90	18817.91
510.08	18764.07
510.25	18637.69
510.42	18995.79
510.60	19066.00
510.77	19089.41
510.95	18878.76
511.12	19152.60
511.30	18963.02
511.47	19115.16
511.64	19087.07
511.82	19194.73
511.99	18857.70
512.17	19396.02
512.34	19330.48
512.51	19454.53
512.69	19587.94
512.86	19587.94
513.04	19908.60
513.21	19389.00
513.38	19777.53
513.56	19477.94
513.73	19981.15
513.90	19765.82
514.08	19683.91
514.25	19992.86
514.43	20058.39
514.60	20081.80
514.77	20236.27
514.95	20009.24
515.12	20025.62
515.29	20135.63
515.47	20496.07
515.64	20133.29
515.81	20439.90
515.99	20439.90
516.16	20592.03
516.33	20947.79
516.51	20559.27
516.68	20477.35
516.85	20533.52
517.03	20790.98
517.20	20664.59
517.37	20711.40
517.54	20854.17
517.72	21055.46
517.89	20645.87
518.06	20999.29
518.24	20931.41
518.41	20954.82
518.58	21198.23
518.75	20634.16
518.93	21172.49
519.10	21385.47
519.27	21099.93
519.45	21523.57
519.62	21135.04
519.79	20875.24
519.96	21528.25
520.14	21673.36
520.31	21593.78
520.48	21888.69
520.65	21820.81
520.83	21486.12
521.00	22024.44
521.17	21734.21
521.34	21759.96
521.52	21818.47
521.69	21884.01
521.86	22094.66
522.03	22398.93
522.20	22164.87
522.38	22326.37
522.55	22085.30
522.72	22040.82
522.89	22052.53
523.07	22700.86
523.24	22328.71
523.41	22349.78
523.58	22167.21
523.75	22434.03
523.92	22691.49
524.10	22345.09
524.27	22864.69
524.44	22754.69
524.61	22684.47
524.78	23297.69
524.96	22881.08
525.13	22972.36
525.30	23257.90
525.47	22934.91
525.64	22993.42
525.81	22986.40
525.98	23632.39
526.16	23028.53
526.33	22981.72
526.50	23330.46
526.67	22803.84
526.84	23199.39
527.01	23101.09
527.18	23250.88
527.36	23433.44
527.53	23552.81
527.70	23758.78
527.87	23857.08
528.04	23466.21
528.21	23548.13
528.38	23456.85
528.55	24016.24
528.72	23569.19
528.89	23859.42
529.07	23892.19
529.24	23714.31
529.41	23840.70
529.58	23934.32
529.75	23833.68
529.92	23927.30
530.09	24123.90
530.26	24049.00
530.43	24002.19
530.60	24039.64
530.77	24276.04
530.94	23981.13
531.11	23683.88
531.28	23775.16
531.46	24109.86
531.63	24072.41
531.80	24250.29
531.97	24393.06
532.14	24755.85
532.31	24271.36
532.48	24428.17
532.65	24592.01
532.82	24617.75
532.99	24460.94
533.16	24294.76
533.33	24767.55
533.50	24973.52
533.67	24641.16
533.84	24592.01
534.01	24669.25
534.18	24655.20
534.35	24545.20
534.52	24776.91
534.69	25013.31
534.86	25329.28
535.03	24823.72
535.20	25001.60
535.37	25081.18
535.54	24900.96
535.71	24840.11
535.88	25434.60
536.05	25083.52
536.22	25678.02
536.38	25399.49
536.55	25261.40
536.72	25273.10
536.89	25308.21
537.06	25446.30
537.23	25385.45
537.40	25692.06
537.57	25324.60
537.74	25659.29
537.91	26059.52
538.08	25830.15
538.25	25338.64
538.42	25745.89
538.59	25968.24
538.75	25731.85
538.92	25476.73
539.09	25530.56
539.26	25961.22
539.43	25720.15
539.60	26015.05
539.77	25963.56
539.94	26335.71
540.11	26038.46
540.28	25867.60
540.44	25888.67
540.61	25855.90
540.78	25968.24
540.95	26272.51
541.12	26244.43
541.29	26235.06
541.46	25996.33
541.62	25944.84
541.79	26429.33
541.96	25799.73
542.13	25909.73
542.30	26178.89
542.47	26710.19
542.63	26726.58
542.80	26707.85
542.97	26611.89
543.14	26810.84
543.31	26745.30
543.48	26686.79
543.64	26916.16
543.81	27037.87
543.98	26874.03
544.15	27012.12
544.32	26824.88
544.48	27269.58
544.65	27143.19
544.82	26616.57
544.99	26600.19
545.16	26913.82
545.32	26852.97
545.49	27140.85
545.66	27229.79
545.83	27281.28
546.00	27800.88
546.16	27377.25
546.33	27283.62
546.50	27152.55
546.67	27426.40
546.83	27087.02
547.00	27555.13
547.17	27276.60
547.34	27208.73
547.50	27339.80
547.67	27527.04
547.84	27445.12
548.00	27566.83
548.17	27840.67
548.34	27161.92
548.51	27857.06
548.67	27721.30
548.84	27733.01
549.01	27473.21
549.18	27667.47
549.34	27285.97
549.51	27470.87
549.68	27709.60
549.84	27697.90
550.01	28070.04
550.18	27662.79
550.34	28030.26
550.51	27946.00
550.68	27964.72
550.84	27517.68
551.01	27990.47
551.18	27803.22
551.34	27857.06
551.51	27845.35
551.68	27927.27
551.84	28119.20
552.01	28304.10
552.18	28126.22
552.34	27580.87
552.51	28390.70
552.68	27922.59
552.84	28287.71
553.01	28568.58
553.18	28217.50
553.34	28390.70
553.51	28341.55
553.67	28240.90
553.84	28386.02
554.01	28524.11
554.17	28486.66
554.34	28952.43
554.51	28348.57
554.67	28800.29
554.84	28505.38
555.00	28528.79
555.17	28512.41
555.33	28350.91
555.50	28479.64
555.67	28439.85
555.83	28694.97
556.00	28584.96
556.16	28659.86
556.33	28645.82
556.50	28594.32
556.66	28559.22
556.83	28861.15
556.99	28800.29
557.16	29380.74
557.32	28748.80
557.49	29221.59
557.65	28505.38
557.82	28931.36
557.98	28858.81
558.15	28802.63
558.32	29015.62
558.48	28875.19
558.65	29174.78
558.81	29139.67
558.98	29032.00
559.14	28858.81
559.31	29259.04
559.47	29191.16
559.64	29198.18
559.80	29553.94
559.97	29163.08
560.13	28884.55
560.30	29083.50
560.46	29689.70
560.63	29280.10
560.79	28999.24
560.96	29181.80
561.12	29209.89
561.29	29362.02
561.45	29600.76
561.61	29280.10
561.78	29556.28
561.94	29446.28
562.11	29212.23
562.27	29542.24
562.44	29275.42
562.60	29708.42
562.77	29310.53
562.93	29378.40
563.10	29415.85
563.26	29490.75
563.42	29736.51
563.59	29572.67
563.75	29280.10
563.92	29481.39
564.08	29345.64
564.24	29626.50
564.41	29390.11
564.57	29308.19
564.74	29181.80
564.90	29699.06
565.07	29773.95
565.23	29731.83
565.39	29986.94
565.56	29666.29
565.72	29682.67
565.88	29818.42
566.05	29921.41
566.21	29670.97
566.38	29612.46
566.54	29509.47
566.70	30225.68
566.87	29766.93
567.03	29764.59
567.19	29972.90
567.36	30080.56
567.52	29876.94
567.68	29921.41
567.85	29846.51
568.01	29731.83
568.17	29886.30
568.34	29670.97
568.50	29860.55
568.66	29848.85
568.83	30143.76
568.99	29841.83
569.15	29818.42
569.32	29666.29
569.48	29954.18
569.64	29542.24
569.81	30057.16
569.97	29750.55
570.13	30197.59
570.30	29979.92
570.46	29958.86
570.62	29804.38
570.78	29532.88
570.95	29799.70
571.11	29748.21
571.27	29507.13
571.43	29874.60
571.60	30209.29
571.76	30274.83
571.92	29958.86
572.09	30230.36
572.25	30419.94
572.41	30211.64
572.57	30068.86
572.74	30017.37
572.90	29764.59
573.06	29773.95
573.22	29942.47
573.38	29642.88
573.55	29769.27
573.71	30345.05
573.87	30504.20
574.03	30415.26
574.20	30125.04
574.36	30218.66
574.52	30099.29
574.68	30143.76
574.84	30171.85
575.01	30232.70
575.17	30576.76
575.33	30024.39
575.49	30387.18
575.65	30167.16
575.82	30445.69
575.98	30333.34
576.14	30459.73
576.30	30398.88
576.46	30314.62
576.62	30167.16
576.79	30345.05
576.95	30015.03
577.11	30316.96
577.27	30237.38
577.43	30721.87
577.59	30221.00
577.75	29734.17
577.92	30164.82
578.08	30183.55
578.24	30277.17
578.40	30143.76
578.56	30118.01
578.72	30506.54
578.88	30735.92
579.04	30651.66
579.21	30778.04
579.37	30525.27
579.53	30323.98
579.69	30012.69
579.85	30256.11
580.01	30274.83
580.17	30583.78
580.33	30345.05
580.49	30466.75
580.65	30590.80
580.82	30426.96
580.98	30567.40
581.14	30426.96
581.30	30534.63
581.46	30221.00
581.62	30267.81
581.78	30462.07
581.94	30338.02
582.10	30134.40
582.26	30347.39
582.42	30375.47
582.58	30368.45
582.74	30202.27
582.90	30455.05
583.06	30572.08
583.22	30345.05
583.38	30366.11
583.54	30146.10
583.70	30260.79
583.86	30712.51
584.02	30529.95
584.18	30733.57
584.34	30672.72
584.50	30881.03
584.66	30302.92
584.82	30022.05
584.98	30225.68
585.14	30602.50
585.30	30665.70
585.46	30424.62
585.62	30267.81
585.78	30555.69
585.94	30822.51
586.10	30672.72
586.26	30654.00
586.42	30747.62
586.58	30820.17
586.74	30740.60
586.90	30316.96
587.06	30529.95
587.22	30272.49
587.38	30492.50
587.54	30670.38
587.70	30689.10
587.86	31049.55
588.02	30593.14
588.18	30799.11
588.34	30586.12
588.49	30356.75
588.65	30457.39
588.81	30682.08
588.97	30731.23
589.13	30438.67
589.29	30459.73
589.45	30799.11
589.61	30848.26
589.77	30733.57
589.93	31000.40
590.08	30850.60
590.24	31105.72
590.40	30803.79
590.56	30614.21
590.72	30768.68
590.88	30445.69
591.04	30625.91
591.20	30824.86
591.35	30974.65
591.51	31166.57
591.67	31042.53
591.83	31208.70
591.99	30927.84
592.15	31049.55
592.31	30848.26
592.46	30628.25
592.62	30436.33
592.78	30656.34
592.94	30827.20
593.10	30665.70
593.26	31297.64
593.41	30787.41
593.57	30934.86
593.73	30902.09
593.89	31227.43
594.05	31386.58
594.20	30756.98
594.36	31136.15
594.52	30616.55
594.68	30749.96
594.84	30450.37
594.99	30768.68
595.15	30789.75
595.31	31084.65
595.47	31213.38
595.62	31274.24
595.78	30892.73
595.94	30974.65
596.10	31019.12
596.25	30995.71
596.41	30625.91
596.57	30953.58
596.73	31189.98
596.88	31218.07
597.04	30951.24
597.20	31250.83
597.36	31087.00
597.51	31438.08
597.67	30944.22
597.83	30937.20
597.99	31234.45
598.14	31049.55
598.30	30756.98
598.46	31283.60
598.61	31054.23
598.77	30986.35
598.93	31070.61
599.09	31243.81
599.24	31438.08
599.40	31615.96
599.56	31206.36
599.71	31084.65
599.87	31150.19
600.03	30569.74
600.18	30738.26
600.34	30689.10
600.50	31023.80
600.65	31299.98
600.81	31091.68
600.97	31566.81
601.12	31337.43
601.28	31510.63
601.44	30892.73
601.59	31302.32
601.75	31204.02
601.91	30892.73
602.06	30951.24
602.22	31386.58
602.37	30787.41
602.53	31438.08
602.69	30969.97
602.84	31234.45
603.00	31229.77
603.16	31487.23
603.31	31145.51
603.47	31206.36
603.62	31002.74
603.78	31049.55
603.94	30895.07
604.09	30773.36
604.25	31374.88
604.40	31091.68
604.56	30976.99
604.71	31728.30
604.87	30808.47
605.03	31157.21
605.18	31351.48
605.34	31175.94
605.49	30630.59
605.65	30944.22
605.80	31084.65
605.96	31023.80
606.12	30817.83
606.27	31634.68
606.43	30955.93
606.58	31040.18
606.74	31236.79
606.89	31115.08
607.05	31288.28
607.20	31655.75
607.36	30815.49
607.51	31260.20
607.67	31040.18
607.82	31056.57
607.98	30871.67
608.13	31094.02
608.29	30834.22
608.44	31101.04
608.60	30761.66
608.75	31035.50
608.91	30838.90
609.06	30300.58
609.22	31075.29
609.37	30796.77
609.53	30850.60
609.68	30424.62
609.84	30810.81
609.99	30862.30
610.15	30703.15
610.30	30710.17
610.46	30679.74
610.61	31026.14
610.76	30651.66
610.92	30796.77
611.07	30752.30
611.23	30808.47
611.38	30845.92
611.54	30866.98
611.69	30216.32
611.84	30927.84
612.00	30349.73
612.15	30323.98
612.31	31035.50
612.46	30256.11
612.62	30609.53
612.77	30693.79
612.92	30527.61
613.08	30635.27
613.23	30696.13
613.39	30457.39
613.54	30429.30
613.69	30452.71
613.85	30462.07
614.00	30871.67
614.15	30504.20
614.31	30377.81
614.46	30651.66
614.62	30366.11
614.77	30572.08
614.92	30518.25
615.08	30499.52
615.23	30742.94
615.38	30515.90
615.54	30321.64
615.69	30438.67
615.84	30230.36
616.00	30415.26
616.15	30593.14
616.30	30136.74
616.46	30274.83
616.61	30265.47
616.76	30593.14
616.92	30595.48
617.07	30274.83
617.22	30169.51
617.37	30068.86
617.53	30307.60
617.68	30258.45
617.83	30160.14
617.99	29785.66
618.14	30246.74
618.29	30377.81
618.45	30190.57
618.60	30134.40
618.75	30134.40
618.90	29986.94
619.06	30389.52
619.21	29628.84
619.36	30202.27
619.51	30101.63
619.67	29624.16
619.82	29886.30
619.97	29628.84
620.12	29839.49
620.28	29893.32
620.43	30134.40
620.58	30162.48
620.73	30263.13
620.89	30225.68
621.04	29727.14
621.19	30141.42
621.34	29914.39
621.49	29713.10
621.65	29839.49
621.80	30000.99
621.95	29706.08
622.10	29951.84
622.25	29741.19
622.41	29799.70
622.56	29525.86
622.71	30026.73
622.86	29668.63
623.01	30022.05
623.16	30050.14
623.32	29465.00
623.47	29680.33
623.62	29682.67
623.77	29504.79
623.92	29591.39
624.07	29518.84
624.23	29338.62
624.38	29411.17
624.53	29872.26
624.68	29406.49
624.83	29881.62
624.98	29418.19
625.13	29970.56
625.29	29610.12
625.44	29317.55
625.59	29333.93
625.74	29317.55
625.89	29085.84
626.04	29450.96
626.19	29015.62
626.34	29242.65
626.49	29027.32
626.65	28971.15
626.80	29174.78
626.95	29001.58
627.10	29268.40
627.25	29090.52
627.40	29032.00
627.55	29216.91
627.70	29153.71
627.85	29020.30
628.00	29092.86
628.15	28849.44
628.30	28950.09
628.45	28819.02
628.60	28989.88
628.76	29214.57
628.91	29071.79
629.06	29317.55
629.21	29113.92
629.36	29027.32
629.51	29050.73
629.66	28959.45
629.81	28683.27
629.96	28709.01
630.11	29120.95
630.26	28655.18
630.41	28755.82
630.56	28512.41
630.71	28690.29
630.86	28882.21
631.01	28917.32
631.16	28922.00
631.31	28531.13
631.46	28435.17
631.61	28699.65
631.76	28982.85
631.91	28671.56
632.06	28629.43
632.21	28383.68
632.36	29048.39
632.51	28566.24
632.66	28692.63
632.81	28371.97
632.96	28793.27
633.10	28671.56
633.25	28554.54
633.40	28521.77
633.55	28144.94
633.70	28126.22
633.85	28126.22
634.00	28175.37
634.15	28142.60
634.30	28166.01
634.45	28067.70
634.60	28201.11
634.75	28339.21
634.90	28542.83
635.05	28257.29
635.19	28081.75
635.34	28381.34
635.49	28233.88
635.64	28173.03
635.79	27929.61
635.94	27861.74
636.09	28140.26
636.24	28123.88
636.39	27995.15
636.53	27871.10
636.68	28039.62
636.83	28510.07
636.98	28226.86
637.13	28056.00
637.28	28002.17
637.43	28500.70
637.57	28056.00
637.72	27882.80
637.87	27910.89
638.02	27953.02
638.17	28135.58
638.32	27751.73
638.46	27690.88
638.61	27339.80
638.76	27566.83
638.91	27751.73
639.06	27569.17
639.20	27669.81
639.35	27817.27
639.50	27946.00
639.65	27915.57
639.80	27878.12
639.94	27735.35
640.09	28084.09
640.24	27791.52
640.39	27648.75
640.54	27374.91
640.68	27623.00
640.83	27580.87
640.98	27178.30
641.13	27288.31
641.27	27487.25
641.42	27536.40
641.57	27248.52
641.72	27770.46
641.86	27529.38
642.01	27412.35
642.16	27594.92
642.31	27402.99
642.45	27283.62
642.60	27061.27
642.75	27154.90
642.90	26974.67
643.04	27278.94
643.19	27133.83
643.34	27480.23
643.48	27246.18
643.63	27187.66
643.78	27253.20
643.93	27496.61
644.07	27459.16
644.22	27211.07
644.37	27454.48
644.51	27161.92
644.66	26838.92
644.81	27110.43
644.95	27042.55
645.10	26792.11
645.25	26965.31
645.39	26801.47
645.54	27171.28
645.69	26518.27
645.83	26974.67
645.98	27131.49
646.13	26932.54
646.27	27309.37
646.42	27108.08
646.57	27271.92
646.71	26831.90
646.86	27035.53
647.00	26967.65
647.15	27012.12
647.30	26434.01
647.44	26670.40
647.59	26817.86
647.74	26639.98
647.88	26941.91
648.03	27124.47
648.17	26813.18
648.32	26869.35
648.47	26867.01
648.61	26789.77
648.76	26817.86
648.90	26817.86
649.05	26572.10
649.20	26661.04
649.34	26522.95
649.49	26618.91
649.63	26843.60
649.78	26518.27
649.92	26436.35
650.07	26859.99
650.21	26274.85
650.36	26230.38
650.51	26462.10
650.65	26597.85
650.80	26218.68
650.94	26494.86
651.09	26691.47
651.23	26394.22
651.38	26581.46
651.52	26382.52
651.67	26354.43
651.81	26272.51
651.96	26525.29
652.10	26246.77
652.25	26239.75
652.39	26642.32
652.54	26415.29
652.68	26218.68
652.83	26485.50
652.97	26857.65
653.12	26340.39
653.26	26382.52
653.41	26356.77
653.55	26251.45
653.70	25998.67
653.84	25827.81
653.99	26068.89
654.13	26022.08
654.27	25956.54
654.42	25804.41
654.56	26045.48
654.71	26085.27
654.85	26256.13
655.00	25947.18
655.14	25956.54
655.29	26118.04
655.43	25823.13
655.57	25750.57
655.72	25781.00
655.86	25930.80
656.01	25773.98
656.15	25804.41
656.30	26096.97
656.44	25584.40
656.58	25450.99
656.73	25633.55
656.87	25975.27
657.01	25891.01
657.16	25593.76
657.30	25724.83
657.45	25724.83
657.59	25551.63
657.73	25874.62
657.88	25731.85
658.02	25418.22
658.16	25310.55
658.31	25563.33
658.45	25336.30
658.60	24950.11
658.74	25252.04
658.88	25572.69
659.03	25479.07
659.17	25645.25
659.31	25544.61
659.46	25324.60
659.60	25614.82
659.74	25249.70
659.89	25261.40
660.03	25427.58
660.17	25722.49
660.32	25177.14
660.46	25123.31
660.60	24769.89
660.74	24828.40
660.89	24957.13
661.03	24709.04
661.17	24758.19
661.32	25219.27
661.46	24940.75
661.60	25022.67
661.74	25249.70
661.89	25153.74
662.03	24919.68
662.17	24996.92
662.31	24503.07
662.46	24737.12
662.60	24999.26
662.74	24697.33
662.88	24713.72
663.03	24636.48
663.17	24364.98
663.31	24250.29
663.45	24533.50
663.60	24533.50
663.74	24416.47
663.88	24247.95
664.02	24432.85
664.17	24606.05
664.31	24304.12
664.45	24245.61
664.59	24212.84
664.73	24149.65
664.88	24063.05
665.02	23901.55
665.16	23992.83
665.30	23976.45
665.44	24245.61
665.59	24058.37
665.73	24009.22
665.87	23704.95
666.01	24114.54
666.15	24070.07
666.29	23847.72
666.44	23988.15
666.58	23627.71
666.72	23566.85
666.86	23559.83
667.00	23882.83
667.14	23749.42
667.28	23765.80
667.43	23608.98
667.57	23857.08
667.71	23688.56
667.85	23335.14
667.99	23297.69
668.13	23665.16
668.27	23618.35
668.41	23293.01
668.56	23082.36
668.70	23398.34
668.84	23370.25
668.98	23164.28
669.12	23616.01
669.26	23358.55
669.40	23456.85
669.54	23234.50
669.68	22937.25
669.82	23080.02
669.96	22668.09
670.10	22881.08
670.25	22796.82
670.39	22911.50
670.53	23042.57
670.67	22740.64
670.81	22843.63
670.95	22721.92
671.09	22757.03
671.23	22799.16
671.37	22883.42
671.51	22607.23
671.65	22602.55
671.79	22689.15
671.93	22492.55
672.07	22377.86
672.21	22391.91
672.35	22445.74
672.49	22003.38
672.63	22291.26
672.77	21963.59
672.91	22307.65
673.05	22148.49
673.19	22188.28
673.33	22132.11
673.47	22125.08
673.61	22286.58
673.75	21834.86
673.89	22122.74
674.03	22132.11
674.17	22050.19
674.31	21785.71
674.45	21694.43
674.59	21717.83
674.73	21720.17
674.87	21593.78
675.01	21481.44
675.15	21291.85
675.29	21352.71
675.43	21078.86
675.56	21575.06
675.70	21598.46
675.84	21266.11
675.98	21160.78
676.12	21710.81
676.26	21399.52
676.40	21469.73
676.54	21439.31
676.68	20996.95
676.82	20746.51
676.96	20877.58
677.10	20856.51
677.23	20833.11
677.37	20638.84
677.51	20680.97
677.65	20882.26
677.79	20336.91
677.93	20283.08
678.07	20269.04
678.21	20086.48
678.34	20533.52
678.48	20287.76
678.62	20032.65
678.76	20182.44
678.90	19833.70
679.04	19999.88
679.18	19805.61
679.31	19836.04
679.45	19693.27
679.59	19948.39
679.73	19314.10
679.87	19496.66
680.00	19754.12
680.14	19351.55
680.28	19496.66
680.42	19372.61
680.56	19707.31
680.70	19482.62
680.83	19405.38
680.97	19185.37
681.11	18988.77
681.25	19042.60
681.39	18759.39
681.52	18995.79
681.66	19150.26
681.80	19143.24
681.94	18703.22
682.07	19035.58
682.21	18803.86
682.35	18778.12
682.49	18618.96
682.62	18686.84
682.76	18340.44
682.90	18485.55
683.04	18272.56
683.17	18593.22
683.31	18642.37
683.45	18546.40
683.59	18146.17
683.72	18317.03
683.86	18101.70
684.00	17767.01
684.13	18146.17
684.27	17940.21
684.41	17769.35
684.55	17790.41
684.68	17493.16
684.82	17848.93
684.96	17830.20
685.09	17717.86
685.23	17282.52
685.37	17284.86
685.50	17523.59
685.64	17418.27
685.78	17238.05
685.91	17851.27
686.05	17500.19
686.19	17352.73
686.32	17345.71
686.46	16816.75
686.60	16629.51
686.73	16741.85
686.87	16627.17
687.01	16964.20
687.14	16938.46
687.28	16554.61
687.42	16570.99
687.55	16393.11
687.69	16519.50
687.82	16524.18
687.96	16400.13
688.10	16657.59
688.23	16152.04
688.37	16496.10
688.50	16243.32
688.64	16482.05
688.78	16121.61
688.91	16140.33
689.05	16116.93
689.18	15927.35
689.32	15389.02
689.46	15660.52
689.59	15840.75
689.73	15819.68
689.86	15751.81
690.00	15868.83
690.13	15796.28
690.27	15463.92
690.41	15667.55
690.54	15253.27
690.68	15653.50
690.81	15431.15
690.95	15466.26
691.08	15400.72
691.22	15316.47
691.35	15124.54
691.49	15297.74
691.62	15239.23
691.76	15044.96
691.89	14974.75
692.03	14920.92
692.16	14705.59
692.30	14501.96
692.43	14553.45
692.57	14478.55
692.70	14413.02
692.84	14438.76
692.97	14565.15
693.11	14764.10
693.24	14389.61
693.38	14263.22
693.51	14317.06
693.65	14099.39
693.78	14209.39
693.92	14066.62
694.05	14207.05
694.19	13914.48
694.32	14001.08
694.45	13891.08
694.59	13832.57
694.72	13476.80
694.86	13678.09
694.99	13467.44
695.13	13666.39
695.26	13507.23
695.39	13413.61
695.53	13605.53
695.66	13467.44
695.80	13364.46
695.93	13481.49
696.07	13408.93
696.20	13277.86
696.33	13242.75
696.47	13238.07
696.60	12957.21
696.73	12894.01
696.87	13011.04
697.00	13085.94
697.14	13018.06
697.27	12758.26
697.40	12638.89
697.54	12699.75
697.67	12641.23
697.80	12655.28
697.94	12360.37
698.07	12407.18
698.21	12053.76
698.34	12166.10
698.47	12365.05
698.61	11962.48
698.74	12528.89
698.87	12250.36
699.01	12098.23
699.14	12018.65
699.27	12184.83
699.40	12046.74
699.54	12009.29
699.67	11829.07
699.80	11669.91
699.94	11688.64
700.07	11763.53
700.20	11681.61
700.34	11543.52
700.47	11651.19
700.60	11543.52
700.73	11559.91
700.87	11461.60
701.00	11283.72
701.13	11456.92
701.26	11279.04
701.40	11527.14
701.53	11367.98
701.66	11353.94
701.79	11225.21
701.93	11077.76
702.06	10846.04
702.19	10824.98
702.32	10834.34
702.46	10827.32
702.59	10647.10
702.72	10438.79
702.85	10614.33
702.99	10565.18
703.12	10839.02
703.25	10452.83
703.38	10469.22
703.51	10366.23
703.65	10375.59
703.78	10319.42
703.91	10408.36
704.04	10462.19
704.17	10457.51
704.31	10249.21
704.44	10303.04
704.57	10321.76
704.70	9902.81
704.83	9954.30
704.96	10010.47
705.10	9858.34
705.23	9792.80
>>>>>End Processed Spectral Data<<<<<
