SpectraSuite Data File
++++++++++++++++++++++++++++++++++++
Date: Fri Oct 18 13:57:57 GMT-05:00 2013
User: bianchi
Dark Spectrum Present: No
Reference Spectrum Present: No
Number of Sampled Component Spectra: 1
Spectrometers: USB2+H05261
Integration Time (usec): 50000 (USB2+H05261)
Spectra Averaged: 1 (USB2+H05261)
Boxcar Smoothing: 0 (USB2+H05261)
Correct for Electrical Dark: No (USB2+H05261)
Strobe/Lamp Enabled: No (USB2+H05261)
Correct for Detector Non-linearity: No (USB2+H05261)
Correct for Stray Light: No (USB2+H05261)
Number of Pixels in Processed Spectrum: 2048
>>>>>Begin Processed Spectral Data<<<<<
365.73	0.00
365.92	0.00
366.12	0.00
366.32	0.00
366.52	0.00
366.72	0.00
366.91	0.00
367.11	0.00
367.31	0.00
367.51	0.00
367.70	0.00
367.90	0.00
368.10	0.00
368.30	0.00
368.49	0.00
368.69	0.00
368.89	0.00
369.09	0.00
369.28	0.00
369.48	0.00
369.68	0.00
369.87	0.00
370.07	0.00
370.27	0.00
370.47	0.00
370.66	112.35
370.86	168.52
371.06	114.69
371.25	56.17
371.45	121.71
371.65	217.67
371.84	46.81
372.04	100.64
372.24	119.37
372.44	161.50
372.63	159.16
372.83	173.20
373.03	220.01
373.22	252.78
373.42	278.52
373.62	161.50
373.81	189.58
374.01	248.10
374.21	276.18
374.40	234.05
374.60	231.71
374.79	290.23
374.99	231.71
375.19	304.27
375.38	318.31
375.58	259.80
375.78	220.01
375.97	231.71
376.17	257.46
376.37	229.37
376.56	308.95
376.76	222.35
376.95	257.46
377.15	313.63
377.35	290.23
377.54	252.78
377.74	325.33
377.93	269.16
378.13	248.10
378.33	294.91
378.52	360.44
378.72	283.20
378.91	241.08
379.11	395.55
379.31	276.18
379.50	301.93
379.70	325.33
379.89	358.10
380.09	285.55
380.28	355.76
380.48	292.57
380.68	320.65
380.87	339.38
381.07	332.36
381.26	266.82
381.46	269.16
381.65	294.91
381.85	262.14
382.04	330.02
382.24	402.57
382.43	327.68
382.63	365.12
382.83	367.46
383.02	444.70
383.22	433.00
383.41	337.04
383.61	418.96
383.80	362.78
384.00	348.74
384.19	414.27
384.39	283.20
384.58	397.89
384.78	449.38
384.97	400.23
385.17	318.31
385.36	390.87
385.56	383.85
385.75	346.40
385.95	407.25
386.14	400.23
386.34	418.96
386.53	404.91
386.72	355.76
386.92	433.00
387.11	437.68
387.31	465.77
387.50	435.34
387.70	468.11
387.89	327.68
388.09	395.55
388.28	400.23
388.48	407.25
388.67	486.83
388.86	486.83
389.06	437.68
389.25	416.62
389.45	475.13
389.64	449.38
389.84	468.11
390.03	475.13
390.22	543.00
390.42	461.09
390.61	496.19
390.81	484.49
391.00	528.96
391.19	521.94
391.39	514.92
391.58	531.30
391.78	559.39
391.97	564.07
392.16	545.34
392.36	571.09
392.55	543.00
392.75	568.75
392.94	535.98
393.13	528.96
393.33	535.98
393.52	638.97
393.71	578.11
393.91	554.71
394.10	634.29
394.29	580.45
394.49	559.39
394.68	599.18
394.88	629.60
395.07	613.22
395.26	587.47
395.46	594.50
395.65	653.01
395.84	641.31
396.04	667.05
396.23	592.16
396.42	674.07
396.62	643.65
396.81	648.33
397.00	608.54
397.19	699.82
397.39	645.99
397.58	655.35
397.77	660.03
397.97	699.82
398.16	725.57
398.35	716.20
398.55	795.78
398.74	765.36
398.93	720.88
399.12	772.38
399.32	711.52
399.51	718.54
399.70	774.72
399.90	732.59
400.09	723.23
400.28	800.46
400.47	858.98
400.67	842.59
400.86	763.01
401.05	819.19
401.24	793.44
401.44	734.93
401.63	807.48
401.82	847.27
402.01	905.79
402.21	805.14
402.40	812.17
402.59	851.96
402.78	945.58
402.97	833.23
403.17	896.43
403.36	828.55
403.55	891.74
403.74	877.70
403.93	882.38
404.13	903.45
404.32	926.85
404.51	875.36
404.70	875.36
404.89	931.53
405.09	978.34
405.28	908.13
405.47	966.64
405.66	980.68
405.85	943.24
406.05	997.07
406.24	1015.79
406.43	1107.07
406.62	1064.94
406.81	1025.15
407.00	983.02
407.20	1020.47
407.39	994.73
407.58	1135.16
407.77	1095.37
407.96	1083.67
408.15	1067.28
408.34	1036.86
408.54	1025.15
408.73	1116.44
408.92	1123.46
409.11	1137.50
409.30	1256.87
409.49	1151.54
409.68	1118.78
409.87	1170.27
410.07	1301.34
410.26	1137.50
410.45	1118.78
410.64	1198.35
410.83	1221.76
411.02	1343.47
411.21	1362.19
411.40	1231.12
411.59	1369.21
411.78	1198.35
411.98	1299.00
412.17	1313.04
412.36	1322.40
412.55	1291.98
412.74	1404.32
412.93	1261.55
413.12	1434.75
413.31	1376.24
413.50	1397.30
413.69	1394.96
413.88	1481.56
414.07	1362.19
414.26	1486.24
414.45	1523.69
414.64	1537.73
414.83	1544.75
415.02	1507.30
415.22	1519.01
415.41	1720.29
415.60	1577.52
415.79	1579.86
415.98	1598.59
416.17	1584.54
416.36	1629.01
416.55	1720.29
416.74	1675.82
416.93	1598.59
417.12	1675.82
417.31	1687.53
417.50	1654.76
417.69	1811.57
417.88	1816.26
418.07	1760.08
418.26	1771.79
418.45	1792.85
418.64	1802.21
418.83	1827.96
419.02	1776.47
419.21	1795.19
419.39	1919.24
419.58	1865.41
419.77	1881.79
419.96	1930.94
420.15	1937.96
420.34	1919.24
420.53	1926.26
420.72	2036.27
420.91	1933.28
421.10	2069.03
421.29	1942.64
421.48	1921.58
421.67	1877.11
421.86	1867.75
422.05	2012.86
422.24	1928.60
422.43	1963.71
422.61	2026.90
422.80	1959.03
422.99	1987.11
423.18	2036.27
423.37	2064.35
423.56	2008.18
423.75	2040.95
423.94	2036.27
424.13	1954.35
424.32	1907.54
424.50	2071.37
424.69	2129.89
424.88	2162.66
425.07	1975.41
425.26	2094.78
425.45	2125.21
425.64	2019.88
425.83	2010.52
426.01	2139.25
426.20	2022.22
426.39	2017.54
426.58	2111.16
426.77	2033.93
426.96	2148.61
427.15	2186.06
427.33	2113.50
427.52	2129.89
427.71	2230.53
427.90	2122.87
428.09	2209.47
428.28	2307.77
428.46	2169.68
428.65	2338.20
428.84	2244.57
429.03	2286.70
429.22	2270.32
429.40	2209.47
429.59	2293.72
429.78	2235.21
429.97	2207.13
430.16	2356.92
430.34	2349.90
430.53	2354.58
430.72	2340.54
430.91	2265.64
431.10	2366.28
431.28	2284.36
431.47	2532.46
431.66	2466.92
431.85	2319.47
432.03	2495.01
432.22	2656.51
432.41	2565.23
432.60	2642.46
432.79	2368.62
432.97	2574.59
433.16	2541.82
433.35	2539.48
433.54	2544.16
433.72	2530.12
433.91	2560.55
434.10	2581.61
434.28	2637.78
434.47	2487.99
434.66	2677.57
434.85	2708.00
435.03	2656.51
435.22	2630.76
435.41	2775.88
435.59	2691.62
435.78	2675.23
435.97	2689.28
436.16	2691.62
436.34	2708.00
436.53	2710.34
436.72	2766.51
436.90	2780.56
437.09	2733.75
437.28	2724.38
437.46	2768.85
437.65	2818.00
437.84	2967.80
438.02	2836.73
438.21	2785.24
438.40	2801.62
438.58	2981.84
438.77	3014.61
438.96	3009.93
439.14	2979.50
439.33	2822.69
439.52	2965.46
439.70	3040.36
439.89	3066.10
440.08	3194.83
440.26	3166.74
440.45	2998.23
440.63	3110.57
440.82	3166.74
441.01	3124.62
441.19	3169.09
441.38	3265.05
441.57	3159.72
441.75	3325.90
441.94	3431.23
442.12	3288.45
442.31	3480.38
442.50	3323.56
442.68	3424.20
442.87	3473.36
443.05	3384.41
443.24	3302.50
443.43	3531.87
443.61	3496.76
443.80	3487.40
443.98	3428.88
444.17	3337.60
444.35	3501.44
444.54	3536.55
444.73	3510.80
444.91	3487.40
445.10	3562.30
445.28	3452.29
445.47	3480.38
445.65	3468.67
445.84	3559.95
446.02	3644.21
446.21	3398.46
446.39	3625.49
446.58	3590.38
446.77	3564.64
446.95	3550.59
447.14	3522.51
447.32	3728.47
447.51	3562.30
447.69	3522.51
447.88	3637.19
448.06	3639.53
448.25	3522.51
448.43	3634.85
448.62	3613.79
448.80	3698.05
448.99	3674.64
449.17	3700.39
449.36	3676.98
449.54	3798.69
449.73	3819.75
449.91	3943.80
450.10	3885.29
450.28	3880.61
450.46	3747.20
450.65	4004.66
450.83	3922.74
451.02	3826.78
451.20	4016.36
451.39	3850.18
451.57	3751.88
451.76	3733.15
451.94	3859.54
452.13	3819.75
452.31	3896.99
452.49	3861.88
452.68	3953.16
452.86	3843.16
453.05	4088.92
453.23	3955.51
453.42	4119.34
453.60	3934.44
453.78	3859.54
453.97	3976.57
454.15	4079.55
454.34	4065.51
454.52	4039.76
454.70	4154.45
454.89	4187.22
455.07	4318.29
455.26	4177.86
455.44	4236.37
455.62	4070.19
455.81	4234.03
455.99	4159.13
456.17	4269.14
456.36	4388.50
456.54	4358.08
456.73	4383.82
456.91	4472.76
457.09	4339.35
457.28	4458.72
457.46	4320.63
457.64	4334.67
457.83	4486.81
458.01	4250.41
458.19	4444.68
458.38	4484.47
458.56	4610.86
458.74	4580.43
458.93	4559.36
459.11	4510.21
459.29	4463.40
459.48	4540.64
459.66	4496.17
459.84	4601.49
460.03	4608.51
460.21	4753.63
460.39	4629.58
460.57	4601.49
460.76	4744.27
460.94	4713.84
461.12	4856.61
461.31	4865.97
461.49	4697.46
461.67	4725.54
461.85	4999.38
462.04	4723.20
462.22	5088.32
462.40	4760.65
462.59	4940.87
462.77	4933.85
462.95	4938.53
463.13	4762.99
463.32	4868.31
463.50	4933.85
463.68	4980.66
463.86	4975.98
464.05	4943.21
464.23	4968.96
464.41	4938.53
464.59	4901.08
464.78	5020.45
464.96	5060.24
465.14	5116.41
465.32	5165.56
465.50	5088.32
465.69	5018.11
465.87	5067.26
466.05	5071.94
466.23	5263.86
466.41	5149.18
466.60	5167.90
466.78	5144.50
466.96	5114.07
467.14	5219.39
467.32	5200.67
467.51	5425.36
467.69	4997.04
467.87	5270.89
468.05	5193.65
468.23	5256.84
468.41	5254.50
468.60	5268.55
468.78	5371.53
468.96	5305.99
469.14	5320.04
469.32	5472.17
469.50	5231.10
469.69	5448.77
469.87	5619.63
470.05	5507.28
470.23	5432.38
470.41	5308.34
470.59	5579.84
470.77	5668.78
470.95	5509.62
471.14	5771.76
471.32	5708.57
471.50	5619.63
471.68	5626.65
471.86	5675.80
472.04	5755.38
472.22	5987.09
472.40	5724.95
472.58	5980.07
472.77	5893.47
472.95	5837.30
473.13	6153.27
473.31	6029.22
473.49	5916.87
473.67	5874.74
473.85	6085.39
474.03	6155.61
474.21	6272.64
474.39	6218.80
474.57	6335.83
474.75	6204.76
474.93	6413.07
475.12	6209.44
475.30	6296.04
475.48	6228.17
475.66	6518.39
475.84	6480.94
476.02	6483.28
476.20	6422.43
476.38	6675.21
476.56	6848.41
476.74	6569.88
476.92	6621.38
477.10	6719.68
477.28	6635.42
477.46	6717.34
477.64	6766.49
477.82	6923.30
478.00	7087.14
478.18	7248.64
478.36	7173.74
478.54	7185.44
478.72	7265.02
478.90	7190.13
479.08	7382.05
479.26	7304.81
479.44	7391.41
479.62	7527.16
479.80	7520.14
479.98	7473.33
480.16	7854.84
480.34	7822.07
480.52	7761.22
480.70	7836.11
480.88	7733.13
481.06	7920.37
481.24	7892.29
481.41	8060.80
481.59	7950.80
481.77	8255.07
481.95	8283.16
482.13	8446.99
482.31	8226.98
482.49	8344.01
482.67	8470.40
482.85	8571.04
483.03	8823.82
483.21	8720.84
483.39	8779.35
483.57	8678.71
483.74	8800.41
483.92	9111.71
484.10	8978.30
484.28	9048.51
484.46	9451.08
484.64	9324.69
484.82	9268.52
485.00	9303.63
485.18	9554.07
485.35	9734.29
485.53	9474.49
485.71	9745.99
485.89	9729.61
486.07	9645.35
486.25	9774.08
486.43	9987.07
486.61	10008.13
486.78	10319.42
486.96	10127.50
487.14	10244.52
487.32	10207.08
487.50	10462.19
487.68	10438.79
487.85	10724.33
488.03	10707.95
488.21	10888.17
488.39	10841.36
488.57	10705.61
488.75	10909.24
488.92	11009.88
489.10	11117.54
489.28	11162.01
489.46	11267.34
489.64	11470.97
489.81	11641.82
489.99	11761.19
490.17	11688.64
490.35	11817.36
490.53	11695.66
490.70	12128.66
490.88	11815.02
491.06	12131.00
491.24	12072.48
491.41	12102.91
491.59	12285.47
491.77	12252.70
491.95	12339.30
492.13	12505.48
492.30	12634.21
492.48	12732.51
492.66	12774.64
492.84	12496.12
493.01	12629.53
493.19	12695.07
493.37	13123.38
493.54	12936.14
493.72	13139.77
493.90	12992.31
494.08	12994.65
494.25	13523.62
494.43	13628.94
494.61	13535.32
494.79	13600.85
494.96	13614.90
495.14	13687.45
495.32	13858.31
495.49	13881.72
495.67	13933.21
495.85	14146.20
496.02	14169.60
496.20	14265.57
496.38	13923.85
496.55	14623.67
496.73	14600.26
496.91	14443.45
497.09	14623.67
497.26	14831.97
497.44	14736.01
497.62	14728.99
497.79	15012.20
497.97	14918.57
498.14	15103.48
498.32	15213.48
498.50	15220.50
498.67	15169.01
498.85	15012.20
499.03	15227.53
499.20	15384.34
499.38	15777.55
499.56	15641.80
499.73	15737.76
499.91	15983.52
500.08	15751.81
500.26	15667.55
500.44	15758.83
500.61	15749.46
500.79	15786.91
500.97	16088.84
501.14	16065.44
501.32	16395.45
501.49	16161.40
501.67	16360.34
501.84	15983.52
502.02	16367.37
502.20	16510.14
502.37	16592.06
502.55	16432.90
502.72	16505.46
502.90	16664.61
503.07	16673.98
503.25	16964.20
503.43	16746.53
503.60	16950.16
503.78	16889.31
503.95	17090.59
504.13	17137.40
504.30	16961.86
504.48	16879.94
504.65	17076.55
504.83	17448.69
505.01	17481.46
505.18	17207.62
505.36	17652.32
505.53	17666.36
505.71	17205.28
505.88	17944.89
506.06	17467.42
506.23	17743.60
506.41	17582.10
506.58	17928.50
506.76	18129.79
506.93	17767.01
507.11	17837.22
507.28	17998.72
507.46	18263.20
507.63	18288.95
507.81	18272.56
507.98	17954.25
508.16	18087.66
508.33	18349.80
508.50	18565.13
508.68	18295.97
508.85	18574.49
509.03	18558.11
509.20	18539.38
509.38	18934.93
509.55	18888.12
509.73	18738.33
509.90	19012.17
510.08	18977.06
510.25	18724.29
510.42	18888.12
510.60	19300.06
510.77	19070.68
510.95	19066.00
511.12	18834.29
511.30	19307.08
511.47	19372.61
511.64	19250.91
511.82	19618.37
511.99	19566.88
512.17	19601.99
512.34	19576.24
512.51	19854.76
512.69	19747.10
512.86	19618.37
513.04	20025.62
513.21	19744.76
513.38	19618.37
513.56	19969.45
513.73	19939.02
513.90	19847.74
514.08	19763.48
514.25	20123.93
514.43	20219.89
514.60	20568.63
514.77	20379.04
514.95	20140.31
515.12	20271.38
515.29	20215.21
515.47	20304.15
515.64	20755.87
515.81	20542.88
515.99	20725.44
516.16	20905.66
516.33	20812.04
516.51	20664.59
516.68	20559.27
516.85	20774.60
517.03	21298.88
517.20	21179.51
517.37	20900.98
517.54	21123.33
517.72	21226.32
517.89	21226.32
518.06	21137.38
518.24	20933.75
518.41	21050.78
518.58	21090.57
518.75	21132.70
518.93	21694.43
519.10	21273.13
519.27	21465.05
519.45	21191.21
519.62	21671.02
519.79	21598.46
519.96	21881.67
520.14	21916.78
520.31	21891.03
520.48	21935.50
520.65	22012.74
520.83	21556.33
521.00	21731.87
521.17	21816.13
521.34	21827.84
521.52	22167.21
521.69	22094.66
521.86	22178.92
522.03	22569.79
522.20	22368.50
522.38	22389.56
522.55	22434.03
522.72	22389.56
522.89	22494.89
523.07	22909.16
523.24	22284.24
523.41	23157.26
523.58	22714.90
523.75	22862.35
523.92	22855.33
524.10	22757.03
524.27	23049.60
524.44	23143.22
524.61	23250.88
524.78	23110.45
524.96	22834.27
525.13	23154.92
525.30	22993.42
525.47	23421.74
525.64	23070.66
525.81	23513.02
525.98	23498.98
526.16	23285.99
526.33	23302.37
526.50	23604.30
526.67	23587.92
526.84	23562.17
527.01	23407.70
527.18	23726.01
527.36	23566.85
527.53	23866.44
527.70	23763.46
527.87	24151.99
528.04	23810.27
528.21	23728.35
528.38	23941.34
528.55	23917.93
528.72	23637.07
528.89	23929.64
529.07	23864.10
529.24	23353.87
529.41	24041.98
529.58	24109.86
529.75	24175.39
529.92	24224.54
530.09	24489.03
530.26	24198.80
530.43	24175.39
530.60	24180.07
530.77	24159.01
530.94	24552.22
531.11	24491.37
531.28	24264.33
531.46	24533.50
531.63	24624.78
531.80	24769.89
531.97	25249.70
532.14	24734.78
532.31	24435.19
532.48	24479.66
532.65	24781.59
532.82	24746.48
532.99	24893.94
533.16	24809.68
533.33	24898.62
533.50	25380.77
533.67	25057.78
533.84	24833.08
534.01	25125.65
534.18	24910.32
534.35	24915.00
534.52	25270.76
534.69	25277.79
534.86	25139.69
535.03	25296.51
535.20	25465.03
535.37	25563.33
535.54	25083.52
535.71	25167.78
535.88	25532.90
536.05	25369.07
536.22	25362.04
536.38	25624.18
536.55	25692.06
536.72	25619.50
536.89	25397.15
537.06	25633.55
537.23	25820.79
537.40	25591.42
537.57	25642.91
537.74	25638.23
537.91	25837.17
538.08	26302.94
538.25	25813.77
538.42	26003.35
538.59	26108.68
538.75	25956.54
538.92	25984.63
539.09	26588.49
539.26	25834.83
539.43	26188.25
539.60	26171.87
539.77	26101.65
539.94	26284.22
540.11	26108.68
540.28	26483.16
540.44	26026.76
540.61	26405.92
540.78	26424.65
540.95	26221.02
541.12	26188.25
541.29	26403.58
541.46	26698.49
541.62	26384.86
541.79	26518.27
541.96	25940.16
542.13	26455.08
542.30	26768.71
542.47	26560.40
542.63	26654.02
542.80	27150.21
542.97	26911.48
543.14	27105.74
543.31	27182.98
543.48	27384.27
543.64	27227.45
543.81	27473.21
543.98	27381.93
544.15	27208.73
544.32	27318.73
544.48	27166.60
544.65	27414.69
544.82	26972.33
544.99	26984.04
545.16	27384.27
545.32	27138.51
545.49	27307.03
545.66	27644.07
545.83	27536.40
546.00	27782.16
546.16	27590.24
546.33	27417.04
546.50	27370.22
546.67	27880.46
546.83	27599.60
547.00	27847.69
547.17	27466.19
547.34	27859.40
547.50	28189.41
547.67	27763.43
547.84	27978.76
548.00	28056.00
548.17	28119.20
548.34	27468.53
548.51	28173.03
548.67	28294.74
548.84	28421.13
549.01	28041.96
549.18	27950.68
549.34	28147.28
549.51	28091.11
549.68	27632.36
549.84	28268.99
550.01	28023.23
550.18	27957.70
550.34	28334.53
550.51	28177.71
550.68	28357.93
550.84	28233.88
551.01	28521.77
551.18	28362.61
551.34	28250.27
551.51	28297.08
551.68	28236.22
551.84	28325.16
552.01	28039.62
552.18	28542.83
552.34	28229.20
552.51	28603.69
552.68	28418.78
552.84	28769.86
553.01	28620.07
553.18	28882.21
553.34	28912.64
553.51	28439.85
553.67	28765.18
553.84	29298.83
554.01	28739.44
554.17	28357.93
554.34	28793.27
554.51	28624.75
554.67	28610.71
554.84	28978.17
555.00	28861.15
555.17	28788.59
555.33	28851.78
555.50	28900.94
555.67	28811.99
555.83	28830.72
556.00	29027.32
556.16	29032.00
556.33	28982.85
556.50	29263.72
556.66	29160.73
556.83	28774.55
556.99	29078.82
557.16	29139.67
557.32	29261.38
557.49	29572.67
557.65	29015.62
557.82	29198.18
557.98	28788.59
558.15	29448.62
558.32	29102.22
558.48	29465.00
558.65	29460.32
558.81	29127.97
558.98	29397.13
559.14	29247.33
559.31	29472.03
559.47	29640.54
559.64	29582.03
559.80	29425.22
559.97	29689.70
560.13	29621.82
560.30	29734.17
560.46	29834.81
560.63	29413.51
560.79	29614.80
560.96	29759.91
561.12	29270.74
561.29	29685.01
561.45	29762.25
561.61	29593.73
561.78	29610.12
561.94	29699.06
562.11	29757.57
562.27	29560.97
562.44	29830.13
562.60	30113.33
562.77	29589.05
562.93	29638.20
563.10	29687.36
563.26	29600.76
563.42	30211.64
563.59	29638.20
563.75	29979.92
563.92	30026.73
564.08	29502.45
564.24	29785.66
564.41	29450.96
564.57	29537.56
564.74	29811.40
564.90	30260.79
565.07	30146.10
565.23	29584.37
565.39	29809.06
565.56	30155.46
565.72	29816.08
565.88	29537.56
566.05	29972.90
566.21	30085.25
566.38	30125.04
566.54	30082.91
566.70	30504.20
566.87	30260.79
567.03	30412.92
567.19	30183.55
567.36	30331.00
567.52	30242.06
567.68	30359.09
567.85	29874.60
568.01	30415.26
568.17	30176.53
568.34	30635.27
568.50	30342.70
568.66	30265.47
568.83	30616.55
568.99	29879.28
569.15	30115.67
569.32	30291.21
569.48	30101.63
569.64	30281.85
569.81	30295.89
569.97	30394.20
570.13	30359.09
570.30	30511.22
570.46	30361.43
570.62	30518.25
570.78	30445.69
570.95	30139.08
571.11	30345.05
571.27	30256.11
571.43	30300.58
571.60	30532.29
571.76	30061.84
571.92	30141.42
572.09	30515.90
572.25	30398.88
572.41	30218.66
572.57	30635.27
572.74	30436.33
572.90	30024.39
573.06	29975.24
573.22	30780.39
573.38	30321.64
573.55	30703.15
573.71	30632.93
573.87	30590.80
574.03	30700.81
574.20	30588.46
574.36	30396.54
574.52	30347.39
574.68	30480.80
574.84	30630.59
575.01	30359.09
575.17	30405.90
575.33	30316.96
575.49	30459.73
575.65	30424.62
575.82	30618.89
575.98	30548.67
576.14	30616.55
576.30	30422.28
576.46	30604.84
576.62	30326.32
576.79	30291.21
576.95	30497.18
577.11	30380.15
577.27	30742.94
577.43	30558.03
577.59	30771.02
577.75	30827.20
577.92	30342.70
578.08	30476.12
578.24	30192.91
578.40	30773.36
578.56	30483.14
578.72	30611.87
578.88	31173.60
579.04	31274.24
579.21	30298.23
579.37	30911.46
579.53	30820.17
579.69	30302.92
579.85	30373.13
580.01	30677.40
580.17	30235.04
580.33	30534.63
580.49	30581.44
580.65	31094.02
580.82	30845.92
580.98	30646.97
581.14	30714.85
581.30	30960.61
581.46	30834.22
581.62	30735.92
581.78	30480.80
581.94	30834.22
582.10	30588.46
582.26	30960.61
582.42	30841.24
582.58	30911.46
582.74	30742.94
582.90	30941.88
583.06	30742.94
583.22	30492.50
583.38	30696.13
583.54	30962.95
583.70	31002.74
583.86	30698.47
584.02	30976.99
584.18	30967.63
584.34	31005.08
584.50	31037.84
584.66	30490.16
584.82	30696.13
584.98	31070.61
585.14	30932.52
585.30	30703.15
585.46	30974.65
585.62	30761.66
585.78	30848.26
585.94	30623.57
586.10	31133.81
586.26	31105.72
586.42	30885.71
586.58	31225.09
586.74	30639.95
586.90	30696.13
587.06	30602.50
587.22	30693.79
587.38	30625.91
587.54	31199.34
587.70	30841.24
587.86	30710.17
588.02	31323.39
588.18	31302.32
588.34	31143.17
588.49	30930.18
588.65	30820.17
588.81	30918.48
588.97	30876.35
589.13	30841.24
589.29	30794.43
589.45	31309.35
589.61	31269.56
589.77	31426.37
589.93	31498.93
590.08	31480.21
590.24	31215.72
590.40	31571.49
590.56	31307.01
590.72	31091.68
590.88	30874.01
591.04	31005.08
591.20	31391.26
591.35	31213.38
591.51	31758.73
591.67	31131.47
591.83	31562.12
591.99	31370.20
592.15	31225.09
592.31	31232.11
592.46	30969.97
592.62	31197.00
592.78	30862.30
592.94	31236.79
593.10	31545.74
593.26	30986.35
593.41	31065.93
593.57	31220.41
593.73	31082.31
593.89	31587.87
594.05	31274.24
594.20	31330.41
594.36	31461.48
594.52	31119.76
594.68	31246.15
594.84	30932.52
594.99	31494.25
595.15	31545.74
595.31	31637.02
595.47	31204.02
595.62	31201.68
595.78	31257.85
595.94	31115.08
596.10	31199.34
596.25	31124.44
596.41	31110.40
596.57	31182.96
596.73	31157.21
596.88	31529.36
597.04	31381.90
597.20	31517.65
597.36	31711.92
597.51	31985.76
597.67	31543.40
597.83	31182.96
597.99	31243.81
598.14	31295.30
598.30	31171.25
598.46	31534.04
598.61	31297.64
598.77	31527.02
598.93	32016.19
599.09	31496.59
599.24	32039.59
599.40	31468.50
599.56	31824.26
599.71	31393.61
599.87	31704.90
600.03	31384.24
600.18	31388.92
600.34	31454.46
600.50	31087.00
600.65	31295.30
600.81	31625.32
600.97	31761.07
601.12	31569.15
601.28	31662.77
601.44	31491.91
601.59	31992.78
601.75	31204.02
601.91	31541.06
602.06	31620.64
602.22	31545.74
602.37	31559.78
602.53	31260.20
602.69	31536.38
602.84	31686.17
603.00	31510.63
603.16	31592.55
603.31	31508.29
603.47	31438.08
603.62	31503.61
603.78	31229.77
603.94	31337.43
604.09	31480.21
604.25	31541.06
604.40	31517.65
604.56	31381.90
604.71	31700.22
604.87	31447.44
605.03	31740.00
605.18	31615.96
605.34	31606.59
605.49	31264.88
605.65	31136.15
605.80	31353.82
605.96	31173.60
606.12	31323.39
606.27	31534.04
606.43	31042.53
606.58	31405.31
606.74	31351.48
606.89	31534.04
607.05	31353.82
607.20	31578.51
607.36	31948.31
607.51	31222.75
607.67	31330.41
607.82	31098.70
607.98	31721.28
608.13	31278.92
608.29	31328.07
608.44	31222.75
608.60	31487.23
608.75	31587.87
608.91	31793.84
609.06	31239.13
609.22	31405.31
609.37	30778.04
609.53	30913.80
609.68	31110.40
609.84	31363.18
609.99	31094.02
610.15	31147.85
610.30	31491.91
610.46	31122.10
610.61	31105.72
610.76	31384.24
610.92	31531.70
611.07	30787.41
611.23	31529.36
611.38	31124.44
611.54	31281.26
611.69	30876.35
611.84	31094.02
612.00	30925.50
612.15	30946.56
612.31	31452.12
612.46	31068.27
612.62	31278.92
612.77	30998.06
612.92	31335.09
613.08	30733.57
613.23	31157.21
613.39	30749.96
613.54	30813.15
613.69	30700.81
613.85	30604.84
614.00	30749.96
614.15	30848.26
614.31	30543.99
614.46	31058.91
614.62	30778.04
614.77	31079.97
614.92	30646.97
615.08	30834.22
615.23	31089.34
615.38	31089.34
615.54	30370.79
615.69	30728.89
615.84	30801.45
616.00	30822.51
616.15	30836.56
616.30	31009.76
616.46	30897.41
616.61	30862.30
616.76	31150.19
616.92	30632.93
617.07	30953.58
617.22	30628.25
617.37	30464.41
617.53	30422.28
617.68	30457.39
617.83	30717.19
617.99	30000.99
618.14	30534.63
618.29	30733.57
618.45	30387.18
618.60	30572.08
618.75	30602.50
618.90	30483.14
619.06	30796.77
619.21	30316.96
619.36	30462.07
619.51	30316.96
619.67	30071.20
619.82	29930.77
619.97	30235.04
620.12	30288.87
620.28	30258.45
620.43	30370.79
620.58	30403.56
620.73	30558.03
620.89	30431.65
621.04	30462.07
621.19	30490.16
621.34	30426.96
621.49	30066.52
621.65	29858.21
621.80	29989.28
621.95	30237.38
622.10	29869.92
622.25	30181.21
622.41	30160.14
622.56	29860.55
622.71	30132.06
622.86	30225.68
623.01	30237.38
623.16	30010.35
623.32	30008.01
623.47	29687.36
623.62	29558.63
623.77	29958.86
623.92	30256.11
624.07	29912.05
624.23	29900.34
624.38	30148.44
624.53	29851.19
624.68	30029.07
624.83	30143.76
624.98	30092.27
625.13	29851.19
625.29	29792.68
625.44	29523.52
625.59	29619.48
625.74	30183.55
625.89	29521.18
626.04	29532.88
626.19	29778.64
626.34	29528.20
626.49	29443.94
626.65	29408.83
626.80	29633.52
626.95	29715.44
627.10	29483.73
627.25	29223.93
627.40	29228.61
627.55	29287.12
627.70	29137.33
627.85	29390.11
628.00	29394.79
628.15	29165.42
628.30	29319.89
628.45	29535.22
628.60	29099.88
628.76	29282.44
628.91	29273.08
629.06	29387.77
629.21	29418.19
629.36	29008.60
629.51	29057.75
629.66	29205.20
629.81	29134.99
629.96	29340.96
630.11	29289.46
630.26	29244.99
630.41	28755.82
630.56	28861.15
630.71	29186.48
630.86	29235.63
631.01	29144.35
631.16	29343.30
631.31	29270.74
631.46	28456.23
631.61	29483.73
631.76	29088.18
631.91	29022.64
632.06	28952.43
632.21	29041.37
632.36	29123.29
632.51	28849.44
632.66	28987.53
632.81	28999.24
632.96	29172.44
633.10	28966.47
633.25	29230.95
633.40	28844.76
633.55	28678.58
633.70	28790.93
633.85	28528.79
634.00	28739.44
634.15	29205.20
634.30	28917.32
634.45	28570.92
634.60	28826.04
634.75	28222.18
634.90	28737.10
635.05	28753.48
635.19	28718.37
635.34	28779.23
635.49	28802.63
635.64	28765.18
635.79	28533.47
635.94	28320.48
636.09	28369.63
636.24	28432.83
636.39	28386.02
636.53	28524.11
636.68	28332.18
636.83	28180.05
636.98	28479.64
637.13	28070.04
637.28	28472.62
637.43	28390.70
637.57	28334.53
637.72	28421.13
637.87	28329.84
638.02	28276.01
638.17	28615.39
638.32	28025.57
638.46	28034.94
638.61	28156.64
638.76	27864.08
638.91	27880.46
639.06	27810.25
639.20	28285.37
639.35	28046.64
639.50	28297.08
639.65	27810.25
639.80	28346.23
639.94	27917.91
640.09	28526.45
640.24	28257.29
640.39	28018.55
640.54	27929.61
640.68	27714.28
640.83	27826.63
640.98	27861.74
641.13	27243.84
641.27	27967.06
641.42	27859.40
641.57	27686.20
641.72	28107.49
641.86	27290.65
642.01	27756.41
642.16	27709.60
642.31	27400.65
642.45	27695.56
642.60	27562.15
642.75	27604.28
642.90	27695.56
643.04	27342.14
643.19	27555.13
643.34	28023.23
643.48	27302.35
643.63	27213.41
643.78	27681.52
643.93	27761.09
644.07	27344.48
644.22	27510.66
644.37	27615.98
644.51	27838.33
644.66	27372.57
644.81	27201.71
644.95	27332.78
645.10	27063.61
645.25	27391.29
645.39	27236.81
645.54	27405.33
645.69	27332.78
645.83	27667.47
645.98	27213.41
646.13	27267.24
646.27	27374.91
646.42	27295.33
646.57	27009.78
646.71	27274.26
646.86	27339.80
647.00	27248.52
647.15	27126.81
647.30	27061.27
647.44	27047.23
647.59	27325.75
647.74	27080.00
647.88	27049.57
648.03	27147.87
648.17	27278.94
648.32	26923.18
648.47	27227.45
648.61	27117.45
648.76	27061.27
648.90	27115.11
649.05	27087.02
649.20	27021.48
649.34	26803.82
649.49	26539.33
649.63	26274.85
649.78	26796.79
649.92	26717.22
650.07	26824.88
650.21	26642.32
650.36	26775.73
650.51	26618.91
650.65	27075.32
650.80	27007.44
650.94	26962.97
651.09	26679.77
651.23	26359.11
651.38	26691.47
651.52	26647.00
651.67	26803.82
651.81	26932.54
651.96	27080.00
652.10	26647.00
652.25	26686.79
652.39	26822.54
652.54	27063.61
652.68	26539.33
652.83	26684.45
652.97	26424.65
653.12	26218.68
653.26	26529.97
653.41	26272.51
653.55	26766.37
653.70	26328.69
653.84	26534.65
653.99	26522.95
654.13	26188.25
654.27	26125.06
654.42	26405.92
654.56	26572.10
654.71	26111.02
654.85	26333.37
655.00	26483.16
655.14	26522.95
655.29	26331.03
655.43	26410.60
655.57	26113.36
655.72	26078.25
655.86	26059.52
656.01	26211.66
656.15	26043.14
656.30	26087.61
656.44	26150.81
656.58	25989.31
656.73	26029.10
656.87	26525.29
657.01	26272.51
657.16	25879.30
657.30	26017.40
657.45	26185.91
657.59	26190.59
657.73	25858.24
657.88	26026.76
658.02	25963.56
658.16	25514.18
658.31	25565.67
658.45	25563.33
658.60	25305.87
658.74	25736.53
658.88	25790.36
659.03	25706.10
659.17	25762.28
659.31	25724.83
659.46	25500.14
659.60	25862.92
659.74	25490.77
659.89	25745.89
660.03	25521.20
660.17	25516.52
660.32	25326.94
660.46	25523.54
660.60	25399.49
660.74	25436.94
660.89	25418.22
661.03	25043.73
661.17	25593.76
661.32	24973.52
661.46	25387.79
661.60	25214.59
661.74	25322.26
661.89	25015.65
662.03	25191.19
662.17	25186.50
662.31	25331.62
662.46	25022.67
662.60	24767.55
662.74	25158.42
662.88	24776.91
663.03	24641.16
663.17	24943.09
663.31	24463.28
663.45	24833.08
663.60	24755.85
663.74	24924.36
663.88	24610.73
664.02	24702.01
664.17	24744.14
664.31	24589.67
664.45	24631.80
664.59	24617.75
664.73	24304.12
664.88	24449.24
665.02	24086.45
665.16	24159.01
665.30	24280.72
665.44	24114.54
665.59	24049.00
665.73	23943.68
665.87	23885.17
666.01	24126.24
666.15	23943.68
666.29	23981.13
666.44	24393.06
666.58	24137.94
666.72	24109.86
666.86	24416.47
667.00	24383.70
667.14	23978.79
667.28	24259.65
667.43	23899.21
667.57	23763.46
667.71	23814.95
667.85	23550.47
667.99	23967.09
668.13	23562.17
668.27	23784.52
668.41	23821.97
668.56	23527.06
668.70	23367.91
668.84	23721.33
668.98	23754.10
669.12	23501.32
669.26	23278.97
669.40	23255.56
669.54	23592.60
669.68	23311.74
669.82	22998.10
669.96	23367.91
670.10	22860.01
670.25	23276.63
670.39	22864.69
670.53	23257.90
670.67	22731.28
670.81	22794.48
670.95	22916.19
671.09	23407.70
671.23	23391.31
671.37	23089.38
671.51	23009.81
671.65	23096.41
671.79	23002.78
671.93	22806.18
672.07	22761.71
672.21	22838.95
672.35	22366.16
672.49	22169.55
672.63	22319.35
672.77	22434.03
672.91	21972.95
673.05	22377.86
673.19	22443.40
673.33	22349.78
673.47	22511.27
673.61	22515.95
673.75	22312.33
673.89	22321.69
674.03	22235.09
674.17	22253.81
674.31	22300.62
674.45	21755.28
674.59	21841.88
674.73	22029.12
674.87	21968.27
675.01	22024.44
675.15	21710.81
675.29	21521.23
675.43	21518.89
675.56	21708.47
675.70	21617.19
675.84	21818.47
675.98	21144.40
676.12	21907.41
676.26	21626.55
676.40	21277.81
676.54	21336.32
676.68	21289.51
676.82	20765.23
676.96	21010.99
677.10	20945.45
677.23	20952.48
677.37	20673.95
677.51	20971.20
677.65	20844.81
677.79	20786.30
677.93	20713.74
678.07	20643.52
678.21	20201.16
678.34	20301.81
678.48	20264.36
678.62	20512.46
678.76	20367.34
678.90	20037.33
679.04	20280.74
679.18	20355.64
679.31	19761.14
679.45	20065.41
679.59	19953.07
679.73	19632.41
679.87	19843.06
680.00	19618.37
680.14	19564.54
680.28	19403.04
680.42	19520.07
680.56	19866.47
680.70	19585.60
680.83	19866.47
680.97	19531.77
681.11	19674.54
681.25	19311.76
681.39	19456.87
681.52	19248.57
681.66	19351.55
681.80	18925.57
681.94	19215.80
682.07	19250.91
682.21	18780.46
682.35	18745.35
682.49	18897.49
682.62	18848.33
682.76	18735.99
682.90	18956.00
683.04	18595.56
683.17	18967.70
683.31	18761.73
683.45	18792.16
683.59	18515.98
683.72	18621.30
683.86	18302.99
684.00	18094.68
684.13	18164.90
684.27	18202.35
684.41	17951.91
684.55	18052.55
684.68	17797.43
684.82	17867.65
684.96	17610.19
685.09	17568.06
685.23	17649.98
685.37	17661.68
685.50	17841.90
685.64	17762.33
685.78	17778.71
685.91	17525.93
686.05	17652.32
686.19	17584.44
686.32	17348.05
686.46	17282.52
686.60	17062.51
686.73	17041.44
686.87	16959.52
687.01	16786.32
687.14	16924.41
687.28	16648.23
687.42	16795.68
687.55	16837.81
687.69	16746.53
687.82	16989.95
687.96	16629.51
688.10	16468.01
688.23	16372.05
688.37	16519.50
688.50	16252.68
688.64	16381.41
688.78	16159.06
688.91	16016.29
689.05	16280.77
689.18	16098.20
689.32	15974.16
689.46	16011.60
689.59	16006.92
689.73	15861.81
689.86	16018.63
690.00	15625.42
690.13	15690.95
690.27	15384.34
690.41	16013.95
690.54	15487.32
690.68	15578.61
690.81	15587.97
690.95	15653.50
691.08	15779.89
691.22	15454.56
691.35	15222.84
691.49	15147.95
691.62	15433.49
691.76	15145.61
691.89	14918.57
692.03	14960.70
692.16	14895.17
692.30	14693.88
692.43	14853.04
692.57	14548.77
692.70	14691.54
692.84	14424.72
692.97	14670.48
693.11	14628.35
693.24	14658.78
693.38	14349.82
693.51	14478.55
693.65	14349.82
693.78	14303.01
693.92	14546.43
694.05	14303.01
694.19	14321.74
694.32	14288.97
694.45	14178.97
694.59	13771.71
694.72	13961.30
694.86	13839.59
694.99	13851.29
695.13	13797.46
695.26	13582.13
695.39	13460.42
695.53	13741.29
695.66	13799.80
695.80	13422.97
695.93	13542.34
696.07	13638.30
696.20	13790.44
696.33	13408.93
696.47	13308.29
696.60	13305.95
696.73	13296.58
696.87	13032.10
697.00	13214.66
697.14	12784.01
697.27	12805.07
697.40	12697.41
697.54	12793.37
697.67	12718.47
697.80	12620.17
697.94	12678.68
698.07	12285.47
698.21	12372.07
698.34	12301.86
698.47	12582.72
698.61	12594.42
698.74	12486.76
698.87	12395.48
699.01	12386.12
699.14	12477.40
699.27	12016.31
699.40	12224.62
699.54	12142.70
699.67	11899.28
699.80	11859.49
699.94	11775.24
700.07	11906.31
700.20	11580.97
700.34	11543.52
700.47	11709.70
700.60	11768.21
700.73	11791.62
700.87	11552.88
701.00	11358.62
701.13	11517.78
701.26	11485.01
701.40	11566.93
701.53	11489.69
701.66	11513.10
701.79	11279.04
701.93	11426.50
702.06	11023.92
702.19	10949.03
702.32	11096.48
702.46	11028.60
702.59	10707.95
702.72	10808.59
702.85	10843.70
702.99	10607.31
703.12	10670.50
703.25	10855.40
703.38	10691.57
703.51	10658.80
703.65	10581.56
703.78	10537.09
703.91	10523.05
704.04	10665.82
704.17	10633.05
704.31	10572.20
704.44	10363.89
704.57	10244.52
704.70	10171.97
704.83	10157.92
704.96	10101.75
705.10	10195.37
705.23	9980.04
>>>>>End Processed Spectral Data<<<<<
