SpectraSuite Data File
++++++++++++++++++++++++++++++++++++
Date: Fri Oct 18 13:58:05 GMT-05:00 2013
User: bianchi
Dark Spectrum Present: No
Reference Spectrum Present: No
Number of Sampled Component Spectra: 1
Spectrometers: USB2+H05261
Integration Time (usec): 50000 (USB2+H05261)
Spectra Averaged: 1 (USB2+H05261)
Boxcar Smoothing: 0 (USB2+H05261)
Correct for Electrical Dark: No (USB2+H05261)
Strobe/Lamp Enabled: No (USB2+H05261)
Correct for Detector Non-linearity: No (USB2+H05261)
Correct for Stray Light: No (USB2+H05261)
Number of Pixels in Processed Spectrum: 2048
>>>>>Begin Processed Spectral Data<<<<<
365.73	0.00
365.92	0.00
366.12	0.00
366.32	0.00
366.52	0.00
366.72	0.00
366.91	0.00
367.11	0.00
367.31	0.00
367.51	0.00
367.70	0.00
367.90	0.00
368.10	0.00
368.30	0.00
368.49	0.00
368.69	0.00
368.89	0.00
369.09	0.00
369.28	0.00
369.48	0.00
369.68	0.00
369.87	0.00
370.07	0.00
370.27	0.00
370.47	0.00
370.66	81.92
370.86	100.64
371.06	145.11
371.25	175.54
371.45	128.73
371.65	163.84
371.84	156.82
372.04	133.41
372.24	177.88
372.44	107.66
372.63	135.75
372.83	140.43
373.03	184.90
373.22	201.29
373.42	196.60
373.62	238.73
373.81	196.60
374.01	280.86
374.21	264.48
374.40	243.42
374.60	250.44
374.79	238.73
374.99	276.18
375.19	245.76
375.38	278.52
375.58	292.57
375.78	217.67
375.97	250.44
376.17	271.50
376.37	255.12
376.56	269.16
376.76	306.61
376.95	287.89
377.15	339.38
377.35	220.01
377.54	285.55
377.74	271.50
377.93	287.89
378.13	271.50
378.33	292.57
378.52	280.86
378.72	292.57
378.91	276.18
379.11	327.68
379.31	332.36
379.50	318.31
379.70	341.72
379.89	294.91
380.09	264.48
380.28	294.91
380.48	283.20
380.68	330.02
380.87	320.65
381.07	383.85
381.26	273.84
381.46	308.95
381.65	337.04
381.85	311.29
382.04	292.57
382.24	360.44
382.43	411.93
382.63	330.02
382.83	381.51
383.02	365.12
383.22	332.36
383.41	353.42
383.61	390.87
383.80	365.12
384.00	379.17
384.19	294.91
384.39	334.70
384.58	327.68
384.78	351.08
384.97	351.08
385.17	407.25
385.36	463.43
385.56	376.83
385.75	304.27
385.95	468.11
386.14	400.23
386.34	447.04
386.53	374.49
386.72	404.91
386.92	386.19
387.11	390.87
387.31	479.81
387.50	465.77
387.70	407.25
387.89	444.70
388.09	367.46
388.28	463.43
388.48	550.03
388.67	367.46
388.86	397.89
389.06	507.90
389.25	437.68
389.45	465.77
389.64	493.85
389.84	475.13
390.03	468.11
390.22	440.02
390.42	484.49
390.61	526.62
390.81	489.17
391.00	559.39
391.19	573.43
391.39	435.34
391.58	540.66
391.78	458.74
391.97	552.37
392.16	535.98
392.36	603.86
392.55	596.84
392.75	479.81
392.94	559.39
393.13	594.50
393.33	550.03
393.52	596.84
393.71	528.96
393.91	610.88
394.10	599.18
394.29	608.54
394.49	559.39
394.68	690.46
394.88	568.75
395.07	564.07
395.26	580.45
395.46	603.86
395.65	599.18
395.84	645.99
396.04	690.46
396.23	641.31
396.42	617.90
396.62	653.01
396.81	669.39
397.00	622.58
397.19	690.46
397.39	664.71
397.58	674.07
397.77	685.78
397.97	702.16
398.16	720.88
398.35	622.58
398.55	681.10
398.74	744.29
398.93	739.61
399.12	702.16
399.32	767.70
399.51	716.20
399.70	858.98
399.90	755.99
400.09	763.01
400.28	805.14
400.47	709.18
400.67	823.87
400.86	844.93
401.05	760.67
401.24	877.70
401.44	870.68
401.63	844.93
401.82	826.21
402.01	830.89
402.21	861.32
402.40	964.30
402.59	856.64
402.78	884.72
402.97	959.62
403.17	910.47
403.36	945.58
403.55	964.30
403.74	973.66
403.93	887.06
404.13	929.19
404.32	926.85
404.51	940.90
404.70	889.40
404.89	968.98
405.09	992.39
405.28	866.00
405.47	959.62
405.66	987.71
405.85	1081.33
406.05	976.00
406.24	1029.84
406.43	1090.69
406.62	1039.20
406.81	1097.71
407.00	1025.15
407.20	1008.77
407.39	1036.86
407.58	1083.67
407.77	1153.88
407.96	1032.18
408.15	1151.54
408.34	947.92
408.54	1203.04
408.73	1032.18
408.92	1174.95
409.11	1149.20
409.30	1100.05
409.49	1196.01
409.68	1118.78
409.87	1118.78
410.07	1217.08
410.26	1167.93
410.45	1203.04
410.64	1226.44
410.83	1233.46
411.02	1317.72
411.21	1322.40
411.40	1240.48
411.59	1336.45
411.78	1338.79
411.98	1315.38
412.17	1409.00
412.36	1301.34
412.55	1341.13
412.74	1423.05
412.93	1420.71
413.12	1324.74
413.31	1397.30
413.50	1516.67
413.69	1359.85
413.88	1479.22
414.07	1551.78
414.26	1455.81
414.45	1490.92
414.64	1469.86
414.83	1591.56
415.02	1542.41
415.22	1570.50
415.41	1434.75
415.60	1626.67
415.79	1675.82
415.98	1645.40
416.17	1598.59
416.36	1626.67
416.55	1643.06
416.74	1743.70
416.93	1696.89
417.12	1673.48
417.31	1671.14
417.50	1788.17
417.69	1743.70
417.88	1771.79
418.07	1783.49
418.26	1680.50
418.45	1825.62
418.64	1919.24
418.83	1813.92
419.02	1816.26
419.21	1771.79
419.39	1785.83
419.58	1818.60
419.77	1930.94
419.96	1802.21
420.15	1959.03
420.34	1877.11
420.53	1865.41
420.72	1989.46
420.91	1961.37
421.10	1956.69
421.29	2076.06
421.48	1905.20
421.67	1980.09
421.86	1994.14
422.05	2054.99
422.24	1984.77
422.43	2050.31
422.61	2129.89
422.80	2038.61
422.99	2118.18
423.18	2073.71
423.37	2101.80
423.56	2090.10
423.75	2026.90
423.94	2136.91
424.13	1879.45
424.32	1865.41
424.50	1966.05
424.69	2197.76
424.88	2218.83
425.07	2125.21
425.26	2022.22
425.45	2146.27
425.64	2132.23
425.83	2080.74
426.01	2036.27
426.20	2064.35
426.39	2157.97
426.58	2038.61
426.77	2094.78
426.96	2202.44
427.15	2101.80
427.33	2193.08
427.52	2216.49
427.71	2275.00
427.90	2232.87
428.09	2132.23
428.28	2286.70
428.46	2230.53
428.65	2190.74
428.84	2363.94
429.03	2270.32
429.22	2148.61
429.40	2293.72
429.59	2307.77
429.78	2246.91
429.97	2204.78
430.16	2256.28
430.34	2286.70
430.53	2385.01
430.72	2305.43
430.91	2340.54
431.10	2298.41
431.28	2368.62
431.47	2431.82
431.66	2448.20
431.85	2506.71
432.03	2466.92
432.22	2431.82
432.41	2443.52
432.60	2539.48
432.79	2392.03
432.97	2572.25
433.16	2544.16
433.35	2473.95
433.54	2555.86
433.72	2689.28
433.91	2572.25
434.10	2546.50
434.28	2490.33
434.47	2677.57
434.66	2696.30
434.85	2558.21
435.03	2534.80
435.22	2516.08
435.41	2642.46
435.59	2612.04
435.78	2651.83
435.97	2581.61
436.16	2745.45
436.34	2754.81
436.53	2682.25
436.72	2789.92
436.90	2740.77
437.09	2820.35
437.28	2684.59
437.46	2747.79
437.65	2853.11
437.84	2787.58
438.02	2754.81
438.21	2871.84
438.40	2747.79
438.58	2916.31
438.77	2913.97
438.96	3040.36
439.14	3089.51
439.33	2986.52
439.52	2986.52
439.70	3066.10
439.89	3098.87
440.08	2991.20
440.26	2993.55
440.45	3141.00
440.63	3166.74
440.82	3180.79
441.01	3148.02
441.19	3192.49
441.38	3187.81
441.57	3178.45
441.75	3337.60
441.94	3346.97
442.12	3288.45
442.31	3393.78
442.50	3417.18
442.68	3391.44
442.87	3300.16
443.05	3342.28
443.24	3463.99
443.43	3400.80
443.61	3583.36
443.80	3550.59
443.98	3454.63
444.17	3353.99
444.35	3435.91
444.54	3559.95
444.73	3585.70
444.91	3543.57
445.10	3480.38
445.28	3438.25
445.47	3487.40
445.65	3531.87
445.84	3602.08
446.02	3545.91
446.21	3566.98
446.39	3375.05
446.58	3569.32
446.77	3503.78
446.95	3522.51
447.14	3548.25
447.32	3719.11
447.51	3618.47
447.69	3623.15
447.88	3658.26
448.06	3737.84
448.25	3550.59
448.43	3660.60
448.62	3557.61
448.80	3653.58
448.99	3676.98
449.17	3566.98
449.36	3686.34
449.54	3672.30
449.73	3892.31
449.91	3808.05
450.10	3714.43
450.28	3829.12
450.46	3873.59
450.65	3721.45
450.83	3845.50
451.02	3784.65
451.20	3798.69
451.39	3889.97
451.57	3833.80
451.76	3880.61
451.94	3880.61
452.13	3913.38
452.31	3983.59
452.49	3840.82
452.68	3906.35
452.86	3913.38
453.05	4042.11
453.23	3974.23
453.42	3922.74
453.60	3852.52
453.78	3913.38
453.97	3971.89
454.15	3981.25
454.34	4002.32
454.52	4093.60
454.70	4138.07
454.89	4170.83
455.07	4072.53
455.26	4035.08
455.44	4212.96
455.62	4194.24
455.81	4163.81
455.99	4252.75
456.17	4294.88
456.36	4234.03
456.54	4311.27
456.73	4315.95
456.91	4510.21
457.09	4351.06
457.28	4496.17
457.46	4311.27
457.64	4362.76
457.83	4395.53
458.01	4327.65
458.19	4510.21
458.38	4325.31
458.56	4671.71
458.74	4599.15
458.93	4351.06
459.11	4491.49
459.29	4519.57
459.48	4505.53
459.66	4578.09
459.84	4517.23
460.03	4603.83
460.21	4683.41
460.39	4538.30
460.57	4660.01
460.76	4610.86
460.94	4685.75
461.12	4713.84
461.31	4709.16
461.49	4723.20
461.67	4760.65
461.85	4851.93
462.04	4695.11
462.22	5057.90
462.40	4809.80
462.59	4774.69
462.77	4830.87
462.95	4774.69
463.13	4915.12
463.32	4741.93
463.50	4849.59
463.68	5053.22
463.86	4887.04
464.05	4779.37
464.23	5057.90
464.41	5074.28
464.59	4938.53
464.78	5064.92
464.96	5043.85
465.14	4910.44
465.32	5076.62
465.50	5081.30
465.69	5132.79
465.87	5057.90
466.05	5142.16
466.23	5151.52
466.41	5163.22
466.60	5345.78
466.78	5125.77
466.96	5057.90
467.14	5116.41
467.32	5060.24
467.51	5308.34
467.69	5240.46
467.87	5266.21
468.05	5163.22
468.23	5149.18
468.41	5224.08
468.60	5327.06
468.78	5446.43
468.96	5320.04
469.14	5427.70
469.32	5427.70
469.50	5331.74
469.69	5476.85
469.87	5535.37
470.05	5502.60
470.23	5528.35
470.41	5551.75
470.59	5458.13
470.77	5474.51
470.95	5598.56
471.14	5610.26
471.32	5619.63
471.50	5743.67
471.68	5678.14
471.86	5816.23
472.04	5521.32
472.22	5944.96
472.40	5701.54
472.58	5776.44
472.77	5811.55
472.95	5816.23
473.13	6211.78
473.31	5930.92
473.49	5699.20
473.67	5921.56
473.85	6190.72
474.03	6190.72
474.21	6085.39
474.39	6155.61
474.57	6064.33
474.75	6282.00
474.93	6282.00
475.12	6228.17
475.30	6303.06
475.48	6139.23
475.66	6352.21
475.84	6389.66
476.02	6567.54
476.20	6483.28
476.38	6700.95
476.56	6595.63
476.74	6647.12
476.92	6607.33
477.10	6658.82
477.28	6773.51
477.46	6857.77
477.64	6885.86
477.82	6920.96
478.00	7084.80
478.18	7140.97
478.36	7124.59
478.54	7103.53
478.72	7267.36
478.90	7520.14
479.08	7126.93
479.26	7356.30
479.44	7372.69
479.62	7499.08
479.80	7576.31
479.98	7557.59
480.16	7840.79
480.34	7602.06
480.52	7824.41
480.70	7747.17
480.88	7674.62
481.06	7899.31
481.24	7833.77
481.41	7913.35
481.59	8100.59
481.77	8140.38
481.95	8102.93
482.13	8327.63
482.31	8262.09
482.49	8414.23
482.67	8493.80
482.85	8634.24
483.03	8739.56
483.21	8613.17
483.39	8624.87
483.57	8601.47
483.74	8688.07
483.92	8926.80
484.10	8945.53
484.28	9097.66
484.46	9284.91
484.64	9329.38
484.82	9174.90
485.00	9247.46
485.18	9465.13
485.35	9544.70
485.53	9614.92
485.71	9596.20
485.89	9921.53
486.07	9811.53
486.25	9926.21
486.43	9867.70
486.61	10104.09
486.78	10155.58
486.96	10228.14
487.14	10548.79
487.32	10391.98
487.50	10384.96
487.68	10628.37
487.85	10567.52
488.03	10827.32
488.21	10834.34
488.39	10703.27
488.57	11047.33
488.75	10972.43
488.92	11040.31
489.10	11145.63
489.28	11272.02
489.46	11459.26
489.64	11382.03
489.81	11634.80
489.99	11679.27
490.17	11602.04
490.35	11740.13
490.53	11768.21
490.70	11927.37
490.88	11875.88
491.06	12006.95
491.24	12074.82
491.41	12140.36
491.59	12219.94
491.77	12198.87
491.95	12601.44
492.13	12542.93
492.30	12386.12
492.48	12416.54
492.66	12421.22
492.84	12592.08
493.01	13011.04
493.19	12879.97
493.37	12929.12
493.54	13156.15
493.72	13057.85
493.90	13085.94
494.08	13074.23
494.25	13432.33
494.43	13280.20
494.61	13748.31
494.79	13610.22
494.96	13816.18
495.14	13790.44
495.32	14022.15
495.49	13797.46
495.67	14097.05
495.85	14202.37
496.02	14080.66
496.20	14272.59
496.38	14373.23
496.55	14295.99
496.73	14368.55
496.91	14593.24
497.09	14630.69
497.26	14396.64
497.44	14441.11
497.62	14626.01
497.79	14916.23
497.97	14717.29
498.14	14977.09
498.32	14981.77
498.50	15316.47
498.67	15370.30
498.85	15248.59
499.03	15389.02
499.20	15272.00
499.38	15304.76
499.56	15513.07
499.73	15580.95
499.91	15658.18
500.08	15707.34
500.26	15583.29
500.44	15803.30
500.61	16002.24
500.79	15798.62
500.97	16074.80
501.14	16137.99
501.32	16086.50
501.49	16240.98
501.67	16358.00
501.84	16292.47
502.02	16411.84
502.20	16390.77
502.37	16531.20
502.55	16320.56
502.72	16685.68
502.90	16683.34
503.07	16795.68
503.25	16765.26
503.43	16552.27
503.60	16786.32
503.78	16924.41
503.95	16669.30
504.13	16889.31
504.30	16893.99
504.48	16741.85
504.65	17006.33
504.83	17125.70
505.01	17366.78
505.18	17551.68
505.36	17603.17
505.53	17568.06
505.71	17528.27
505.88	17682.75
506.06	17408.90
506.23	17930.84
506.41	17769.35
506.58	18036.17
506.76	17874.67
506.93	18141.49
507.11	17748.28
507.28	17968.29
507.46	17741.26
507.63	18246.82
507.81	18216.39
507.98	18246.82
508.16	18263.20
508.33	18518.32
508.50	18483.21
508.68	18553.43
508.85	18607.26
509.03	18281.92
509.20	18799.18
509.38	18927.91
509.55	18647.05
509.73	18738.33
509.90	18745.35
510.08	18911.53
510.25	18724.29
510.42	18829.61
510.60	19152.60
510.77	19286.01
510.95	19206.44
511.12	19419.42
511.30	19009.83
511.47	19323.46
511.64	19370.27
511.82	19524.75
511.99	19257.93
512.17	19503.68
512.34	19456.87
512.51	19470.92
512.69	19831.36
512.86	19522.41
513.04	20084.14
513.21	20006.90
513.38	20154.35
513.56	20095.84
513.73	19924.98
513.90	20114.56
514.08	19838.38
514.25	20348.62
514.43	20301.81
514.60	20304.15
514.77	20121.59
514.95	20425.86
515.12	20313.51
515.29	20409.47
515.47	20521.82
515.64	20570.97
515.81	20458.62
515.99	20755.87
516.16	21053.12
516.33	20805.02
516.51	21048.44
516.68	20563.95
516.85	20517.14
517.03	21010.99
517.20	20985.24
517.37	20809.70
517.54	21172.49
517.72	21462.71
517.89	21429.94
518.06	21502.50
518.24	21312.92
518.41	21256.75
518.58	21212.28
518.75	21266.11
518.93	21259.09
519.10	21523.57
519.27	21502.50
519.45	21703.79
519.62	21373.77
519.79	21469.73
519.96	21717.83
520.14	21748.26
520.31	21551.65
520.48	21553.99
520.65	21652.30
520.83	22129.77
521.00	21869.97
521.17	21855.92
521.34	22097.00
521.52	22197.64
521.69	22223.39
521.86	22263.18
522.03	22040.82
522.20	22314.67
522.38	22412.97
522.55	22342.75
522.72	22427.01
522.89	22501.91
523.07	22721.92
523.24	22684.47
523.41	22827.24
523.58	22560.42
523.75	22878.74
523.92	22520.63
524.10	22815.54
524.27	22878.74
524.44	23058.96
524.61	23342.16
524.78	23124.49
524.96	22899.80
525.13	22883.42
525.30	23363.23
525.47	23278.97
525.64	23117.47
525.81	23363.23
525.98	23494.30
526.16	23204.07
526.33	23407.70
526.50	23833.68
526.67	23608.98
526.84	23590.26
527.01	23316.42
527.18	23630.05
527.36	23782.18
527.53	23613.66
527.70	23761.12
527.87	23742.39
528.04	23821.97
528.21	23744.73
528.38	23957.72
528.55	23985.81
528.72	23896.87
528.89	23953.04
529.07	24081.77
529.24	24112.20
529.41	24203.48
529.58	23866.44
529.75	23931.98
529.92	24044.32
530.09	23957.72
530.26	24053.69
530.43	24308.80
530.60	23709.63
530.77	24095.82
530.94	24159.01
531.11	24559.24
531.28	23793.89
531.46	24444.56
531.63	24552.22
531.80	24603.71
531.97	24568.60
532.14	24898.62
532.31	24702.01
532.48	24512.43
532.65	24442.21
532.82	24627.12
532.99	24800.32
533.16	24624.78
533.33	25172.46
533.50	25212.25
533.67	24982.88
533.84	24786.27
534.01	25043.73
534.18	24877.55
534.35	25357.36
534.52	25010.96
534.69	25369.07
534.86	25504.82
535.03	25135.01
535.20	25530.56
535.37	25289.49
535.54	25511.84
535.71	25312.89
535.88	25336.30
536.05	25722.49
536.22	25563.33
536.38	25635.89
536.55	25385.45
536.72	25851.22
536.89	25713.13
537.06	26031.44
537.23	25771.64
537.40	25748.23
537.57	25553.97
537.74	25766.96
537.91	26281.88
538.08	26003.35
538.25	25996.33
538.42	26373.16
538.59	25879.30
538.75	25823.13
538.92	26038.46
539.09	26181.23
539.26	26181.23
539.43	26150.81
539.60	25874.62
539.77	25790.36
539.94	26064.21
540.11	26501.89
540.28	26171.87
540.44	26319.32
540.61	26377.84
540.78	26230.38
540.95	26490.18
541.12	26441.03
541.29	26394.22
541.46	26569.76
541.62	26335.71
541.79	26394.22
541.96	26352.09
542.13	26405.92
542.30	26876.37
542.47	26841.26
542.63	26665.72
542.80	26747.64
542.97	27257.88
543.14	26962.97
543.31	26782.75
543.48	26930.20
543.64	27129.15
543.81	27283.62
543.98	27161.92
544.15	27187.66
544.32	27707.26
544.48	27325.75
544.65	27449.80
544.82	27278.94
544.99	27012.12
545.16	27030.85
545.32	27356.18
545.49	27623.00
545.66	27379.59
545.83	27735.35
546.00	27559.81
546.16	27351.50
546.33	27264.90
546.50	27131.49
546.67	27604.28
546.83	27365.54
547.00	27796.20
547.17	27283.62
547.34	27648.75
547.50	27887.48
547.67	28067.70
547.84	27566.83
548.00	27934.29
548.17	28020.89
548.34	27601.94
548.51	27920.25
548.67	28130.90
548.84	27538.74
549.01	28158.99
549.18	28184.73
549.34	27969.40
549.51	28203.46
549.68	28318.14
549.84	28196.43
550.01	28276.01
550.18	27974.08
550.34	28063.02
550.51	28421.13
550.68	28053.66
550.84	28144.94
551.01	28400.06
551.18	27981.10
551.34	27910.89
551.51	28147.28
551.68	28379.00
551.84	28472.62
552.01	28442.19
552.18	28519.43
552.34	28500.70
552.51	28613.05
552.68	28648.16
552.84	28133.24
553.01	29172.44
553.18	28261.97
553.34	28872.85
553.51	28561.56
553.67	28772.21
553.84	28847.10
554.01	28856.46
554.17	29102.22
554.34	28748.80
554.51	28657.52
554.67	28734.76
554.84	28922.00
555.00	29043.71
555.17	29078.82
555.33	28706.67
555.50	28891.57
555.67	28922.00
555.83	29432.24
556.00	29032.00
556.16	29050.73
556.33	28900.94
556.50	28992.22
556.66	28936.04
556.83	29118.60
556.99	29345.64
557.16	29467.34
557.32	29420.53
557.49	29312.87
557.65	28903.28
557.82	28914.98
557.98	29188.82
558.15	29228.61
558.32	29071.79
558.48	29097.54
558.65	29373.72
558.81	29408.83
558.98	29268.40
559.14	29244.99
559.31	29560.97
559.47	29078.82
559.64	29593.73
559.80	29577.35
559.97	29563.31
560.13	29589.05
560.30	29441.60
560.46	29504.79
560.63	29488.41
560.79	29848.85
560.96	29617.14
561.12	29598.41
561.29	29689.70
561.45	29291.80
561.61	29876.94
561.78	29369.04
561.94	29998.65
562.11	29525.86
562.27	29631.18
562.44	29867.58
562.60	29968.22
562.77	29542.24
562.93	29685.01
563.10	30223.34
563.26	29759.91
563.42	30148.44
563.59	29900.34
563.75	29764.59
563.92	30235.04
564.08	29853.53
564.24	29820.77
564.41	29968.22
564.57	29764.59
564.74	29893.32
564.90	29919.07
565.07	30073.54
565.23	30108.65
565.39	30043.12
565.56	30160.14
565.72	29710.76
565.88	30183.55
566.05	29614.80
566.21	30225.68
566.38	30312.28
566.54	30211.64
566.70	30373.13
566.87	30504.20
567.03	29898.00
567.19	30499.52
567.36	30036.09
567.52	30244.40
567.68	30328.66
567.85	29677.99
568.01	30230.36
568.17	30206.95
568.34	29951.84
568.50	30127.38
568.66	30637.61
568.83	30504.20
568.99	30115.67
569.15	30314.62
569.32	30132.06
569.48	30040.78
569.64	30005.67
569.81	29919.07
569.97	30319.30
570.13	30527.61
570.30	30415.26
570.46	30644.63
570.62	30108.65
570.78	30295.89
570.95	30185.89
571.11	30129.72
571.27	30136.74
571.43	29970.56
571.60	30286.53
571.76	30368.45
571.92	30448.03
572.09	30555.69
572.25	30810.81
572.41	30424.62
572.57	30588.46
572.74	30930.18
572.90	30181.21
573.06	30284.19
573.22	30490.16
573.38	30642.29
573.55	30431.65
573.71	30995.71
573.87	30562.72
574.03	30518.25
574.20	30295.89
574.36	29905.02
574.52	30632.93
574.68	30473.78
574.84	30735.92
575.01	30499.52
575.17	30572.08
575.33	30501.86
575.49	30487.82
575.65	30796.77
575.82	30368.45
575.98	30649.32
576.14	30181.21
576.30	30656.34
576.46	30384.83
576.62	30267.81
576.79	30443.35
576.95	30426.96
577.11	30604.84
577.27	30565.06
577.43	30909.11
577.59	30731.23
577.75	30431.65
577.92	30749.96
578.08	30654.00
578.24	30768.68
578.40	30759.32
578.56	30923.16
578.72	30473.78
578.88	30881.03
579.04	30721.87
579.21	30962.95
579.37	30862.30
579.53	30616.55
579.69	30401.22
579.85	30513.56
580.01	30604.84
580.17	30569.74
580.33	30946.56
580.49	30279.51
580.65	30745.28
580.82	30433.99
580.98	30883.37
581.14	30902.09
581.30	30644.63
581.46	30663.36
581.62	30700.81
581.78	30534.63
581.94	30937.20
582.10	30698.47
582.26	30735.92
582.42	30845.92
582.58	30866.98
582.74	30520.59
582.90	30787.41
583.06	30768.68
583.22	30998.06
583.38	31075.29
583.54	31042.53
583.70	30857.62
583.86	30759.32
584.02	30555.69
584.18	31115.08
584.34	30782.73
584.50	30771.02
584.66	31075.29
584.82	30789.75
584.98	30703.15
585.14	30487.82
585.30	30789.75
585.46	30801.45
585.62	30710.17
585.78	30548.67
585.94	30581.44
586.10	30888.05
586.26	31138.49
586.42	31021.46
586.58	30677.40
586.74	30707.83
586.90	30682.08
587.06	30595.48
587.22	30642.29
587.38	31047.21
587.54	30820.17
587.70	31234.45
587.86	31164.23
588.02	31021.46
588.18	31709.58
588.34	31009.76
588.49	31040.18
588.65	31070.61
588.81	31047.21
588.97	31168.91
589.13	30822.51
589.29	30665.70
589.45	31173.60
589.61	31337.43
589.77	31606.59
589.93	31669.79
590.08	31311.69
590.24	31110.40
590.40	31288.28
590.56	31311.69
590.72	30771.02
590.88	31089.34
591.04	31049.55
591.20	31367.86
591.35	31456.80
591.51	31606.59
591.67	31702.56
591.83	31365.52
591.99	31503.61
592.15	31126.78
592.31	30941.88
592.46	30686.76
592.62	31206.36
592.78	31138.49
592.94	30913.80
593.10	31192.32
593.26	31321.05
593.41	31159.55
593.57	31342.11
593.73	31517.65
593.89	31433.39
594.05	31091.68
594.20	31236.79
594.36	31189.98
594.52	30948.90
594.68	30913.80
594.84	31140.83
594.99	31271.90
595.15	31307.01
595.31	31477.86
595.47	31154.87
595.62	31833.63
595.78	31358.50
595.94	31346.79
596.10	31292.96
596.25	31136.15
596.41	31175.94
596.57	30993.37
596.73	31220.41
596.88	31377.22
597.04	31456.80
597.20	31775.11
597.36	31510.63
597.51	31400.63
597.67	31330.41
597.83	31257.85
597.99	31173.60
598.14	31070.61
598.30	31449.78
598.46	30817.83
598.61	31487.23
598.77	31356.16
598.93	31402.97
599.09	31608.93
599.24	31833.63
599.40	31597.23
599.56	32002.14
599.71	31803.20
599.87	31571.49
600.03	31824.26
600.18	31335.09
600.34	31171.25
600.50	31131.47
600.65	31519.99
600.81	31835.97
600.97	31742.35
601.12	31618.30
601.28	31714.26
601.44	31267.22
601.59	31421.69
601.75	31723.62
601.91	31686.17
602.06	31651.06
602.22	31168.91
602.37	31660.43
602.53	31578.51
602.69	31798.52
602.84	31454.46
603.00	31955.33
603.16	31562.12
603.31	31243.81
603.47	31665.11
603.62	31314.03
603.78	31374.88
603.94	31370.20
604.09	31562.12
604.25	31307.01
604.40	31583.19
604.56	31491.91
604.71	31824.26
604.87	31573.83
605.03	31566.81
605.18	31728.30
605.34	31690.85
605.49	31395.95
605.65	31356.16
605.80	31218.07
605.96	31395.95
606.12	31580.85
606.27	31754.05
606.43	31292.96
606.58	31655.75
606.74	31400.63
606.89	31206.36
607.05	31548.08
607.20	31370.20
607.36	31213.38
607.51	31552.76
607.67	31061.25
607.82	31580.85
607.98	31297.64
608.13	31393.61
608.29	31414.67
608.44	31339.77
608.60	31634.68
608.75	31419.35
608.91	31290.62
609.06	31009.76
609.22	31669.79
609.37	31398.29
609.53	31316.37
609.68	30899.75
609.84	31140.83
609.99	31112.74
610.15	31398.29
610.30	31288.28
610.46	31040.18
610.61	31332.75
610.76	31335.09
610.92	31168.91
611.07	31353.82
611.23	30874.01
611.38	30829.54
611.54	30710.17
611.69	31147.85
611.84	30808.47
612.00	30993.37
612.15	31185.30
612.31	31407.65
612.46	31138.49
612.62	30859.96
612.77	31040.18
612.92	31321.05
613.08	31072.95
613.23	31047.21
613.39	31009.76
613.54	30841.24
613.69	30857.62
613.85	30639.95
614.00	30766.34
614.15	30745.28
614.31	30668.04
614.46	30883.37
614.62	30771.02
614.77	31262.54
614.92	31435.74
615.08	30941.88
615.23	30927.84
615.38	30789.75
615.54	30974.65
615.69	30679.74
615.84	30579.10
616.00	30794.43
616.15	30604.84
616.30	30998.06
616.46	30497.18
616.61	30866.98
616.76	31110.40
616.92	30923.16
617.07	30433.99
617.22	30904.43
617.37	30918.48
617.53	30565.06
617.68	30532.29
617.83	30333.34
617.99	30649.32
618.14	30581.44
618.29	30134.40
618.45	30511.22
618.60	30691.44
618.75	30696.13
618.90	30745.28
619.06	30855.28
619.21	30728.89
619.36	30686.76
619.51	30096.95
619.67	29998.65
619.82	30249.08
619.97	30480.80
620.12	30319.30
620.28	30015.03
620.43	30384.83
620.58	30703.15
620.73	30560.37
620.89	30466.75
621.04	30132.06
621.19	30485.48
621.34	30387.18
621.49	29617.14
621.65	30405.90
621.80	30338.02
621.95	29909.71
622.10	30096.95
622.25	29783.32
622.41	30113.33
622.56	30213.98
622.71	30340.36
622.86	30478.46
623.01	29886.30
623.16	29986.94
623.32	30080.56
623.47	30256.11
623.62	30101.63
623.77	30061.84
623.92	29743.53
624.07	29888.64
624.23	29659.27
624.38	29731.83
624.53	29734.17
624.68	29837.15
624.83	30352.07
624.98	30382.49
625.13	29923.75
625.29	29661.61
625.44	30038.44
625.59	29776.30
625.74	29717.78
625.89	29261.38
626.04	30033.75
626.19	29783.32
626.34	29507.13
626.49	29600.76
626.65	29619.48
626.80	30015.03
626.95	29757.57
627.10	29802.04
627.25	29764.59
627.40	29640.54
627.55	29247.33
627.70	29163.08
627.85	29493.09
628.00	29312.87
628.15	29628.84
628.30	28994.56
628.45	29497.77
628.60	29298.83
628.76	29233.29
628.91	29486.07
629.06	29085.84
629.21	29441.60
629.36	29095.20
629.51	29408.83
629.66	29418.19
629.81	28980.51
629.96	29116.26
630.11	29242.65
630.26	29008.60
630.41	29373.72
630.56	28950.09
630.71	29069.45
630.86	29104.56
631.01	29032.00
631.16	29104.56
631.31	28851.78
631.46	28793.27
631.61	29008.60
631.76	29050.73
631.91	28842.42
632.06	29237.97
632.21	28910.30
632.36	28914.98
632.51	28835.40
632.66	28739.44
632.81	28687.95
632.96	28835.40
633.10	28917.32
633.25	28751.14
633.40	29167.76
633.55	28826.04
633.70	28566.24
633.85	28910.30
634.00	28622.41
634.15	28809.65
634.30	28732.42
634.45	28456.23
634.60	28659.86
634.75	28788.59
634.90	29043.71
635.05	28968.81
635.19	28709.01
635.34	28952.43
635.49	28610.71
635.64	28737.10
635.79	28709.01
635.94	28531.13
636.09	28460.91
636.24	28371.97
636.39	28360.27
636.53	28268.99
636.68	28198.77
636.83	28044.30
636.98	28528.79
637.13	28292.40
637.28	28772.21
637.43	28577.94
637.57	28285.37
637.72	28484.32
637.87	28474.96
638.02	28114.52
638.17	28650.50
638.32	27562.15
638.46	27978.76
638.61	28041.96
638.76	27971.74
638.91	27835.99
639.06	28058.34
639.20	28386.02
639.35	28311.12
639.50	28018.55
639.65	28570.92
639.80	28332.18
639.94	28229.20
640.09	28151.96
640.24	27938.97
640.39	27679.18
640.54	27749.39
640.68	27988.13
640.83	27431.08
640.98	27824.29
641.13	27590.24
641.27	27903.87
641.42	27817.27
641.57	27871.10
641.72	27934.29
641.86	27674.49
642.01	27927.27
642.16	27623.00
642.31	27604.28
642.45	27887.48
642.60	27700.24
642.75	27639.39
642.90	27496.61
643.04	27779.82
643.19	27529.38
643.34	27658.11
643.48	27749.39
643.63	27906.21
643.78	27690.88
643.93	27805.56
644.07	28166.01
644.22	27529.38
644.37	27978.76
644.51	27288.31
644.66	27447.46
644.81	27351.50
644.95	27143.19
645.10	27475.55
645.25	27503.64
645.39	27510.66
645.54	27740.03
645.69	27690.88
645.83	27604.28
645.98	27241.50
646.13	27466.19
646.27	27655.77
646.42	27300.01
646.57	27503.64
646.71	27157.24
646.86	27192.34
647.00	27049.57
647.15	27122.13
647.30	27082.34
647.44	26764.03
647.59	27513.00
647.74	27087.02
647.88	27005.10
648.03	27229.79
648.17	27330.44
648.32	27424.06
648.47	27023.83
648.61	27040.21
648.76	27051.91
648.90	26799.13
649.05	27152.55
649.20	26977.01
649.34	26749.98
649.49	27225.11
649.63	26560.40
649.78	26586.15
649.92	26829.56
650.07	27021.48
650.21	26794.45
650.36	26845.94
650.51	26684.45
650.65	26930.20
650.80	26766.37
650.94	26789.77
651.09	26974.67
651.23	26541.68
651.38	26476.14
651.52	27016.80
651.67	26235.06
651.81	26874.03
651.96	26602.53
652.10	26501.89
652.25	26497.20
652.39	26757.00
652.54	26888.07
652.68	26822.54
652.83	26417.63
652.97	26721.90
653.12	26714.87
653.26	26380.18
653.41	26679.77
653.55	26338.05
653.70	26302.94
653.84	26235.06
653.99	26485.50
654.13	26274.85
654.27	26218.68
654.42	26309.96
654.56	26412.95
654.71	26801.47
654.85	26279.54
655.00	26031.44
655.14	26417.63
655.29	26153.15
655.43	26342.73
655.57	26445.71
655.72	26494.86
655.86	26480.82
656.01	26160.17
656.15	25972.92
656.30	25956.54
656.44	26125.06
656.58	25944.84
656.73	26157.83
656.87	26214.00
657.01	26024.42
657.16	26354.43
657.30	25858.24
657.45	26071.23
657.59	26691.47
657.73	25685.04
657.88	25738.87
658.02	25685.04
658.16	25757.60
658.31	25537.59
658.45	25647.59
658.60	25479.07
658.74	25603.12
658.88	25820.79
659.03	25582.06
659.17	25617.16
659.31	26111.02
659.46	25802.07
659.60	25855.90
659.74	25720.15
659.89	25750.57
660.03	25497.80
660.17	25284.81
660.32	25392.47
660.46	25340.98
660.60	25226.29
660.74	25256.72
660.89	25376.09
661.03	25120.97
661.17	25458.01
661.32	25221.61
661.46	25240.34
661.60	25071.82
661.74	25259.06
661.89	25214.59
662.03	25156.08
662.17	25460.35
662.31	25207.57
662.46	25315.23
662.60	24872.87
662.74	25041.39
662.88	24751.17
663.03	24875.21
663.17	24793.29
663.31	24615.41
663.45	24830.74
663.60	24638.82
663.74	24372.00
663.88	24423.49
664.02	24996.92
664.17	24498.39
664.31	24748.82
664.45	24386.04
664.59	24641.16
664.73	24737.12
664.88	24678.61
665.02	24414.13
665.16	24559.24
665.30	24432.85
665.44	24528.81
665.59	24187.10
665.73	24236.25
665.87	23901.55
666.01	24402.43
666.15	24107.52
666.29	23878.15
666.44	24341.57
666.58	24175.39
666.72	24030.28
666.86	24379.02
667.00	24201.14
667.14	24063.05
667.28	23791.55
667.43	23688.56
667.57	24116.88
667.71	23590.26
667.85	23831.33
667.99	23580.90
668.13	23978.79
668.27	23559.83
668.41	23374.93
668.56	23559.83
668.70	23473.23
668.84	23452.17
668.98	23440.47
669.12	23435.78
669.26	23356.21
669.40	23363.23
669.54	23531.75
669.68	23681.54
669.82	23325.78
669.96	22911.50
670.10	22960.66
670.25	22979.38
670.39	23115.13
670.53	23349.18
670.67	23185.35
670.81	23126.83
670.95	23190.03
671.09	23035.55
671.23	22864.69
671.37	23168.96
671.51	23091.73
671.65	23143.22
671.79	22504.25
671.93	22731.28
672.07	23070.66
672.21	22693.83
672.35	22539.36
672.49	22384.88
672.63	22204.66
672.77	22237.43
672.91	22520.63
673.05	22656.39
673.19	22515.95
673.33	22434.03
673.47	22345.09
673.61	22478.50
673.75	22431.69
673.89	22726.60
674.03	22548.72
674.17	22003.38
674.31	21986.99
674.45	22057.21
674.59	21996.35
674.73	21986.99
674.87	21827.84
675.01	21949.54
675.15	21675.70
675.29	21640.59
675.43	21640.59
675.56	21628.89
675.70	21460.37
675.84	21638.25
675.98	21226.32
676.12	21715.49
676.26	21638.25
676.40	21558.67
676.54	21418.24
676.68	21231.00
676.82	21156.10
676.96	21406.54
677.10	21195.89
677.23	20821.41
677.37	20634.16
677.51	20746.51
677.65	20835.45
677.79	20292.44
677.93	20442.24
678.07	20423.51
678.21	20311.17
678.34	20489.05
678.48	20350.96
678.62	20287.76
678.76	20056.05
678.90	20397.77
679.04	20301.81
679.18	20247.97
679.31	20067.75
679.45	20046.69
679.59	19988.18
679.73	19913.28
679.87	19983.49
680.00	19782.21
680.14	19880.51
680.28	20016.26
680.42	19810.29
680.56	19791.57
680.70	19711.99
680.83	19726.04
680.97	19445.17
681.11	19421.77
681.25	19470.92
681.39	19091.75
681.52	19185.37
681.66	19358.57
681.80	19021.53
681.94	19136.22
682.07	18850.67
682.21	18960.68
682.35	18672.79
682.49	19164.31
682.62	19009.83
682.76	18761.73
682.90	18712.58
683.04	18588.53
683.17	18967.70
683.31	18719.60
683.45	18848.33
683.59	18707.90
683.72	18302.99
683.86	18312.35
684.00	18029.15
684.13	18171.92
684.27	18190.64
684.41	18200.01
684.55	18146.17
684.68	18059.57
684.82	17989.36
684.96	17598.49
685.09	17359.75
685.23	17621.89
685.37	17558.70
685.50	17804.46
685.64	18038.51
685.78	17322.30
685.91	17682.75
686.05	17830.20
686.19	17444.01
686.32	17575.08
686.46	17310.60
686.60	17008.67
686.73	17181.87
686.87	17097.61
687.01	17067.19
687.14	17312.94
687.28	17085.91
687.42	16844.84
687.55	16641.21
687.69	16446.94
687.82	16503.12
687.96	16563.97
688.10	16938.46
688.23	16872.92
688.37	16453.97
688.50	16613.12
688.64	16376.73
688.78	16603.76
688.91	16226.93
689.05	16346.30
689.18	16222.25
689.32	15920.32
689.46	15906.28
689.59	16217.57
689.73	16053.73
689.86	15901.60
690.00	15688.61
690.13	15697.97
690.27	15690.95
690.41	15826.70
690.54	15672.23
690.68	15543.50
690.81	15702.65
690.95	15536.48
691.08	15606.69
691.22	15744.78
691.35	15379.66
691.49	15197.10
691.62	15290.72
691.76	15307.10
691.89	15197.10
692.03	15054.33
692.16	14902.19
692.30	14848.36
692.43	14750.06
692.57	14867.08
692.70	14651.75
692.84	14738.35
692.97	14672.82
693.11	14721.97
693.24	14429.40
693.38	14778.14
693.51	14581.54
693.65	14530.05
693.78	14279.61
693.92	14370.89
694.05	14523.02
694.19	14347.48
694.32	14101.73
694.45	14101.73
694.59	13781.07
694.72	14181.31
694.86	13582.13
694.99	13720.22
695.13	13797.46
695.26	13661.71
695.39	13640.64
695.53	13523.62
695.66	13453.40
695.80	13537.66
695.93	13355.10
696.07	13511.91
696.20	13591.49
696.33	13530.64
696.47	13378.50
696.60	13268.50
696.73	12959.55
696.87	13022.74
697.00	12903.37
697.14	13090.62
697.27	12709.11
697.40	12821.45
697.54	12671.66
697.67	12521.87
697.80	12578.04
697.94	12615.49
698.07	12215.26
698.21	12430.59
698.34	12610.81
698.47	12620.17
698.61	12407.18
698.74	12568.68
698.87	12439.95
699.01	12498.46
699.14	12423.56
699.27	12156.74
699.40	12081.85
699.54	12030.35
699.67	12056.10
699.80	11957.80
699.94	11903.96
700.07	11981.20
700.20	11796.30
700.34	11679.27
700.47	11367.98
700.60	11733.11
700.73	11957.80
700.87	11630.12
701.00	11550.54
701.13	11290.74
701.26	11744.81
701.40	11658.21
701.53	11510.75
701.66	11353.94
701.79	11447.56
701.93	11349.26
702.06	10977.11
702.19	11183.08
702.32	11147.97
702.46	10920.94
702.59	10719.65
702.72	10895.19
702.85	10740.72
702.99	10759.44
703.12	10684.55
703.25	10551.14
703.38	10611.99
703.51	10630.71
703.65	10691.57
703.78	10558.16
703.91	10736.04
704.04	10539.43
704.17	10429.43
704.31	10548.79
704.44	10230.48
704.57	10328.78
704.70	10178.99
704.83	10064.30
704.96	9966.00
705.10	9837.27
705.23	10200.05
>>>>>End Processed Spectral Data<<<<<
