SpectraSuite Data File
++++++++++++++++++++++++++++++++++++
Date: Fri Oct 18 13:57:59 GMT-05:00 2013
User: bianchi
Dark Spectrum Present: No
Reference Spectrum Present: No
Number of Sampled Component Spectra: 1
Spectrometers: USB2+H05261
Integration Time (usec): 50000 (USB2+H05261)
Spectra Averaged: 1 (USB2+H05261)
Boxcar Smoothing: 0 (USB2+H05261)
Correct for Electrical Dark: No (USB2+H05261)
Strobe/Lamp Enabled: No (USB2+H05261)
Correct for Detector Non-linearity: No (USB2+H05261)
Correct for Stray Light: No (USB2+H05261)
Number of Pixels in Processed Spectrum: 2048
>>>>>Begin Processed Spectral Data<<<<<
365.73	0.00
365.92	0.00
366.12	0.00
366.32	0.00
366.52	0.00
366.72	0.00
366.91	0.00
367.11	0.00
367.31	0.00
367.51	0.00
367.70	0.00
367.90	0.00
368.10	0.00
368.30	0.00
368.49	0.00
368.69	0.00
368.89	0.00
369.09	0.00
369.28	0.00
369.48	0.00
369.68	0.00
369.87	0.00
370.07	0.00
370.27	0.00
370.47	0.00
370.66	58.51
370.86	105.32
371.06	168.52
371.25	128.73
371.45	100.64
371.65	95.96
371.84	100.64
372.04	173.20
372.24	210.65
372.44	105.32
372.63	224.69
372.83	194.26
373.03	182.56
373.22	177.88
373.42	205.97
373.62	220.01
373.81	175.54
374.01	224.69
374.21	266.82
374.40	168.52
374.60	259.80
374.79	248.10
374.99	210.65
375.19	234.05
375.38	205.97
375.58	290.23
375.78	245.76
375.97	334.70
376.17	236.39
376.37	287.89
376.56	266.82
376.76	231.71
376.95	290.23
377.15	262.14
377.35	248.10
377.54	257.46
377.74	271.50
377.93	248.10
378.13	283.20
378.33	266.82
378.52	292.57
378.72	224.69
378.91	273.84
379.11	205.97
379.31	236.39
379.50	262.14
379.70	358.10
379.89	348.74
380.09	280.86
380.28	245.76
380.48	299.59
380.68	341.72
380.87	290.23
381.07	344.06
381.26	269.16
381.46	306.61
381.65	337.04
381.85	304.27
382.04	269.16
382.24	409.59
382.43	400.23
382.63	386.19
382.83	397.89
383.02	421.30
383.22	402.57
383.41	297.25
383.61	308.95
383.80	325.33
384.00	402.57
384.19	393.21
384.39	325.33
384.58	444.70
384.78	353.42
384.97	428.32
385.17	353.42
385.36	414.27
385.56	421.30
385.75	341.72
385.95	428.32
386.14	379.17
386.34	433.00
386.53	390.87
386.72	454.06
386.92	440.02
387.11	416.62
387.31	425.98
387.50	409.59
387.70	400.23
387.89	449.38
388.09	428.32
388.28	514.92
388.48	442.36
388.67	470.45
388.86	461.09
389.06	465.77
389.25	451.72
389.45	458.74
389.64	458.74
389.84	414.27
390.03	465.77
390.22	531.30
390.42	517.26
390.61	547.69
390.81	514.92
391.00	498.53
391.19	587.47
391.39	479.81
391.58	575.77
391.78	543.00
391.97	575.77
392.16	585.13
392.36	566.41
392.55	561.73
392.75	517.26
392.94	603.86
393.13	596.84
393.33	545.34
393.52	510.24
393.71	535.98
393.91	610.88
394.10	596.84
394.29	543.00
394.49	603.86
394.68	631.94
394.88	620.24
395.07	552.37
395.26	727.91
395.46	610.88
395.65	685.78
395.84	690.46
396.04	629.60
396.23	629.60
396.42	603.86
396.62	538.32
396.81	636.63
397.00	624.92
397.19	732.59
397.39	716.20
397.58	730.25
397.77	739.61
397.97	711.52
398.16	713.86
398.35	692.80
398.55	723.23
398.74	709.18
398.93	746.63
399.12	772.38
399.32	645.99
399.51	788.76
399.70	777.06
399.90	662.37
400.09	781.74
400.28	800.46
400.47	739.61
400.67	695.14
400.86	758.33
401.05	755.99
401.24	826.21
401.44	842.59
401.63	755.99
401.82	795.78
402.01	828.55
402.21	854.30
402.40	830.89
402.59	812.17
402.78	795.78
402.97	844.93
403.17	809.83
403.36	901.11
403.55	833.23
403.74	898.77
403.93	842.59
404.13	898.77
404.32	1011.11
404.51	912.81
404.70	999.41
404.89	922.17
405.09	971.32
405.28	936.21
405.47	976.00
405.66	954.94
405.85	994.73
406.05	983.02
406.24	973.66
406.43	971.32
406.62	1020.47
406.81	1111.75
407.00	945.58
407.20	1083.67
407.39	1050.90
407.58	1053.24
407.77	1018.13
407.96	1090.69
408.15	1132.82
408.34	1100.05
408.54	1053.24
408.73	1039.20
408.92	1149.20
409.11	1193.67
409.30	1142.18
409.49	1240.48
409.68	1139.84
409.87	1167.93
410.07	1207.72
410.26	1191.33
410.45	1188.99
410.64	1203.04
410.83	1196.01
411.02	1217.08
411.21	1268.57
411.40	1341.13
411.59	1345.81
411.78	1273.25
411.98	1331.76
412.17	1280.27
412.36	1310.70
412.55	1317.72
412.74	1458.15
412.93	1465.18
413.12	1425.39
413.31	1385.60
413.50	1416.02
413.69	1493.26
413.88	1432.41
414.07	1427.73
414.26	1448.79
414.45	1401.98
414.64	1486.24
414.83	1446.45
415.02	1577.52
415.22	1575.18
415.41	1640.72
415.60	1596.25
415.79	1582.20
415.98	1584.54
416.17	1565.82
416.36	1640.72
416.55	1605.61
416.74	1710.93
416.93	1617.31
417.12	1741.36
417.31	1612.63
417.50	1666.46
417.69	1767.10
417.88	1743.70
418.07	1710.93
418.26	1842.00
418.45	1802.21
418.64	1877.11
418.83	1783.49
419.02	1949.67
419.21	1870.09
419.39	1771.79
419.58	1799.87
419.77	1802.21
419.96	1849.02
420.15	1959.03
420.34	1849.02
420.53	1970.73
420.72	1888.81
420.91	1902.86
421.10	1914.56
421.29	2057.33
421.48	1879.45
421.67	1980.09
421.86	1872.43
422.05	1966.05
422.24	1975.41
422.43	1996.48
422.61	2026.90
422.80	2090.10
422.99	2001.16
423.18	2097.12
423.37	2026.90
423.56	2059.67
423.75	2029.24
423.94	2033.93
424.13	1867.75
424.32	1984.77
424.50	2083.08
424.69	2076.06
424.88	2127.55
425.07	2062.01
425.26	2143.93
425.45	2176.70
425.64	2104.14
425.83	2024.56
426.01	2120.53
426.20	2045.63
426.39	2019.88
426.58	2080.74
426.77	2165.00
426.96	2136.91
427.15	2045.63
427.33	2237.55
427.52	2125.21
427.71	2242.23
427.90	2153.29
428.09	2202.44
428.28	2193.08
428.46	2190.74
428.65	2122.87
428.84	2312.45
429.03	2314.79
429.22	2209.47
429.40	2286.70
429.59	2293.72
429.78	2228.19
429.97	2211.81
430.16	2275.00
430.34	2424.80
430.53	2478.63
430.72	2401.39
430.91	2214.15
431.10	2305.43
431.28	2333.51
431.47	2392.03
431.66	2356.92
431.85	2303.09
432.03	2551.18
432.22	2574.59
432.41	2459.90
432.60	2471.61
432.79	2525.44
432.97	2450.54
433.16	2415.43
433.35	2473.95
433.54	2490.33
433.72	2581.61
433.91	2497.35
434.10	2534.80
434.28	2455.22
434.47	2567.57
434.66	2602.68
434.85	2717.36
435.03	2705.66
435.22	2679.91
435.41	2764.17
435.59	2700.98
435.78	2600.34
435.97	2649.49
436.16	2712.68
436.34	2745.45
436.53	2733.75
436.72	2869.50
436.90	2644.81
437.09	2803.96
437.28	2656.51
437.46	2740.77
437.65	2909.29
437.84	2740.77
438.02	2691.62
438.21	2869.50
438.40	2759.49
438.58	2935.03
438.77	3012.27
438.96	2853.11
439.14	2942.05
439.33	3028.65
439.52	3141.00
439.70	2979.50
439.89	3070.78
440.08	3052.06
440.26	3016.95
440.45	3103.55
440.63	3077.80
440.82	3169.09
441.01	3213.56
441.19	3159.72
441.38	3173.77
441.57	3398.46
441.75	3141.00
441.94	3258.03
442.12	3295.47
442.31	3361.01
442.50	3258.03
442.68	3421.86
442.87	3412.50
443.05	3438.25
443.24	3489.74
443.43	3447.61
443.61	3403.14
443.80	3576.34
443.98	3541.23
444.17	3332.92
444.35	3475.70
444.54	3452.29
444.73	3438.25
444.91	3555.27
445.10	3440.59
445.28	3517.83
445.47	3407.82
445.65	3463.99
445.84	3454.63
446.02	3566.98
446.21	3543.57
446.39	3552.93
446.58	3604.42
446.77	3639.53
446.95	3466.33
447.14	3485.06
447.32	3613.79
447.51	3520.17
447.69	3700.39
447.88	3625.49
448.06	3590.38
448.25	3485.06
448.43	3574.00
448.62	3562.30
448.80	3585.70
448.99	3595.06
449.17	3754.22
449.36	3801.03
449.54	3625.49
449.73	3751.88
449.91	3850.18
450.10	3861.88
450.28	3819.75
450.46	3796.35
450.65	3794.01
450.83	3758.90
451.02	3733.15
451.20	3833.80
451.39	3953.16
451.57	3899.33
451.76	3775.28
451.94	3892.31
452.13	3948.48
452.31	4100.62
452.49	3843.16
452.68	3847.84
452.86	4042.11
453.05	3948.48
453.23	4049.13
453.42	3995.29
453.60	3976.57
453.78	4084.23
453.97	3992.95
454.15	3978.91
454.34	3918.06
454.52	4086.58
454.70	4117.00
454.89	4175.52
455.07	4138.07
455.26	4163.81
455.44	4081.89
455.62	4177.86
455.81	4149.77
455.99	4259.78
456.17	4138.07
456.36	4191.90
456.54	4166.15
456.73	4182.54
456.91	4479.79
457.09	4379.14
457.28	4557.02
457.46	4360.42
457.64	4496.17
457.83	4484.47
458.01	4407.23
458.19	4482.13
458.38	4390.84
458.56	4582.77
458.74	4575.75
458.93	4484.47
459.11	4344.03
459.29	4566.39
459.48	4606.17
459.66	4615.54
459.84	4674.05
460.03	4737.24
460.21	4634.26
460.39	4662.35
460.57	4746.61
460.76	4725.54
460.94	4730.22
461.12	4727.88
461.31	4669.37
461.49	4603.83
461.67	4971.30
461.85	4903.42
462.04	4863.63
462.22	5111.73
462.40	4868.31
462.59	4725.54
462.77	4762.99
462.95	5025.13
463.13	4931.51
463.32	4854.27
463.50	4968.96
463.68	4966.62
463.86	4905.76
464.05	4919.81
464.23	4781.71
464.41	5177.26
464.59	5093.01
464.78	5057.90
464.96	5121.09
465.14	4959.60
465.32	5174.92
465.50	5172.58
465.69	4966.62
465.87	5027.47
466.05	5067.26
466.23	5076.62
466.41	5158.54
466.60	5231.10
466.78	5095.35
466.96	5179.61
467.14	5156.20
467.32	5214.71
467.51	5245.14
467.69	5252.16
467.87	5160.88
468.05	5303.65
468.23	5366.85
468.41	5369.19
468.60	5231.10
468.78	5322.38
468.96	5242.80
469.14	5411.32
469.32	5500.26
469.50	5327.06
469.69	5481.53
469.87	5645.37
470.05	5621.97
470.23	5385.57
470.41	5708.57
470.59	5547.07
470.77	5572.82
470.95	5631.33
471.14	5724.95
471.32	5774.10
471.50	5935.60
471.68	5844.32
471.86	5579.84
472.04	5762.40
472.22	5928.58
472.40	5795.17
472.58	5954.32
472.77	5757.72
472.95	5973.05
473.13	6197.74
473.31	6052.63
473.49	5748.36
473.67	5921.56
473.85	5902.83
474.03	6141.57
474.21	6162.63
474.39	6179.01
474.57	6174.33
474.75	6270.30
474.93	6277.32
475.12	6326.47
475.30	6249.23
475.48	6520.73
475.66	6420.09
475.84	6326.47
476.02	6298.38
476.20	6537.12
476.38	6590.95
476.56	6663.51
476.74	6661.16
476.92	6698.61
477.10	6675.21
477.28	6920.96
477.46	6867.13
477.64	6864.79
477.82	7028.63
478.00	7227.57
478.18	7000.54
478.36	7349.28
478.54	7356.30
478.72	7073.10
478.90	7283.75
479.08	7442.90
479.26	7382.05
479.44	7377.37
479.62	7641.85
479.80	7351.62
479.98	7527.16
480.16	7782.28
480.34	7707.38
480.52	7693.34
480.70	7709.72
480.88	7871.22
481.06	7737.81
481.24	7875.90
481.41	8044.42
481.59	7955.48
481.77	8138.04
481.95	8250.39
482.13	8313.58
482.31	8201.24
482.49	8418.91
482.67	8489.12
482.85	8774.67
483.03	8645.94
483.21	8711.47
483.39	8568.70
483.57	8732.54
483.74	8805.10
483.92	8695.09
484.10	8863.61
484.28	9137.45
484.46	9132.77
484.64	9334.06
484.82	9172.56
485.00	9411.29
485.18	9441.72
485.35	9745.99
485.53	9591.52
485.71	9619.60
485.89	9736.63
486.07	9790.46
486.25	9825.57
486.43	9830.25
486.61	9839.61
486.78	9977.70
486.96	10197.71
487.14	10253.89
487.32	10202.40
487.50	10333.47
487.68	10509.01
487.85	10551.14
488.03	10579.22
488.21	10822.64
488.39	10775.83
488.57	10946.69
488.75	10918.60
488.92	11126.91
489.10	11201.80
489.28	11325.85
489.46	11367.98
489.64	11473.31
489.81	11473.31
489.99	11597.35
490.17	11667.57
490.35	11770.55
490.53	11800.98
490.70	11946.09
490.88	11756.51
491.06	11882.90
491.24	11899.28
491.41	12004.61
491.59	11999.93
491.77	12409.52
491.95	12304.20
492.13	12407.18
492.30	12594.42
492.48	12657.62
492.66	12601.44
492.84	12599.10
493.01	12624.85
493.19	13095.30
493.37	13095.30
493.54	13083.59
493.72	13495.53
493.90	13118.70
494.08	13359.78
494.25	13341.05
494.43	13486.17
494.61	13521.27
494.79	13858.31
494.96	13556.38
495.14	13624.26
495.32	13867.67
495.49	13914.48
495.67	13963.64
495.85	14127.47
496.02	14162.58
496.20	14235.14
496.38	14265.57
496.55	14195.35
496.73	14726.65
496.91	14335.78
497.09	14583.88
497.26	14860.06
497.44	14628.35
497.62	14956.02
497.79	14803.89
497.97	15030.92
498.14	15332.85
498.32	15089.43
498.50	15208.80
498.67	15419.45
498.85	15222.84
499.03	15623.08
499.20	15426.47
499.38	15431.15
499.56	15550.52
499.73	15552.86
499.91	15723.72
500.08	15609.03
500.26	15651.16
500.44	15555.20
500.61	15796.28
500.79	15903.94
500.97	15978.84
501.14	16128.63
501.32	16582.70
501.49	16334.60
501.67	15807.98
501.84	16046.71
502.02	16280.77
502.20	16500.78
502.37	16652.91
502.55	16751.21
502.72	16685.68
502.90	16470.35
503.07	16629.51
503.25	16702.06
503.43	16606.10
503.60	16964.20
503.78	16940.80
503.95	16774.62
504.13	17041.44
504.30	16980.59
504.48	17027.40
504.65	17128.04
504.83	17191.23
505.01	17551.68
505.18	17219.32
505.36	17633.60
505.53	17544.66
505.71	17472.10
505.88	17462.74
506.06	17329.33
506.23	17914.46
506.41	17692.11
506.58	17717.86
506.76	17839.56
506.93	17930.84
507.11	17764.67
507.28	18029.15
507.46	17987.02
507.63	17935.53
507.81	18277.24
507.98	17994.04
508.16	18228.09
508.33	18279.58
508.50	18251.50
508.68	18380.23
508.85	18508.96
509.03	18380.23
509.20	18829.61
509.38	18845.99
509.55	18888.12
509.73	18927.91
509.90	18747.69
510.08	18918.55
510.25	19225.16
510.42	19030.90
510.60	19367.93
510.77	19342.19
510.95	19286.01
511.12	18956.00
511.30	18757.05
511.47	19171.33
511.64	19091.75
511.82	19337.51
511.99	19578.58
512.17	19726.04
512.34	19309.42
512.51	19653.48
512.69	19419.42
512.86	19527.09
513.04	20023.28
513.21	19871.15
513.38	19974.13
513.56	19964.77
513.73	19857.10
513.90	19960.09
514.08	19962.43
514.25	20107.54
514.43	20116.90
514.60	20224.57
514.77	20196.48
514.95	20650.55
515.12	20266.70
515.29	20327.55
515.47	20587.35
515.64	20638.84
515.81	20432.88
515.99	20664.59
516.16	20613.10
516.33	20734.81
516.51	21235.68
516.68	20575.65
516.85	21043.76
517.03	21050.78
517.20	21018.01
517.37	21046.10
517.54	20936.09
517.72	21048.44
517.89	20903.32
518.06	21247.38
518.24	21532.93
518.41	21029.71
518.58	21151.42
518.75	21404.20
518.93	21631.23
519.10	21355.05
519.27	21640.59
519.45	21336.32
519.62	21261.43
519.79	21553.99
519.96	21319.94
520.14	21757.62
520.31	22033.80
520.48	22118.06
520.65	21876.99
520.83	21879.33
521.00	21933.16
521.17	21851.24
521.34	22120.40
521.52	22305.31
521.69	22246.79
521.86	22181.26
522.03	22684.47
522.20	22094.66
522.38	22513.61
522.55	22242.11
522.72	22539.36
522.89	22654.05
523.07	22621.28
523.24	22504.25
523.41	22647.02
523.58	22614.26
523.75	22731.28
523.92	22668.09
524.10	22513.61
524.27	22768.73
524.44	22888.10
524.61	22796.82
524.78	23122.15
524.96	22965.34
525.13	22925.55
525.30	23126.83
525.47	23070.66
525.64	23007.47
525.81	23178.33
525.98	23452.17
526.16	23323.44
526.33	23456.85
526.50	23400.68
526.67	23496.64
526.84	23580.90
527.01	23316.42
527.18	23386.63
527.36	23697.92
527.53	23821.97
527.70	23819.63
527.87	23784.52
528.04	23599.62
528.21	24063.05
528.38	23688.56
528.55	24013.90
528.72	23939.00
528.89	24091.13
529.07	23772.82
529.24	24027.94
529.41	24107.52
529.58	23950.70
529.75	24119.22
529.92	24233.91
530.09	24013.90
530.26	24147.31
530.43	24690.31
530.60	24261.99
530.77	24388.38
530.94	24582.65
531.11	24430.51
531.28	24746.48
531.46	24360.30
531.63	24753.51
531.80	24596.69
531.97	24470.30
532.14	24596.69
532.31	24362.64
532.48	25130.33
532.65	25069.48
532.82	24638.82
532.99	24830.74
533.16	24582.65
533.33	24699.67
533.50	25053.09
533.67	24926.71
533.84	24929.05
534.01	24769.89
534.18	24830.74
534.35	25053.09
534.52	24947.77
534.69	25497.80
534.86	25401.83
535.03	25233.32
535.20	25230.98
535.37	25378.43
535.54	25048.41
535.71	25249.70
535.88	25483.75
536.05	25390.13
536.22	25724.83
536.38	25589.08
536.55	25809.09
536.72	25340.98
536.89	25376.09
537.06	25659.29
537.23	25811.43
537.40	25626.53
537.57	25633.55
537.74	25624.18
537.91	26078.25
538.08	25701.42
538.25	25692.06
538.42	26008.03
538.59	26209.32
538.75	25649.93
538.92	25834.83
539.09	26057.18
539.26	25619.50
539.43	25642.91
539.60	26345.07
539.77	26263.15
539.94	25895.69
540.11	26239.75
540.28	25998.67
540.44	25951.86
540.61	26115.70
540.78	25970.58
540.95	26316.98
541.12	26345.07
541.29	26614.23
541.46	26338.05
541.62	26370.82
541.79	26370.82
541.96	26190.59
542.13	26422.31
542.30	26822.54
542.47	26551.04
542.63	26984.04
542.80	26654.02
542.97	26948.93
543.14	27098.72
543.31	27042.55
543.48	27175.96
543.64	27267.24
543.81	27019.14
543.98	27255.54
544.15	27166.60
544.32	27393.63
544.48	27248.52
544.65	27241.50
544.82	27232.13
544.99	27206.39
545.16	27325.75
545.32	27051.91
545.49	27503.64
545.66	27578.53
545.83	27419.38
546.00	27711.94
546.16	27337.46
546.33	27623.00
546.50	27400.65
546.67	27470.87
546.83	27742.37
547.00	27615.98
547.17	27672.15
547.34	27433.42
547.50	27807.90
547.67	28030.26
547.84	27819.61
548.00	27711.94
548.17	28039.62
548.34	27501.29
548.51	28070.04
548.67	28137.92
548.84	27814.93
549.01	27763.43
549.18	27894.50
549.34	27899.19
549.51	28126.22
549.68	28086.43
549.84	28102.81
550.01	27838.33
550.18	27733.01
550.34	28421.13
550.51	28336.87
550.68	28863.49
550.84	28383.68
551.01	28421.13
551.18	27885.14
551.34	28236.22
551.51	28126.22
551.68	28231.54
551.84	28252.61
552.01	28463.25
552.18	28730.08
552.34	28428.15
552.51	28374.31
552.68	28542.83
552.84	28577.94
553.01	28503.04
553.18	28786.25
553.34	28971.15
553.51	29008.60
553.67	28615.39
553.84	28713.69
554.01	28470.28
554.17	28945.41
554.34	28919.66
554.51	28467.94
554.67	29055.41
554.84	28760.50
555.00	29174.78
555.17	28662.20
555.33	29193.50
555.50	29120.95
555.67	28882.21
555.83	28987.53
556.00	28847.10
556.16	29280.10
556.33	29118.60
556.50	29160.73
556.66	29317.55
556.83	28973.49
556.99	29048.39
557.16	29457.98
557.32	29340.96
557.49	29003.92
557.65	28964.13
557.82	29252.02
557.98	29024.98
558.15	29275.42
558.32	29216.91
558.48	29289.46
558.65	29734.17
558.81	29722.46
558.98	29345.64
559.14	29387.77
559.31	29273.08
559.47	28989.88
559.64	29287.12
559.80	29745.87
559.97	29584.37
560.13	29453.30
560.30	29886.30
560.46	29338.62
560.63	29577.35
560.79	29759.91
560.96	29385.43
561.12	29685.01
561.29	29577.35
561.45	29378.40
561.61	29652.25
561.78	29640.54
561.94	30005.67
562.11	29757.57
562.27	29972.90
562.44	29465.00
562.60	29687.36
562.77	29589.05
562.93	29771.61
563.10	29532.88
563.26	29663.95
563.42	29806.72
563.59	30476.12
563.75	30213.98
563.92	30010.35
564.08	29905.02
564.24	29879.28
564.41	29869.92
564.57	29832.47
564.74	29902.68
564.90	30136.74
565.07	29874.60
565.23	30092.27
565.39	29881.62
565.56	29696.72
565.72	30190.57
565.88	29652.25
566.05	29628.84
566.21	30398.88
566.38	30092.27
566.54	29986.94
566.70	29818.42
566.87	30363.77
567.03	30469.09
567.19	30188.23
567.36	30436.33
567.52	29743.53
567.68	30473.78
567.85	29912.05
568.01	30230.36
568.17	30209.29
568.34	30211.64
568.50	30314.62
568.66	30391.86
568.83	30345.05
568.99	30171.85
569.15	30316.96
569.32	30047.80
569.48	30256.11
569.64	30274.83
569.81	30433.99
569.97	30363.77
570.13	30345.05
570.30	30270.15
570.46	30150.78
570.62	30501.86
570.78	30536.97
570.95	30487.82
571.11	30590.80
571.27	29984.60
571.43	29928.43
571.60	30253.76
571.76	30190.57
571.92	30118.01
572.09	30551.01
572.25	30354.41
572.41	30288.87
572.57	30558.03
572.74	30279.51
572.90	30033.75
573.06	30403.56
573.22	30284.19
573.38	30490.16
573.55	30286.53
573.71	30593.14
573.87	30614.21
574.03	30403.56
574.20	30504.20
574.36	30663.36
574.52	30656.34
574.68	30536.97
574.84	30513.56
575.01	30600.16
575.17	30553.35
575.33	30293.55
575.49	30164.82
575.65	30756.98
575.82	30794.43
575.98	30525.27
576.14	30658.68
576.30	30384.83
576.46	30403.56
576.62	30171.85
576.79	30682.08
576.95	30403.56
577.11	30780.39
577.27	30700.81
577.43	30700.81
577.59	30281.85
577.75	30515.90
577.92	30143.76
578.08	30595.48
578.24	30302.92
578.40	30698.47
578.56	31180.62
578.72	30799.11
578.88	30824.86
579.04	30986.35
579.21	30778.04
579.37	30993.37
579.53	30543.99
579.69	30558.03
579.85	30644.63
580.01	30604.84
580.17	30361.43
580.33	30773.36
580.49	30630.59
580.65	30916.14
580.82	30904.43
580.98	30675.06
581.14	30295.89
581.30	30771.02
581.46	30656.34
581.62	30543.99
581.78	30836.56
581.94	30932.52
582.10	30705.49
582.26	31014.44
582.42	30492.50
582.58	30951.24
582.74	30609.53
582.90	30490.16
583.06	30785.07
583.22	30249.08
583.38	30874.01
583.54	30436.33
583.70	30654.00
583.86	30670.38
584.02	30560.37
584.18	30855.28
584.34	30862.30
584.50	30602.50
584.66	30782.73
584.82	30405.90
584.98	30976.99
585.14	30565.06
585.30	30483.14
585.46	30628.25
585.62	30595.48
585.78	30855.28
585.94	30700.81
586.10	30785.07
586.26	30881.03
586.42	30984.01
586.58	30911.46
586.74	30302.92
586.90	30536.97
587.06	30492.50
587.22	31101.04
587.38	30792.09
587.54	31178.28
587.70	30913.80
587.86	31021.46
588.02	31175.94
588.18	31178.28
588.34	31005.08
588.49	31002.74
588.65	30967.63
588.81	30890.39
588.97	30864.64
589.13	30764.00
589.29	31199.34
589.45	31030.82
589.61	31014.44
589.77	30965.29
589.93	30806.13
590.08	30979.33
590.24	31232.11
590.40	31630.00
590.56	31360.84
590.72	31262.54
590.88	30717.19
591.04	31110.40
591.20	31232.11
591.35	31257.85
591.51	31424.03
591.67	31442.76
591.83	31442.76
591.99	30962.95
592.15	31576.17
592.31	31047.21
592.46	31384.24
592.62	31211.04
592.78	31091.68
592.94	31292.96
593.10	31363.18
593.26	30976.99
593.41	31395.95
593.57	31257.85
593.73	31407.65
593.89	31632.34
594.05	31049.55
594.20	31330.41
594.36	31187.64
594.52	31365.52
594.68	31072.95
594.84	31126.78
594.99	31534.04
595.15	31428.71
595.31	31641.70
595.47	31386.58
595.62	31484.89
595.78	31342.11
595.94	31648.72
596.10	31248.49
596.25	30948.90
596.41	31215.72
596.57	31030.82
596.73	31414.67
596.88	31449.78
597.04	31704.90
597.20	31466.16
597.36	31608.93
597.51	31744.69
597.67	31470.84
597.83	31330.41
597.99	31208.70
598.14	31297.64
598.30	31360.84
598.46	31255.51
598.61	31445.10
598.77	31267.22
598.93	31260.20
599.09	31424.03
599.24	31622.98
599.40	31751.71
599.56	31789.16
599.71	31510.63
599.87	31646.38
600.03	31447.44
600.18	31168.91
600.34	31332.75
600.50	31321.05
600.65	31241.47
600.81	31541.06
600.97	31477.86
601.12	31770.43
601.28	31424.03
601.44	31566.81
601.59	31662.77
601.75	31564.46
601.91	31908.52
602.06	31435.74
602.22	31409.99
602.37	31454.46
602.53	31379.56
602.69	31718.94
602.84	31323.39
603.00	31407.65
603.16	31548.08
603.31	31351.48
603.47	31587.87
603.62	31206.36
603.78	31442.76
603.94	31220.41
604.09	31587.87
604.25	31171.25
604.40	31161.89
604.56	31531.70
604.71	31653.40
604.87	31414.67
605.03	31477.86
605.18	31534.04
605.34	31440.42
605.49	31255.51
605.65	31747.03
605.80	31189.98
605.96	31002.74
606.12	31159.55
606.27	31346.79
606.43	31028.48
606.58	31407.65
606.74	31344.45
606.89	31445.10
607.05	31304.67
607.20	31440.42
607.36	31571.49
607.51	31407.65
607.67	30775.70
607.82	31571.49
607.98	31016.78
608.13	31391.26
608.29	31438.08
608.44	31356.16
608.60	31613.62
608.75	31049.55
608.91	31075.29
609.06	31234.45
609.22	31424.03
609.37	31030.82
609.53	31243.81
609.68	30780.39
609.84	31431.05
609.99	30948.90
610.15	31070.61
610.30	31470.84
610.46	31056.57
610.61	31440.42
610.76	31538.72
610.92	31192.32
611.07	31206.36
611.23	31463.82
611.38	31211.04
611.54	31393.61
611.69	31206.36
611.84	30864.64
612.00	30885.71
612.15	30682.08
612.31	30862.30
612.46	31000.40
612.62	30923.16
612.77	30993.37
612.92	31534.04
613.08	30946.56
613.23	30721.87
613.39	31075.29
613.54	31026.14
613.69	30916.14
613.85	30974.65
614.00	30885.71
614.15	30859.96
614.31	30859.96
614.46	31257.85
614.62	31304.67
614.77	30719.53
614.92	30712.51
615.08	31049.55
615.23	30897.41
615.38	30614.21
615.54	30656.34
615.69	30354.41
615.84	30789.75
616.00	30766.34
616.15	30806.13
616.30	30803.79
616.46	30630.59
616.61	30925.50
616.76	30806.13
616.92	30492.50
617.07	30745.28
617.22	30876.35
617.37	30347.39
617.53	30941.88
617.68	30319.30
617.83	30396.54
617.99	30450.37
618.14	30705.49
618.29	30923.16
618.45	30562.72
618.60	30719.53
618.75	30511.22
618.90	30415.26
619.06	30473.78
619.21	30569.74
619.36	30668.04
619.51	30242.06
619.67	30326.32
619.82	30342.70
619.97	30314.62
620.12	29905.02
620.28	29766.93
620.43	30129.72
620.58	30719.53
620.73	30394.20
620.89	30607.19
621.04	30314.62
621.19	30305.26
621.34	30338.02
621.49	29795.02
621.65	30307.60
621.80	30232.70
621.95	29834.81
622.10	29919.07
622.25	30061.84
622.41	30068.86
622.56	29972.90
622.71	29919.07
622.86	29507.13
623.01	29785.66
623.16	30047.80
623.32	30043.12
623.47	29834.81
623.62	30122.69
623.77	29996.31
623.92	30190.57
624.07	29902.68
624.23	29869.92
624.38	29783.32
624.53	30012.69
624.68	30366.11
624.83	30298.23
624.98	30005.67
625.13	30094.61
625.29	29752.89
625.44	29881.62
625.59	29486.07
625.74	29579.69
625.89	29706.08
626.04	29422.87
626.19	29497.77
626.34	29567.99
626.49	29479.05
626.65	29549.26
626.80	29736.51
626.95	29624.16
627.10	29535.22
627.25	29631.18
627.40	29682.67
627.55	29427.56
627.70	29528.20
627.85	29177.12
628.00	29156.05
628.15	29053.07
628.30	29359.68
628.45	29142.01
628.60	29060.09
628.76	29347.98
628.91	29465.00
629.06	29369.04
629.21	29429.90
629.36	29443.94
629.51	29167.76
629.66	29116.26
629.81	29104.56
629.96	29099.88
630.11	28964.13
630.26	29195.84
630.41	28844.76
630.56	29167.76
630.71	29015.62
630.86	28905.62
631.01	29074.13
631.16	29394.79
631.31	29071.79
631.46	28849.44
631.61	29104.56
631.76	28669.22
631.91	29184.14
632.06	28835.40
632.21	28802.63
632.36	28701.99
632.51	28594.32
632.66	28713.69
632.81	28694.97
632.96	28758.16
633.10	29163.08
633.25	28968.81
633.40	28769.86
633.55	28938.38
633.70	28383.68
633.85	28397.72
634.00	28428.15
634.15	28697.31
634.30	28243.24
634.45	28460.91
634.60	28790.93
634.75	28402.40
634.90	28849.44
635.05	28519.43
635.19	28641.14
635.34	28809.65
635.49	28767.52
635.64	28936.04
635.79	28816.68
635.94	28404.74
636.09	28493.68
636.24	28259.63
636.39	28531.13
636.53	28271.33
636.68	28081.75
636.83	28517.09
636.98	28304.10
637.13	28177.71
637.28	28393.04
637.43	28538.15
637.57	28847.10
637.72	27999.83
637.87	28084.09
638.02	28416.44
638.17	28430.49
638.32	28144.94
638.46	27922.59
638.61	27651.09
638.76	28086.43
638.91	27995.15
639.06	27843.01
639.20	28311.12
639.35	27906.21
639.50	28051.32
639.65	28348.57
639.80	28060.68
639.94	28189.41
640.09	27765.78
640.24	28074.73
640.39	28016.21
640.54	27826.63
640.68	28013.87
640.83	27983.44
640.98	27590.24
641.13	27473.21
641.27	27786.84
641.42	27840.67
641.57	27854.72
641.72	27686.20
641.86	27658.11
642.01	27321.07
642.16	27754.07
642.31	27505.98
642.45	27765.78
642.60	27421.72
642.75	27784.50
642.90	27241.50
643.04	27681.52
643.19	27515.34
643.34	27505.98
643.48	27377.25
643.63	27470.87
643.78	27264.90
643.93	27791.52
644.07	27192.34
644.22	27683.86
644.37	27597.26
644.51	27480.23
644.66	27314.05
644.81	26991.06
644.95	27524.70
645.10	27091.70
645.25	27365.54
645.39	27190.00
645.54	27421.72
645.69	27236.81
645.83	27735.35
645.98	27314.05
646.13	27454.48
646.27	27168.94
646.42	27243.84
646.57	27342.14
646.71	26958.29
646.86	27353.84
647.00	27157.24
647.15	26775.73
647.30	26937.23
647.44	26923.18
647.59	27271.92
647.74	27171.28
647.88	26850.63
648.03	27028.51
648.17	27091.70
648.32	27349.16
648.47	27101.06
648.61	26848.29
648.76	27374.91
648.90	27213.41
649.05	27096.38
649.20	26735.94
649.34	27138.51
649.49	26789.77
649.63	26740.62
649.78	26534.65
649.92	26515.93
650.07	27150.21
650.21	27014.46
650.36	26883.39
650.51	26572.10
650.65	27040.21
650.80	27276.60
650.94	26558.06
651.09	26480.82
651.23	26623.59
651.38	26525.29
651.52	26408.26
651.67	26754.66
651.81	26572.10
651.96	26312.30
652.10	26789.77
652.25	26614.23
652.39	26764.03
652.54	26536.99
652.68	26740.62
652.83	26565.08
652.97	26871.69
653.12	26562.74
653.26	26441.03
653.41	26747.64
653.55	26473.80
653.70	26338.05
653.84	26515.93
653.99	26518.27
654.13	26326.35
654.27	26445.71
654.42	26649.34
654.56	26513.59
654.71	26476.14
654.85	26544.02
655.00	26094.63
655.14	26085.27
655.29	26068.89
655.43	26225.70
655.57	26237.41
655.72	25813.77
655.86	25860.58
656.01	26005.69
656.15	26017.40
656.30	26010.37
656.44	26115.70
656.58	25907.39
656.73	26162.51
656.87	25919.09
657.01	25902.71
657.16	26167.19
657.30	26202.30
657.45	25905.05
657.59	25998.67
657.73	26078.25
657.88	25991.65
658.02	26092.29
658.16	25673.34
658.31	25626.53
658.45	25694.40
658.60	25678.02
658.74	25933.14
658.88	25858.24
659.03	25645.25
659.17	25535.24
659.31	25607.80
659.46	25661.63
659.60	25680.36
659.74	25900.37
659.89	25579.71
660.03	25825.47
660.17	26120.38
660.32	25373.75
660.46	25139.69
660.60	25458.01
660.74	25245.02
660.89	25048.41
661.03	25401.83
661.17	25083.52
661.32	25116.29
661.46	25345.66
661.60	25172.46
661.74	25553.97
661.89	25240.34
662.03	25294.17
662.17	25359.70
662.31	25116.29
662.46	25113.95
662.60	24851.81
662.74	24760.53
662.88	25104.59
663.03	24449.24
663.17	24627.12
663.31	24386.04
663.45	24524.13
663.60	24910.32
663.74	24423.49
663.88	24678.61
664.02	24783.93
664.17	24334.55
664.31	24283.06
664.45	24659.88
664.59	24407.11
664.73	24393.06
664.88	24264.33
665.02	24156.67
665.16	24180.07
665.30	24273.70
665.44	24259.65
665.59	23833.68
665.73	24173.05
665.87	24283.06
666.01	24517.11
666.15	24224.54
666.29	24219.86
666.44	23971.77
666.58	23962.40
666.72	23960.06
666.86	24156.67
667.00	24030.28
667.14	24095.82
667.28	23957.72
667.43	23779.84
667.57	23704.95
667.71	23709.63
667.85	23580.90
667.99	23742.39
668.13	23587.92
668.27	23543.45
668.41	23735.37
668.56	23555.15
668.70	23702.61
668.84	23396.00
668.98	23616.01
669.12	23583.24
669.26	23594.94
669.40	23513.02
669.54	23660.48
669.68	23496.64
669.82	23480.25
669.96	23358.55
670.10	22951.29
670.25	23229.82
670.39	23503.66
670.53	23094.07
670.67	22864.69
670.81	23103.43
670.95	23049.60
671.09	23094.07
671.23	22803.84
671.37	23047.26
671.51	22953.63
671.65	22757.03
671.79	22857.67
671.93	22883.42
672.07	22771.07
672.21	22485.53
672.35	22272.54
672.49	22258.49
672.63	22686.81
672.77	22258.49
672.91	22457.44
673.05	22415.31
673.19	22522.98
673.33	22328.71
673.47	22162.53
673.61	22366.16
673.75	22036.14
673.89	22471.48
674.03	22045.51
674.17	22216.36
674.31	21905.07
674.45	22146.15
674.59	21947.20
674.73	21916.78
674.87	21893.37
675.01	21507.18
675.15	22125.08
675.29	21652.30
675.43	21476.76
675.56	21862.94
675.70	21575.06
675.84	21420.58
675.98	21137.38
676.12	21738.90
676.26	21675.70
676.40	21422.92
676.54	21095.25
676.68	21287.17
676.82	21025.03
676.96	21240.36
677.10	21050.78
677.23	21064.82
677.37	20755.87
677.51	20645.87
677.65	20730.12
677.79	20531.18
677.93	20680.97
678.07	20512.46
678.21	20484.37
678.34	20561.61
678.48	20620.12
678.62	20795.66
678.76	20163.72
678.90	20123.93
679.04	20233.93
679.18	20142.65
679.31	20109.88
679.45	19915.62
679.59	20018.60
679.73	19461.55
679.87	19955.41
680.00	19761.14
680.14	19857.10
680.28	19601.99
680.42	19552.84
680.56	19601.99
680.70	19770.51
680.83	19796.25
680.97	19597.31
681.11	19381.98
681.25	19199.41
681.39	19351.55
681.52	19290.70
681.66	19075.37
681.80	19042.60
681.94	19012.17
682.07	18848.33
682.21	18768.76
682.35	18740.67
682.49	18469.17
682.62	18789.82
682.76	18492.57
682.90	18726.63
683.04	18501.93
683.17	18492.57
683.31	18705.56
683.45	18401.29
683.59	18373.21
683.72	18532.36
683.86	18682.16
684.00	18443.42
684.13	18148.51
684.27	18190.64
684.41	18185.96
684.55	18066.60
684.68	17947.23
684.82	17708.49
684.96	17839.56
685.09	17984.68
685.23	17701.47
685.37	17509.55
685.50	17961.27
685.64	17706.15
685.78	17366.78
685.91	17729.56
686.05	17521.25
686.19	17371.46
686.32	17568.06
686.46	17053.14
686.60	17053.14
686.73	16985.27
686.87	16912.71
687.01	16800.37
687.14	16922.07
687.28	16669.30
687.42	16688.02
687.55	16760.58
687.69	16774.62
687.82	16681.00
687.96	16620.14
688.10	16695.04
688.23	16666.95
688.37	16400.13
688.50	16587.38
688.64	16276.09
688.78	16863.56
688.91	16322.90
689.05	16210.55
689.18	16196.51
689.32	15955.43
689.46	15967.13
689.59	15829.04
689.73	15763.51
689.86	16149.70
690.00	15690.95
690.13	16074.80
690.27	15590.31
690.41	15578.61
690.54	15517.75
690.68	15541.16
690.81	15747.12
690.95	15634.78
691.08	15438.17
691.22	15421.79
691.35	15482.64
691.49	15356.25
691.62	15246.25
691.76	15112.84
691.89	15026.24
692.03	15000.49
692.16	14775.80
692.30	14909.21
692.43	14958.36
692.57	14782.82
692.70	14829.63
692.84	14703.25
692.97	14897.51
693.11	14579.20
693.24	14518.34
693.38	14647.07
693.51	14384.93
693.65	14391.95
693.78	14249.18
693.92	14380.25
694.05	14181.31
694.19	14317.06
694.32	14129.81
694.45	13933.21
694.59	13783.41
694.72	13703.84
694.86	13839.59
694.99	13528.30
695.13	13638.30
695.26	13572.77
695.39	13710.86
695.53	13535.32
695.66	13631.28
695.80	13535.32
695.93	13689.79
696.07	13790.44
696.20	13434.68
696.33	13483.83
696.47	13275.52
696.60	13422.97
696.73	13373.82
696.87	13128.06
697.00	13121.04
697.14	12716.13
697.27	12816.77
697.40	12847.20
697.54	12683.36
697.67	12711.45
697.80	12631.87
697.94	12479.74
698.07	12549.95
698.21	12318.24
698.34	12524.21
698.47	12601.44
698.61	12294.83
698.74	12386.12
698.87	12465.69
699.01	12269.09
699.14	12379.09
699.27	12322.92
699.40	12147.38
699.54	12341.64
699.67	11847.79
699.80	11831.41
699.94	11899.28
700.07	11695.66
700.20	11735.45
700.34	11552.88
700.47	11751.83
700.60	11686.29
700.73	11487.35
700.87	11602.04
701.00	11379.68
701.13	11494.37
701.26	11382.03
701.40	11543.52
701.53	11396.07
701.66	11379.68
701.79	11288.40
701.93	11300.11
702.06	11084.78
702.19	11084.78
702.32	11019.24
702.46	11033.29
702.59	10773.49
702.72	10850.72
702.85	10934.98
702.99	10855.40
703.12	10750.08
703.25	10597.95
703.38	10583.90
703.51	10647.10
703.65	10480.92
703.78	10471.56
703.91	10359.21
704.04	10649.44
704.17	10609.65
704.31	10525.39
704.44	10314.74
704.57	10516.03
704.70	10001.11
704.83	10047.92
704.96	10171.97
705.10	10054.94
705.23	9975.36
>>>>>End Processed Spectral Data<<<<<
