SpectraSuite Data File
++++++++++++++++++++++++++++++++++++
Date: Fri Oct 18 13:58:12 GMT-05:00 2013
User: bianchi
Dark Spectrum Present: No
Reference Spectrum Present: No
Number of Sampled Component Spectra: 1
Spectrometers: USB2+H05261
Integration Time (usec): 50000 (USB2+H05261)
Spectra Averaged: 1 (USB2+H05261)
Boxcar Smoothing: 0 (USB2+H05261)
Correct for Electrical Dark: No (USB2+H05261)
Strobe/Lamp Enabled: No (USB2+H05261)
Correct for Detector Non-linearity: No (USB2+H05261)
Correct for Stray Light: No (USB2+H05261)
Number of Pixels in Processed Spectrum: 2048
>>>>>Begin Processed Spectral Data<<<<<
365.73	0.00
365.92	0.00
366.12	0.00
366.32	0.00
366.52	0.00
366.72	0.00
366.91	0.00
367.11	0.00
367.31	0.00
367.51	0.00
367.70	0.00
367.90	0.00
368.10	0.00
368.30	0.00
368.49	0.00
368.69	0.00
368.89	0.00
369.09	0.00
369.28	0.00
369.48	0.00
369.68	0.00
369.87	0.00
370.07	0.00
370.27	0.00
370.47	4.68
370.66	32.77
370.86	74.90
371.06	117.03
371.25	210.65
371.45	149.79
371.65	203.63
371.84	196.60
372.04	210.65
372.24	170.86
372.44	154.48
372.63	236.39
372.83	245.76
373.03	187.24
373.22	217.67
373.42	177.88
373.62	273.84
373.81	203.63
374.01	294.91
374.21	224.69
374.40	205.97
374.60	330.02
374.79	210.65
374.99	283.20
375.19	189.58
375.38	301.93
375.58	273.84
375.78	332.36
375.97	205.97
376.17	332.36
376.37	355.76
376.56	355.76
376.76	313.63
376.95	255.12
377.15	362.78
377.35	262.14
377.54	341.72
377.74	301.93
377.93	269.16
378.13	227.03
378.33	332.36
378.52	330.02
378.72	259.80
378.91	236.39
379.11	252.78
379.31	320.65
379.50	257.46
379.70	299.59
379.89	365.12
380.09	315.97
380.28	273.84
380.48	358.10
380.68	227.03
380.87	322.99
381.07	372.15
381.26	346.40
381.46	299.59
381.65	287.89
381.85	376.83
382.04	374.49
382.24	381.51
382.43	428.32
382.63	294.91
382.83	313.63
383.02	411.93
383.22	379.17
383.41	407.25
383.61	360.44
383.80	407.25
384.00	344.06
384.19	386.19
384.39	395.55
384.58	454.06
384.78	381.51
384.97	372.15
385.17	320.65
385.36	280.86
385.56	472.79
385.75	381.51
385.95	482.15
386.14	468.11
386.34	416.62
386.53	379.17
386.72	418.96
386.92	383.85
387.11	470.45
387.31	386.19
387.50	404.91
387.70	479.81
387.89	454.06
388.09	423.64
388.28	388.53
388.48	524.28
388.67	517.26
388.86	500.87
389.06	393.21
389.25	458.74
389.45	411.93
389.64	526.62
389.84	594.50
390.03	470.45
390.22	533.64
390.42	514.92
390.61	472.79
390.81	458.74
391.00	472.79
391.19	463.43
391.39	575.77
391.58	489.17
391.78	465.77
391.97	575.77
392.16	589.82
392.36	606.20
392.55	491.51
392.75	526.62
392.94	599.18
393.13	547.69
393.33	557.05
393.52	606.20
393.71	573.43
393.91	564.07
394.10	547.69
394.29	587.47
394.49	550.03
394.68	674.07
394.88	678.76
395.07	667.05
395.26	662.37
395.46	575.77
395.65	641.31
395.84	660.03
396.04	720.88
396.23	685.78
396.42	624.92
396.62	664.71
396.81	631.94
397.00	664.71
397.19	641.31
397.39	697.48
397.58	660.03
397.77	727.91
397.97	702.16
398.16	667.05
398.35	746.63
398.55	741.95
398.74	770.04
398.93	709.18
399.12	732.59
399.32	723.23
399.51	706.84
399.70	774.72
399.90	814.51
400.09	718.54
400.28	791.10
400.47	774.72
400.67	800.46
400.86	798.12
401.05	788.76
401.24	793.44
401.44	873.02
401.63	802.80
401.82	786.42
402.01	868.34
402.21	873.02
402.40	727.91
402.59	917.49
402.78	842.59
402.97	912.81
403.17	880.04
403.36	903.45
403.55	898.77
403.74	915.15
403.93	980.68
404.13	1020.47
404.32	915.15
404.51	966.64
404.70	1008.77
404.89	1018.13
405.09	959.62
405.28	926.85
405.47	1032.18
405.66	1050.90
405.85	952.60
406.05	980.68
406.24	973.66
406.43	1029.84
406.62	999.41
406.81	1060.26
407.00	997.07
407.20	1039.20
407.39	1001.75
407.58	985.37
407.77	1149.20
407.96	1100.05
408.15	1053.24
408.34	983.02
408.54	1128.14
408.73	1114.10
408.92	1167.93
409.11	1254.53
409.30	1174.95
409.49	1081.33
409.68	1093.03
409.87	1158.57
410.07	1163.25
410.26	1116.44
410.45	1205.38
410.64	1203.04
410.83	1282.61
411.02	1294.32
411.21	1242.82
411.40	1245.16
411.59	1299.00
411.78	1284.95
411.98	1331.76
412.17	1352.83
412.36	1322.40
412.55	1345.81
412.74	1362.19
412.93	1425.39
413.12	1441.77
413.31	1401.98
413.50	1394.96
413.69	1439.43
413.88	1481.56
414.07	1490.92
414.26	1467.52
414.45	1481.56
414.64	1554.12
414.83	1418.36
415.02	1544.75
415.22	1668.80
415.41	1621.99
415.60	1554.12
415.79	1526.03
415.98	1652.42
416.17	1589.22
416.36	1671.14
416.55	1696.89
416.74	1603.27
416.93	1598.59
417.12	1664.12
417.31	1753.06
417.50	1713.27
417.69	1881.79
417.88	1886.47
418.07	1792.85
418.26	1858.39
418.45	1767.10
418.64	1956.69
418.83	1795.19
419.02	1703.91
419.21	1781.15
419.39	1891.15
419.58	1870.09
419.77	1898.17
419.96	1933.28
420.15	1844.34
420.34	1877.11
420.53	1856.04
420.72	1968.39
420.91	1856.04
421.10	1935.62
421.29	2026.90
421.48	1996.48
421.67	1989.46
421.86	1916.90
422.05	1980.09
422.24	2047.97
422.43	1952.01
422.61	2017.54
422.80	1923.92
422.99	2094.78
423.18	2083.08
423.37	2064.35
423.56	2104.14
423.75	2015.20
423.94	1996.48
424.13	1891.15
424.32	2054.99
424.50	2225.85
424.69	2106.48
424.88	2225.85
425.07	2003.50
425.26	2040.95
425.45	2071.37
425.64	2071.37
425.83	2106.48
426.01	2160.31
426.20	2136.91
426.39	2148.61
426.58	2019.88
426.77	2054.99
426.96	2195.42
427.15	1973.07
427.33	2174.36
427.52	2267.98
427.71	2282.02
427.90	2244.57
428.09	2165.00
428.28	2183.72
428.46	2319.47
428.65	2211.81
428.84	2291.38
429.03	2394.37
429.22	2265.64
429.40	2296.07
429.59	2305.43
429.78	2303.09
429.97	2195.42
430.16	2352.24
430.34	2298.41
430.53	2352.24
430.72	2326.49
430.91	2375.64
431.10	2335.85
431.28	2445.86
431.47	2457.56
431.66	2487.99
431.85	2370.96
432.03	2438.84
432.22	2583.95
432.41	2399.05
432.60	2581.61
432.79	2415.43
432.97	2497.35
433.16	2462.24
433.35	2644.81
433.54	2590.97
433.72	2628.42
433.91	2567.57
434.10	2579.27
434.28	2530.12
434.47	2612.04
434.66	2658.85
434.85	2700.98
435.03	2605.02
435.22	2670.55
435.41	2719.70
435.59	2700.98
435.78	2574.59
435.97	2590.97
436.16	2602.68
436.34	2677.57
436.53	2691.62
436.72	2689.28
436.90	2672.89
437.09	2768.85
437.28	2700.98
437.46	2810.98
437.65	2722.04
437.84	2944.39
438.02	2911.63
438.21	2869.50
438.40	2752.47
438.58	2757.15
438.77	2935.03
438.96	2939.71
439.14	3063.76
439.33	2972.48
439.52	3054.40
439.70	2960.78
439.89	3112.91
440.08	3061.42
440.26	2958.44
440.45	3075.46
440.63	3236.96
440.82	3143.34
441.01	3119.93
441.19	3225.26
441.38	3176.11
441.57	3225.26
441.75	3328.24
441.94	3356.33
442.12	3332.92
442.31	3379.73
442.50	3412.50
442.68	3276.75
442.87	3304.84
443.05	3372.71
443.24	3452.29
443.43	3382.07
443.61	3368.03
443.80	3531.87
443.98	3403.14
444.17	3269.73
444.35	3510.80
444.54	3555.27
444.73	3473.36
444.91	3424.20
445.10	3508.46
445.28	3562.30
445.47	3468.67
445.65	3578.68
445.84	3459.31
446.02	3627.83
446.21	3602.08
446.39	3489.74
446.58	3583.36
446.77	3627.83
446.95	3552.93
447.14	3517.83
447.32	3506.12
447.51	3590.38
447.69	3538.89
447.88	3581.02
448.06	3630.17
448.25	3576.34
448.43	3662.94
448.62	3482.72
448.80	3543.57
448.99	3611.45
449.17	3653.58
449.36	3712.09
449.54	3829.12
449.73	3707.41
449.91	3712.09
450.10	3751.88
450.28	3786.99
450.46	3779.97
450.65	3836.14
450.83	3852.52
451.02	3686.34
451.20	3943.80
451.39	3918.06
451.57	3688.68
451.76	3707.41
451.94	3892.31
452.13	3969.55
452.31	3969.55
452.49	3894.65
452.68	3911.04
452.86	3955.51
453.05	3971.89
453.23	3976.57
453.42	3911.04
453.60	3873.59
453.78	4077.21
453.97	3901.67
454.15	3854.86
454.34	3999.98
454.52	3983.59
454.70	4084.23
454.89	4070.19
455.07	4180.20
455.26	4037.42
455.44	4234.03
455.62	4112.32
455.81	4276.16
455.99	4168.49
456.17	4322.97
456.36	4346.37
456.54	4227.01
456.73	4353.40
456.91	4449.36
457.09	4395.53
457.28	4592.13
457.46	4224.67
457.64	4383.82
457.83	4472.76
458.01	4344.03
458.19	4559.36
458.38	4486.81
458.56	4287.86
458.74	4400.21
458.93	4447.02
459.11	4638.94
459.29	4486.81
459.48	4531.28
459.66	4608.51
459.84	4636.60
460.03	4678.73
460.21	4554.68
460.39	4641.28
460.57	4688.09
460.76	4554.68
460.94	4704.48
461.12	4774.69
461.31	4706.82
461.49	4599.15
461.67	4599.15
461.85	4678.73
462.04	4802.78
462.22	5226.42
462.40	4809.80
462.59	4856.61
462.77	4875.34
462.95	4943.21
463.13	4795.76
463.32	4971.30
463.50	4819.16
463.68	5022.79
463.86	4884.70
464.05	4748.95
464.23	4915.12
464.41	5228.76
464.59	4997.04
464.78	5207.69
464.96	5095.35
465.14	5130.45
465.32	4966.62
465.50	5067.26
465.69	5043.85
465.87	4973.64
466.05	5025.13
466.23	5235.78
466.41	5100.03
466.60	5167.90
466.78	5088.32
466.96	5046.20
467.14	5221.74
467.32	5240.46
467.51	5263.86
467.69	5083.64
467.87	5254.50
468.05	5266.21
468.23	5235.78
468.41	5303.65
468.60	5369.19
468.78	5444.09
468.96	5338.76
469.14	5320.04
469.32	5619.63
469.50	5280.25
469.69	5453.45
469.87	5549.41
470.05	5437.06
470.23	5537.71
470.41	5404.30
470.59	5650.05
470.77	5636.01
470.95	5668.78
471.14	5455.79
471.32	5455.79
471.50	5621.97
471.68	5614.95
471.86	5668.78
472.04	5692.18
472.22	5853.68
472.40	5834.96
472.58	5858.36
472.77	5947.30
472.95	6066.67
473.13	6125.18
473.31	5937.94
473.49	6003.47
473.67	5898.15
473.85	5996.45
474.03	6033.90
474.21	6092.41
474.39	6274.98
474.57	6260.93
474.75	6305.40
474.93	6260.93
475.12	6232.85
475.30	6272.64
475.48	6296.04
475.66	6377.96
475.84	6396.68
476.02	6534.78
476.20	6555.84
476.38	6567.54
476.56	6740.74
476.74	6630.74
476.92	6822.66
477.10	6583.93
477.28	6794.58
477.46	6892.88
477.64	6913.94
477.82	7101.19
478.00	7236.94
478.18	7297.79
478.36	7246.30
478.54	7126.93
478.72	7239.28
478.90	7066.08
479.08	7452.27
479.26	7419.50
479.44	7431.20
479.62	7396.09
479.80	7480.35
479.98	7616.10
480.16	7676.96
480.34	7765.90
480.52	7943.78
480.70	7826.75
480.88	7723.77
481.06	8046.76
481.24	7892.29
481.41	8006.97
481.59	7920.37
481.77	8133.36
481.95	8201.24
482.13	8142.72
482.31	8072.51
482.49	8402.52
482.67	8446.99
482.85	8437.63
483.03	8650.62
483.21	8856.59
483.39	8636.58
483.57	8781.69
483.74	8898.72
483.92	8837.86
484.10	8870.63
484.28	9085.96
484.46	9207.67
484.64	9355.12
484.82	9317.67
485.00	9308.31
485.18	9598.54
485.35	9483.85
485.53	9458.10
485.71	9769.40
485.89	9708.54
486.07	9643.01
486.25	9694.50
486.43	9886.42
486.61	9923.87
486.78	10134.52
486.96	10052.60
487.14	10436.45
487.32	10291.34
487.50	10307.72
487.68	10221.12
487.85	10614.33
488.03	10963.07
488.21	10731.36
488.39	10817.96
488.57	10846.04
488.75	11075.42
488.92	11014.56
489.10	11192.44
489.28	11222.87
489.46	11178.40
489.64	11192.44
489.81	11606.72
489.99	11300.11
490.17	11407.77
490.35	11838.43
490.53	11817.36
490.70	11796.30
490.88	11793.96
491.06	12128.66
491.24	11896.94
491.41	12039.72
491.59	12032.69
491.77	12308.88
491.95	12287.81
492.13	12477.40
492.30	12655.28
492.48	12414.20
492.66	12571.02
492.84	12664.64
493.01	12690.38
493.19	12912.74
493.37	13095.30
493.54	12975.93
493.72	13128.06
493.90	13317.65
494.08	13633.62
494.25	13446.38
494.43	13521.27
494.61	13535.32
494.79	13685.11
494.96	13362.12
495.14	13958.96
495.32	13710.86
495.49	13802.14
495.67	13987.04
495.85	14080.66
496.02	14054.92
496.20	14295.99
496.38	14305.35
496.55	14431.74
496.73	14668.14
496.91	14361.53
497.09	14466.85
497.26	14803.89
497.44	14846.02
497.62	14927.94
497.79	14920.92
497.97	14944.32
498.14	15016.88
498.32	15161.99
498.50	15206.46
498.67	15360.94
498.85	15033.26
499.03	15321.15
499.20	15300.08
499.38	15302.42
499.56	15681.59
499.73	15669.89
499.91	15831.38
500.08	15747.12
500.26	15751.81
500.44	15688.61
500.61	15864.15
500.79	15829.04
500.97	16184.80
501.14	16149.70
501.32	16549.93
501.49	16259.70
501.67	16208.21
501.84	16397.79
502.02	16299.49
502.20	16432.90
502.37	16631.85
502.55	16709.08
502.72	16395.45
502.90	16435.24
503.07	16673.98
503.25	16650.57
503.43	16861.22
503.60	16968.88
503.78	16830.79
503.95	16915.05
504.13	16882.28
504.30	16861.22
504.48	17085.91
504.65	16961.86
504.83	17348.05
505.01	17539.97
505.18	17432.31
505.36	17394.86
505.53	17392.52
505.71	17338.69
505.88	17493.16
506.06	17523.59
506.23	17804.46
506.41	17659.34
506.58	17727.22
506.76	18040.85
506.93	17776.37
507.11	17774.03
507.28	18281.92
507.46	17991.70
507.63	18092.34
507.81	18532.36
507.98	18120.43
508.16	18071.28
508.33	18218.73
508.50	18476.19
508.68	18258.52
508.85	18448.10
509.03	18328.74
509.20	18490.23
509.38	18750.03
509.55	18864.72
509.73	18541.72
509.90	19007.49
510.08	18883.44
510.25	18614.28
510.42	18787.48
510.60	19122.18
510.77	19075.37
510.95	19229.84
511.12	19101.11
511.30	19337.51
511.47	19290.70
511.64	19543.47
511.82	19726.04
511.99	19405.38
512.17	19573.90
512.34	19454.53
512.51	19611.35
512.69	19927.32
512.86	19379.64
513.04	19885.19
513.21	19857.10
513.38	19807.95
513.56	19939.02
513.73	19662.84
513.90	19786.89
514.08	19852.42
514.25	20278.40
514.43	20060.73
514.60	20114.56
514.77	20435.22
514.95	20673.95
515.12	19917.96
515.29	20271.38
515.47	20496.07
515.64	20737.15
515.81	20428.20
515.99	20599.05
516.16	20711.40
516.33	20823.75
516.51	21029.71
516.68	20678.63
516.85	20491.39
517.03	20996.95
517.20	21078.86
517.37	21202.91
517.54	21177.17
517.72	21254.40
517.89	21132.70
518.06	21277.81
518.24	21135.04
518.41	21198.23
518.58	21364.41
518.75	21216.96
518.93	21532.93
519.10	21500.16
519.27	21598.46
519.45	21465.05
519.62	21678.04
519.79	21326.96
519.96	21806.77
520.14	21797.41
520.31	21495.48
520.48	22120.40
520.65	22059.55
520.83	21703.79
521.00	21977.63
521.17	21979.97
521.34	21926.14
521.52	22071.25
521.69	21923.80
521.86	22373.18
522.03	22579.15
522.20	22326.37
522.38	22305.31
522.55	22291.26
522.72	22185.94
522.89	22148.49
523.07	22728.94
523.24	22991.08
523.41	22464.46
523.58	22359.14
523.75	22890.44
523.92	22586.17
524.10	22541.70
524.27	23239.18
524.44	23033.21
524.61	23119.81
524.78	22874.06
524.96	22831.93
525.13	22967.68
525.30	23276.63
525.47	23506.00
525.64	22955.97
525.81	22944.27
525.98	23300.03
526.16	23410.04
526.33	23391.31
526.50	23403.02
526.67	23288.33
526.84	23384.29
527.01	23517.70
527.18	23606.64
527.36	23585.58
527.53	23651.11
527.70	23850.06
527.87	23882.83
528.04	23611.32
528.21	23613.66
528.38	23845.38
528.55	23819.63
528.72	23772.82
528.89	24198.80
529.07	23995.17
529.24	23761.12
529.41	24184.76
529.58	24023.26
529.75	24142.63
529.92	23922.62
530.09	24102.84
530.26	24154.33
530.43	24425.83
530.60	24390.72
530.77	24390.72
530.94	24594.35
531.11	24135.60
531.28	23894.53
531.46	24645.84
531.63	24215.18
531.80	24833.08
531.97	24886.92
532.14	24758.19
532.31	24601.37
532.48	24669.25
532.65	24659.88
532.82	24556.90
532.99	25256.72
533.16	24999.26
533.33	24879.89
533.50	25434.60
533.67	24737.12
533.84	24865.85
534.01	25041.39
534.18	24950.11
534.35	25165.44
534.52	25039.05
534.69	25422.90
534.86	25357.36
535.03	25060.12
535.20	24982.88
535.37	25158.42
535.54	25624.18
535.71	25172.46
535.88	25174.80
536.05	25546.95
536.22	25584.40
536.38	25757.60
536.55	25898.03
536.72	25914.41
536.89	25420.56
537.06	25570.35
537.23	25727.17
537.40	25797.38
537.57	26125.06
537.74	25568.01
537.91	25689.72
538.08	26089.95
538.25	26003.35
538.42	25907.39
538.59	26068.89
538.75	26115.70
538.92	25764.62
539.09	26127.40
539.26	26038.46
539.43	26202.30
539.60	26195.28
539.77	26005.69
539.94	26614.23
540.11	26328.69
540.28	26426.99
540.44	26525.29
540.61	26153.15
540.78	26403.58
540.95	26338.05
541.12	26118.04
541.29	26331.03
541.46	26300.60
541.62	26120.38
541.79	26452.73
541.96	26162.51
542.13	26321.66
542.30	26410.60
542.47	26520.61
542.63	26618.91
542.80	26941.91
542.97	26792.11
543.14	26962.97
543.31	27091.70
543.48	26597.85
543.64	26815.52
543.81	27197.02
543.98	27117.45
544.15	27243.84
544.32	27283.62
544.48	27461.51
544.65	27587.89
544.82	27044.89
544.99	27159.58
545.16	27103.40
545.32	27381.93
545.49	27395.97
545.66	27594.92
545.83	27573.85
546.00	27475.55
546.16	27599.60
546.33	27180.64
546.50	27496.61
546.67	27513.00
546.83	27388.95
547.00	27360.86
547.17	27353.84
547.34	27555.13
547.50	27882.80
547.67	28109.83
547.84	27669.81
548.00	27669.81
548.17	27880.46
548.34	27543.42
548.51	27604.28
548.67	28004.51
548.84	28039.62
549.01	27927.27
549.18	28004.51
549.34	27615.98
549.51	28114.52
549.68	28027.92
549.84	28238.56
550.01	28130.90
550.18	28140.26
550.34	28116.86
550.51	28002.17
550.68	28425.81
550.84	28219.84
551.01	28067.70
551.18	27999.83
551.34	27931.95
551.51	28261.97
551.68	28353.25
551.84	28201.11
552.01	28327.50
552.18	28589.64
552.34	28481.98
552.51	28643.48
552.68	28451.55
552.84	28416.44
553.01	28697.31
553.18	28751.14
553.34	28596.67
553.51	28863.49
553.67	28814.34
553.84	28989.88
554.01	28669.22
554.17	28535.81
554.34	28938.38
554.51	28346.23
554.67	28769.86
554.84	28872.85
555.00	28533.47
555.17	28414.10
555.33	28823.70
555.50	28727.74
555.67	28723.05
555.83	28474.96
556.00	28699.65
556.16	29226.27
556.33	29266.06
556.50	29146.69
556.66	29252.02
556.83	29076.48
556.99	29153.71
557.16	29432.24
557.32	29186.48
557.49	29577.35
557.65	29020.30
557.82	28982.85
557.98	29020.30
558.15	29095.20
558.32	29139.67
558.48	29076.48
558.65	29364.36
558.81	29247.33
558.98	29046.05
559.14	29460.32
559.31	29046.05
559.47	29214.57
559.64	29200.52
559.80	29362.02
559.97	29652.25
560.13	29298.83
560.30	29654.59
560.46	29465.00
560.63	29584.37
560.79	29668.63
560.96	29530.54
561.12	29355.00
561.29	29530.54
561.45	29507.13
561.61	29729.48
561.78	29467.34
561.94	29832.47
562.11	29818.42
562.27	29357.34
562.44	29514.16
562.60	29563.31
562.77	29752.89
562.93	29450.96
563.10	30017.37
563.26	29652.25
563.42	29947.15
563.59	29879.28
563.75	29860.55
563.92	29750.55
564.08	29511.81
564.24	29855.87
564.41	29766.93
564.57	29542.24
564.74	29867.58
564.90	29970.56
565.07	29886.30
565.23	29893.32
565.39	29860.55
565.56	29979.92
565.72	30183.55
565.88	30068.86
566.05	29792.68
566.21	29357.34
566.38	30008.01
566.54	30078.22
566.70	30443.35
566.87	30216.32
567.03	30181.21
567.19	30373.13
567.36	30391.86
567.52	29928.43
567.68	30103.97
567.85	30087.59
568.01	30078.22
568.17	30078.22
568.34	30136.74
568.50	30132.06
568.66	30150.78
568.83	30176.53
568.99	30373.13
569.15	30218.66
569.32	30333.34
569.48	30265.47
569.64	30314.62
569.81	30363.77
569.97	30363.77
570.13	30375.47
570.30	30181.21
570.46	30265.47
570.62	29874.60
570.78	30115.67
570.95	30176.53
571.11	30352.07
571.27	30249.08
571.43	30019.71
571.60	30237.38
571.76	29905.02
571.92	30539.31
572.09	30345.05
572.25	30534.63
572.41	30103.97
572.57	30553.35
572.74	30625.91
572.90	30012.69
573.06	30506.54
573.22	30153.12
573.38	30476.12
573.55	30452.71
573.71	30679.74
573.87	30984.01
574.03	30859.96
574.20	30658.68
574.36	30642.29
574.52	30155.46
574.68	30305.26
574.84	30473.78
575.01	30569.74
575.17	30391.86
575.33	30246.74
575.49	30471.43
575.65	30796.77
575.82	30333.34
575.98	30274.83
576.14	30483.14
576.30	30562.72
576.46	30459.73
576.62	30258.45
576.79	30508.88
576.95	30506.54
577.11	30546.33
577.27	30487.82
577.43	30646.97
577.59	30483.14
577.75	30672.72
577.92	30651.66
578.08	30415.26
578.24	30190.57
578.40	30787.41
578.56	30366.11
578.72	30387.18
578.88	30778.04
579.04	31094.02
579.21	30658.68
579.37	30658.68
579.53	30822.51
579.69	30871.67
579.85	30408.24
580.01	30869.33
580.17	30302.92
580.33	30691.44
580.49	30920.82
580.65	30824.86
580.82	30799.11
580.98	30686.76
581.14	30543.99
581.30	30738.26
581.46	31124.44
581.62	30581.44
581.78	30717.19
581.94	30663.36
582.10	30464.41
582.26	30771.02
582.42	31105.72
582.58	31058.91
582.74	30654.00
582.90	31002.74
583.06	30946.56
583.22	30600.16
583.38	30775.70
583.54	31138.49
583.70	30843.58
583.86	30628.25
584.02	30298.23
584.18	30747.62
584.34	30803.79
584.50	31178.28
584.66	31021.46
584.82	30373.13
584.98	30698.47
585.14	30679.74
585.30	30614.21
585.46	30895.07
585.62	30492.50
585.78	30661.02
585.94	30485.48
586.10	30614.21
586.26	30595.48
586.42	30717.19
586.58	31194.66
586.74	30871.67
586.90	30639.95
587.06	30417.60
587.22	30885.71
587.38	30349.73
587.54	30955.93
587.70	31061.25
587.86	31161.89
588.02	31264.88
588.18	31098.70
588.34	30911.46
588.49	31000.40
588.65	30426.96
588.81	30764.00
588.97	30712.51
589.13	30230.36
589.29	30953.58
589.45	30724.21
589.61	30890.39
589.77	30962.95
589.93	30925.50
590.08	31262.54
590.24	31407.65
590.40	31679.15
590.56	31342.11
590.72	31367.86
590.88	31358.50
591.04	31077.63
591.20	31351.48
591.35	31330.41
591.51	31442.76
591.67	31288.28
591.83	31442.76
591.99	31185.30
592.15	31339.77
592.31	31407.65
592.46	31044.87
592.62	30682.08
592.78	31285.94
592.94	31089.34
593.10	31131.47
593.26	31400.63
593.41	31828.95
593.57	31316.37
593.73	31309.35
593.89	31129.12
594.05	31199.34
594.20	30712.51
594.36	31105.72
594.52	30675.06
594.68	31070.61
594.84	30972.31
594.99	31461.48
595.15	30794.43
595.31	31215.72
595.47	31007.42
595.62	31536.38
595.78	31208.70
595.94	31236.79
596.10	31498.93
596.25	31061.25
596.41	31428.71
596.57	31065.93
596.73	31330.41
596.88	31503.61
597.04	31419.35
597.20	31864.05
597.36	31419.35
597.51	31735.32
597.67	31381.90
597.83	30967.63
597.99	31519.99
598.14	31175.94
598.30	31227.43
598.46	31182.96
598.61	31285.94
598.77	30979.33
598.93	31494.25
599.09	31407.65
599.24	31735.32
599.40	31576.17
599.56	31559.78
599.71	31335.09
599.87	31934.27
600.03	31435.74
600.18	31433.39
600.34	31206.36
600.50	31332.75
600.65	31274.24
600.81	31489.57
600.97	31503.61
601.12	31683.83
601.28	31569.15
601.44	31662.77
601.59	31697.88
601.75	31381.90
601.91	31658.09
602.06	31182.96
602.22	31007.42
602.37	31299.98
602.53	31262.54
602.69	31667.45
602.84	31583.19
603.00	32027.89
603.16	31527.02
603.31	31627.66
603.47	31761.07
603.62	31585.53
603.78	31456.80
603.94	31417.01
604.09	31166.57
604.25	31276.58
604.40	31051.89
604.56	31438.08
604.71	31873.42
604.87	31424.03
605.03	31686.17
605.18	31452.12
605.34	31545.74
605.49	31201.68
605.65	31367.86
605.80	31421.69
605.96	31400.63
606.12	31454.46
606.27	31562.12
606.43	31262.54
606.58	31428.71
606.74	31084.65
606.89	31674.47
607.05	31543.40
607.20	31395.95
607.36	31318.71
607.51	31438.08
607.67	30885.71
607.82	30862.30
607.98	31250.83
608.13	31424.03
608.29	31016.78
608.44	31302.32
608.60	31611.28
608.75	31463.82
608.91	31250.83
609.06	30972.31
609.22	31248.49
609.37	30899.75
609.53	31037.84
609.68	30909.11
609.84	30773.36
609.99	31042.53
610.15	30993.37
610.30	31426.37
610.46	31398.29
610.61	31187.64
610.76	31421.69
610.92	31414.67
611.07	31225.09
611.23	31030.82
611.38	30787.41
611.54	31119.76
611.69	30850.60
611.84	30714.85
612.00	30885.71
612.15	30724.21
612.31	31166.57
612.46	30871.67
612.62	31002.74
612.77	30890.39
612.92	30981.67
613.08	30717.19
613.23	30675.06
613.39	31381.90
613.54	30422.28
613.69	30991.03
613.85	30548.67
614.00	30866.98
614.15	31175.94
614.31	30469.09
614.46	31204.02
614.62	30888.05
614.77	30836.56
614.92	30654.00
615.08	30927.84
615.23	30820.17
615.38	30857.62
615.54	30478.46
615.69	30293.55
615.84	30560.37
616.00	30675.06
616.15	30759.32
616.30	30780.39
616.46	30438.67
616.61	30864.64
616.76	30651.66
616.92	30565.06
617.07	30572.08
617.22	30824.86
617.37	30499.52
617.53	30345.05
617.68	30597.82
617.83	30326.32
617.99	30251.42
618.14	30405.90
618.29	30277.17
618.45	30284.19
618.60	30628.25
618.75	30569.74
618.90	30415.26
619.06	30338.02
619.21	30354.41
619.36	30852.94
619.51	30155.46
619.67	30246.74
619.82	29902.68
619.97	30099.29
620.12	29830.13
620.28	30396.54
620.43	30279.51
620.58	30487.82
620.73	30232.70
620.89	30501.86
621.04	30558.03
621.19	30249.08
621.34	30211.64
621.49	30015.03
621.65	30433.99
621.80	30206.95
621.95	29902.68
622.10	29989.28
622.25	29930.77
622.41	30087.59
622.56	29996.31
622.71	30167.16
622.86	30113.33
623.01	30061.84
623.16	30000.99
623.32	29675.65
623.47	29736.51
623.62	29769.27
623.77	29914.39
623.92	30045.46
624.07	29738.85
624.23	29862.90
624.38	29888.64
624.53	29706.08
624.68	29820.77
624.83	30199.93
624.98	30199.93
625.13	29743.53
625.29	29876.94
625.44	30068.86
625.59	29549.26
625.74	29916.73
625.89	29120.95
626.04	29495.43
626.19	29549.26
626.34	29401.81
626.49	29610.12
626.65	29577.35
626.80	29237.97
626.95	29448.62
627.10	29242.65
627.25	29649.91
627.40	29209.89
627.55	29406.49
627.70	29598.41
627.85	28898.59
628.00	29113.92
628.15	29331.59
628.30	28886.89
628.45	29050.73
628.60	29209.89
628.76	29125.63
628.91	29511.81
629.06	29221.59
629.21	29759.91
629.36	28950.09
629.51	29200.52
629.66	29385.43
629.81	28659.86
629.96	29041.37
630.11	29230.95
630.26	28957.11
630.41	28849.44
630.56	28809.65
630.71	28870.51
630.86	29130.31
631.01	28910.30
631.16	29200.52
631.31	29102.22
631.46	28952.43
631.61	28804.97
631.76	28758.16
631.91	28877.53
632.06	28407.08
632.21	28959.45
632.36	28739.44
632.51	28533.47
632.66	28889.23
632.81	28484.32
632.96	28917.32
633.10	28919.66
633.25	28933.70
633.40	28720.71
633.55	28931.36
633.70	28552.20
633.85	28449.21
634.00	28613.05
634.15	28545.17
634.30	28320.48
634.45	28650.50
634.60	28669.22
634.75	29050.73
634.90	28788.59
635.05	28599.01
635.19	28535.81
635.34	28844.76
635.49	28809.65
635.64	28931.36
635.79	28484.32
635.94	28439.85
636.09	28774.55
636.24	28297.08
636.39	28566.24
636.53	28357.93
636.68	28369.63
636.83	28596.67
636.98	28306.44
637.13	28603.69
637.28	28233.88
637.43	28217.50
637.57	28184.73
637.72	28119.20
637.87	28240.90
638.02	28091.11
638.17	27777.48
638.32	27924.93
638.46	28180.05
638.61	27896.85
638.76	27761.09
638.91	28327.50
639.06	27793.86
639.20	28194.09
639.35	28053.66
639.50	28105.15
639.65	28847.10
639.80	27938.97
639.94	28135.58
640.09	28184.73
640.24	28257.29
640.39	28194.09
640.54	27978.76
640.68	27843.01
640.83	27515.34
640.98	27484.91
641.13	27833.65
641.27	27943.66
641.42	27800.88
641.57	27969.40
641.72	27835.99
641.86	28004.51
642.01	27393.63
642.16	27592.58
642.31	27744.71
642.45	27545.76
642.60	27475.55
642.75	27325.75
642.90	27428.74
643.04	27470.87
643.19	27522.36
643.34	27847.69
643.48	27344.48
643.63	27768.12
643.78	27630.02
643.93	27126.81
644.07	27782.16
644.22	27655.77
644.37	27557.47
644.51	27405.33
644.66	27307.03
644.81	27585.55
644.95	27491.93
645.10	27253.20
645.25	27187.66
645.39	27124.47
645.54	27112.77
645.69	27505.98
645.83	27402.99
645.98	27255.54
646.13	27477.89
646.27	27096.38
646.42	27126.81
646.57	27225.11
646.71	27328.10
646.86	27180.64
647.00	26960.63
647.15	27187.66
647.30	27292.99
647.44	26745.30
647.59	26859.99
647.74	26909.14
647.88	27164.26
648.03	27398.31
648.17	27372.57
648.32	27255.54
648.47	27101.06
648.61	27206.39
648.76	26967.65
648.90	26829.56
649.05	26927.86
649.20	26768.71
649.34	26719.56
649.49	26869.35
649.63	26836.58
649.78	26689.13
649.92	26628.27
650.07	27023.83
650.21	26541.68
650.36	26993.40
650.51	26677.43
650.65	26759.34
650.80	26888.07
650.94	26859.99
651.09	26714.87
651.23	26649.34
651.38	26656.36
651.52	26590.83
651.67	26389.54
651.81	26785.09
651.96	26298.26
652.10	26136.76
652.25	26483.16
652.39	26752.32
652.54	26745.30
652.68	26567.42
652.83	26534.65
652.97	26766.37
653.12	26485.50
653.26	26178.89
653.41	26377.84
653.55	26625.93
653.70	26169.53
653.84	26473.80
653.99	26258.47
654.13	26295.92
654.27	26368.48
654.42	25947.18
654.56	26347.41
654.71	26197.62
654.85	26352.09
655.00	26281.88
655.14	26368.48
655.29	26328.69
655.43	26600.19
655.57	26380.18
655.72	26043.14
655.86	26211.66
656.01	25867.60
656.15	25898.03
656.30	26139.10
656.44	26766.37
656.58	25872.28
656.73	26316.98
656.87	26216.34
657.01	26448.05
657.16	25834.83
657.30	25916.75
657.45	26153.15
657.59	25876.96
657.73	25584.40
657.88	26258.47
658.02	25879.30
658.16	25743.55
658.31	25802.07
658.45	25881.64
658.60	25750.57
658.74	25530.56
658.88	25612.48
659.03	25678.02
659.17	25551.63
659.31	25235.66
659.46	25612.48
659.60	25483.75
659.74	25362.04
659.89	25764.62
660.03	25214.59
660.17	25586.74
660.32	24978.20
660.46	25146.72
660.60	25163.10
660.74	24978.20
660.89	25411.20
661.03	25092.88
661.17	25113.95
661.32	25149.06
661.46	25448.64
661.60	25219.27
661.74	24851.81
661.89	25472.05
662.03	25450.99
662.17	25102.25
662.31	24992.24
662.46	25439.28
662.60	25305.87
662.74	24819.04
662.88	25025.01
663.03	24301.78
663.17	24556.90
663.31	24404.77
663.45	24388.38
663.60	24676.27
663.74	24451.58
663.88	24788.61
664.02	24285.40
664.17	24587.33
664.31	24584.99
664.45	23988.15
664.59	24718.40
664.73	24444.56
664.88	24582.65
665.02	24102.84
665.16	24430.51
665.30	24524.13
665.44	24159.01
665.59	24308.80
665.73	24137.94
665.87	24201.14
666.01	24250.29
666.15	24187.10
666.29	24107.52
666.44	24315.83
666.58	24100.50
666.72	24327.53
666.86	23962.40
667.00	24287.74
667.14	24060.71
667.28	23836.02
667.43	23672.18
667.57	23810.27
667.71	23700.26
667.85	23793.89
667.99	23161.94
668.13	23899.21
668.27	23920.28
668.41	23667.50
668.56	23618.35
668.70	23737.71
668.84	23597.28
668.98	23440.47
669.12	23412.38
669.26	23384.29
669.40	23274.29
669.54	23248.54
669.68	23105.77
669.82	22944.27
669.96	23077.68
670.10	22955.97
670.25	23204.07
670.39	23080.02
670.53	23063.64
670.67	22862.35
670.81	22988.74
670.95	23007.47
671.09	22815.54
671.23	23091.73
671.37	23194.71
671.51	23133.86
671.65	22960.66
671.79	22974.70
671.93	22752.35
672.07	22721.92
672.21	22384.88
672.35	22256.15
672.49	22434.03
672.63	22431.69
672.77	22583.83
672.91	22443.40
673.05	22111.04
673.19	22207.00
673.33	22134.45
673.47	22314.67
673.61	22302.96
673.75	22258.49
673.89	22321.69
674.03	22150.83
674.17	21975.29
674.31	21895.71
674.45	22005.72
674.59	21816.13
674.73	22183.60
674.87	21982.31
675.01	21752.94
675.15	21900.39
675.29	21565.70
675.43	21483.78
675.56	21415.90
675.70	21385.47
675.84	21493.14
675.98	20847.15
676.12	21572.72
676.26	21989.33
676.40	21415.90
676.54	21221.64
676.68	21289.51
676.82	20725.44
676.96	21135.04
677.10	20727.78
677.23	21128.02
677.37	20863.54
677.51	20563.95
677.65	20861.19
677.79	20594.37
677.93	20613.10
678.07	20203.50
678.21	20594.37
678.34	20657.57
678.48	20470.33
678.62	20638.84
678.76	20414.15
678.90	20615.44
679.04	20453.94
679.18	20262.02
679.31	19810.29
679.45	19960.09
679.59	19819.66
679.73	19630.07
679.87	19550.49
680.00	19789.23
680.14	19796.25
680.28	19536.45
680.42	19545.81
680.56	19838.38
680.70	19812.63
680.83	19866.47
680.97	19548.15
681.11	19601.99
681.25	19452.19
681.39	19150.26
681.52	18984.09
681.66	19204.10
681.80	19168.99
681.94	18902.17
682.07	19414.74
682.21	18874.08
682.35	18707.90
682.49	18408.31
682.62	18574.49
682.76	18501.93
682.90	18623.64
683.04	18553.43
683.17	18443.42
683.31	18703.22
683.45	18719.60
683.59	18527.68
683.72	18267.88
683.86	18333.42
684.00	18129.79
684.13	18272.56
684.27	18352.14
684.41	17818.50
684.55	17858.29
684.68	17657.00
684.82	17554.02
684.96	17659.34
685.09	17525.93
685.23	17827.86
685.37	17666.36
685.50	17687.43
685.64	17420.61
685.78	17638.28
685.91	17631.26
686.05	17530.61
686.19	17111.66
686.32	17467.42
686.46	17074.21
686.60	16863.56
686.73	17097.61
686.87	17067.19
687.01	16980.59
687.14	16950.16
687.28	17153.79
687.42	16697.38
687.55	16819.09
687.69	16753.55
687.82	16507.80
687.96	16524.18
688.10	16435.24
688.23	16580.36
688.37	16580.36
688.50	16435.24
688.64	16212.89
688.78	16299.49
688.91	16556.95
689.05	16081.82
689.18	16063.10
689.32	15693.29
689.46	15859.47
689.59	16182.46
689.73	15934.37
689.86	15866.49
690.00	15901.60
690.13	15363.28
690.27	15655.84
690.41	16002.24
690.54	15442.85
690.68	15541.16
690.81	15541.16
690.95	15815.00
691.08	15489.67
691.22	15513.07
691.35	15440.51
691.49	15194.76
691.62	15300.08
691.76	14892.83
691.89	14958.36
692.03	14991.13
692.16	14768.78
692.30	14658.78
692.43	14616.65
692.57	14569.83
692.70	14766.44
692.84	14743.03
692.97	14841.34
693.11	14609.62
693.24	14389.61
693.38	14508.98
693.51	14036.19
693.65	14410.68
693.78	14249.18
693.92	14471.53
694.05	14324.08
694.19	14015.13
694.32	13982.36
694.45	14125.13
694.59	13991.72
694.72	13844.27
694.86	13844.27
694.99	13699.16
695.13	13748.31
695.26	13532.98
695.39	13516.59
695.53	13532.98
695.66	13542.34
695.80	13650.00
695.93	13673.41
696.07	13373.82
696.20	13502.55
696.33	13551.70
696.47	13427.65
696.60	13193.60
696.73	13041.46
696.87	13085.94
697.00	12931.46
697.14	13088.28
697.27	12624.85
697.40	12666.98
697.54	12730.17
697.67	12638.89
697.80	12793.37
697.94	12561.66
698.07	12578.04
698.21	12257.39
698.34	12636.55
698.47	12545.27
698.61	12383.77
698.74	12528.89
698.87	12306.54
699.01	12505.48
699.14	12320.58
699.27	12135.68
699.40	12306.54
699.54	12231.64
699.67	11786.94
699.80	12013.97
699.94	12154.40
700.07	11829.07
700.20	11896.94
700.34	11676.93
700.47	11782.26
700.60	11585.65
700.73	11737.79
700.87	11772.89
701.00	11290.74
701.13	11667.57
701.26	11468.62
701.40	11674.59
701.53	11283.72
701.66	11356.28
701.79	11225.21
701.93	11243.93
702.06	11335.21
702.19	10953.71
702.32	11044.99
702.46	10960.73
702.59	10677.52
702.72	10672.84
702.85	10787.53
702.99	10647.10
703.12	10761.78
703.25	10752.42
703.38	10839.02
703.51	10689.23
703.65	10593.26
703.78	10581.56
703.91	10590.92
704.04	10553.48
704.17	10342.83
704.31	10530.07
704.44	10548.79
704.57	10265.59
704.70	10237.50
704.83	10136.86
704.96	10057.28
705.10	10024.51
705.23	10022.17
>>>>>End Processed Spectral Data<<<<<
