SpectraSuite Data File
++++++++++++++++++++++++++++++++++++
Date: Fri Oct 18 13:58:07 GMT-05:00 2013
User: bianchi
Dark Spectrum Present: No
Reference Spectrum Present: No
Number of Sampled Component Spectra: 1
Spectrometers: USB2+H05261
Integration Time (usec): 50000 (USB2+H05261)
Spectra Averaged: 1 (USB2+H05261)
Boxcar Smoothing: 0 (USB2+H05261)
Correct for Electrical Dark: No (USB2+H05261)
Strobe/Lamp Enabled: No (USB2+H05261)
Correct for Detector Non-linearity: No (USB2+H05261)
Correct for Stray Light: No (USB2+H05261)
Number of Pixels in Processed Spectrum: 2048
>>>>>Begin Processed Spectral Data<<<<<
365.73	0.00
365.92	0.00
366.12	0.00
366.32	0.00
366.52	0.00
366.72	0.00
366.91	0.00
367.11	0.00
367.31	0.00
367.51	0.00
367.70	0.00
367.90	0.00
368.10	0.00
368.30	0.00
368.49	0.00
368.69	0.00
368.89	0.00
369.09	0.00
369.28	0.00
369.48	0.00
369.68	0.00
369.87	0.00
370.07	0.00
370.27	0.00
370.47	0.00
370.66	124.05
370.86	126.39
371.06	124.05
371.25	187.24
371.45	138.09
371.65	112.35
371.84	128.73
372.04	156.82
372.24	217.67
372.44	227.03
372.63	189.58
372.83	212.99
373.03	236.39
373.22	168.52
373.42	238.73
373.62	184.90
373.81	238.73
374.01	212.99
374.21	255.12
374.40	273.84
374.60	182.56
374.79	297.25
374.99	248.10
375.19	313.63
375.38	273.84
375.58	187.24
375.78	210.65
375.97	271.50
376.17	313.63
376.37	301.93
376.56	301.93
376.76	292.57
376.95	245.76
377.15	280.86
377.35	245.76
377.54	259.80
377.74	308.95
377.93	255.12
378.13	395.55
378.33	294.91
378.52	285.55
378.72	362.78
378.91	294.91
379.11	255.12
379.31	292.57
379.50	269.16
379.70	322.99
379.89	374.49
380.09	311.29
380.28	330.02
380.48	290.23
380.68	262.14
380.87	262.14
381.07	315.97
381.26	353.42
381.46	355.76
381.65	306.61
381.85	311.29
382.04	318.31
382.24	325.33
382.43	278.52
382.63	383.85
382.83	346.40
383.02	416.62
383.22	351.08
383.41	344.06
383.61	409.59
383.80	400.23
384.00	388.53
384.19	407.25
384.39	400.23
384.58	367.46
384.78	423.64
384.97	381.51
385.17	421.30
385.36	383.85
385.56	456.40
385.75	388.53
385.95	447.04
386.14	409.59
386.34	393.21
386.53	416.62
386.72	344.06
386.92	400.23
387.11	409.59
387.31	390.87
387.50	421.30
387.70	318.31
387.89	332.36
388.09	327.68
388.28	479.81
388.48	444.70
388.67	395.55
388.86	496.19
389.06	404.91
389.25	468.11
389.45	418.96
389.64	442.36
389.84	533.64
390.03	528.96
390.22	496.19
390.42	503.22
390.61	463.43
390.81	505.56
391.00	479.81
391.19	575.77
391.39	461.09
391.58	535.98
391.78	505.56
391.97	580.45
392.16	566.41
392.36	528.96
392.55	512.58
392.75	528.96
392.94	566.41
393.13	610.88
393.33	470.45
393.52	566.41
393.71	617.90
393.91	606.20
394.10	643.65
394.29	606.20
394.49	603.86
394.68	617.90
394.88	634.29
395.07	653.01
395.26	589.82
395.46	575.77
395.65	622.58
395.84	657.69
396.04	613.22
396.23	676.41
396.42	667.05
396.62	641.31
396.81	585.13
397.00	660.03
397.19	683.44
397.39	739.61
397.58	741.95
397.77	674.07
397.97	692.80
398.16	718.54
398.35	643.65
398.55	741.95
398.74	739.61
398.93	631.94
399.12	746.63
399.32	732.59
399.51	760.67
399.70	774.72
399.90	833.23
400.09	823.87
400.28	770.04
400.47	753.65
400.67	746.63
400.86	903.45
401.05	711.52
401.24	791.10
401.44	880.04
401.63	844.93
401.82	816.85
402.01	807.48
402.21	837.91
402.40	800.46
402.59	835.57
402.78	877.70
402.97	793.44
403.17	847.27
403.36	798.12
403.55	922.17
403.74	938.55
403.93	866.00
404.13	915.15
404.32	945.58
404.51	814.51
404.70	917.49
404.89	880.04
405.09	940.90
405.28	908.13
405.47	978.34
405.66	999.41
405.85	999.41
406.05	938.55
406.24	985.37
406.43	978.34
406.62	994.73
406.81	1041.54
407.00	1032.18
407.20	985.37
407.39	978.34
407.58	1057.92
407.77	1107.07
407.96	1107.07
408.15	1118.78
408.34	1090.69
408.54	1146.86
408.73	1083.67
408.92	1104.73
409.11	1090.69
409.30	1242.82
409.49	1160.91
409.68	1015.79
409.87	1188.99
410.07	1303.68
410.26	1266.23
410.45	1142.18
410.64	1121.12
410.83	1203.04
411.02	1294.32
411.21	1172.61
411.40	1256.87
411.59	1355.17
411.78	1275.59
411.98	1261.55
412.17	1315.38
412.36	1324.74
412.55	1462.83
412.74	1373.89
412.93	1306.02
413.12	1350.49
413.31	1418.36
413.50	1448.79
413.69	1364.53
413.88	1338.79
414.07	1444.11
414.26	1504.96
414.45	1404.32
414.64	1554.12
414.83	1516.67
415.02	1523.69
415.22	1589.22
415.41	1568.16
415.60	1596.25
415.79	1542.41
415.98	1530.71
416.17	1661.78
416.36	1699.23
416.55	1582.20
416.74	1593.90
416.93	1650.08
417.12	1706.25
417.31	1753.06
417.50	1664.12
417.69	1783.49
417.88	1816.26
418.07	1624.33
418.26	1692.21
418.45	1732.00
418.64	1797.53
418.83	1830.30
419.02	1760.08
419.21	1851.36
419.39	1832.64
419.58	1757.74
419.77	1823.28
419.96	1877.11
420.15	1949.67
420.34	1928.60
420.53	1954.35
420.72	1954.35
420.91	1949.67
421.10	1956.69
421.29	2022.22
421.48	1870.09
421.67	2005.84
421.86	1942.64
422.05	1947.33
422.24	1973.07
422.43	1959.03
422.61	1966.05
422.80	2026.90
422.99	2052.65
423.18	2022.22
423.37	2008.18
423.56	2033.93
423.75	1977.75
423.94	2059.67
424.13	1928.60
424.32	1879.45
424.50	2017.54
424.69	2022.22
424.88	2097.12
425.07	2008.18
425.26	2017.54
425.45	2106.48
425.64	2017.54
425.83	2024.56
426.01	2017.54
426.20	2143.93
426.39	2113.50
426.58	2012.86
426.77	2134.57
426.96	2125.21
427.15	2129.89
427.33	2244.57
427.52	2076.06
427.71	2031.58
427.90	2143.93
428.09	2176.70
428.28	2172.02
428.46	2209.47
428.65	2214.15
428.84	2251.60
429.03	2303.09
429.22	2113.50
429.40	2380.32
429.59	2291.38
429.78	2216.49
429.97	2157.97
430.16	2291.38
430.34	2293.72
430.53	2258.62
430.72	2417.77
430.91	2321.81
431.10	2338.20
431.28	2469.27
431.47	2399.05
431.66	2415.43
431.85	2183.72
432.03	2399.05
432.22	2523.10
432.41	2466.92
432.60	2438.84
432.79	2415.43
432.97	2457.56
433.16	2567.57
433.35	2408.41
433.54	2590.97
433.72	2518.42
433.91	2539.48
434.10	2492.67
434.28	2539.48
434.47	2555.86
434.66	2675.23
434.85	2658.85
435.03	2670.55
435.22	2616.72
435.41	2778.22
435.59	2668.21
435.78	2586.29
435.97	2689.28
436.16	2675.23
436.34	2656.51
436.53	2810.98
436.72	2752.47
436.90	2677.57
437.09	2857.79
437.28	2750.13
437.46	2686.94
437.65	2867.16
437.84	2881.20
438.02	2768.85
438.21	2890.56
438.40	2717.36
438.58	2874.18
438.77	2930.35
438.96	2818.00
439.14	3045.04
439.33	2953.76
439.52	3030.99
439.70	3098.87
439.89	3002.91
440.08	3014.61
440.26	3007.59
440.45	3033.33
440.63	3267.39
440.82	3141.00
441.01	3112.91
441.19	3183.13
441.38	3232.28
441.57	3276.75
441.75	3173.77
441.94	3405.48
442.12	3339.94
442.31	3293.13
442.50	3400.80
442.68	3421.86
442.87	3321.22
443.05	3454.63
443.24	3485.06
443.43	3403.14
443.61	3463.99
443.80	3494.42
443.98	3365.69
444.17	3194.83
444.35	3480.38
444.54	3492.08
444.73	3543.57
444.91	3335.26
445.10	3555.27
445.28	3489.74
445.47	3445.27
445.65	3407.82
445.84	3566.98
446.02	3375.05
446.21	3534.21
446.39	3471.01
446.58	3552.93
446.77	3616.13
446.95	3433.57
447.14	3595.06
447.32	3606.77
447.51	3517.83
447.69	3566.98
447.88	3527.19
448.06	3595.06
448.25	3506.12
448.43	3531.87
448.62	3466.33
448.80	3606.77
448.99	3641.87
449.17	3585.70
449.36	3719.11
449.54	3662.94
449.73	3796.35
449.91	3946.14
450.10	3620.81
450.28	3864.22
450.46	3691.02
450.65	3695.71
450.83	3866.56
451.02	3854.86
451.20	3742.52
451.39	3747.20
451.57	3733.15
451.76	3684.00
451.94	3925.08
452.13	4058.49
452.31	3955.51
452.49	3904.01
452.68	3878.27
452.86	3925.08
453.05	3946.14
453.23	3896.99
453.42	3880.61
453.60	3969.55
453.78	3843.16
453.97	3913.38
454.15	4095.94
454.34	3967.21
454.52	4124.02
454.70	4147.43
454.89	4067.85
455.07	4032.74
455.26	4002.32
455.44	4093.60
455.62	4051.47
455.81	4091.26
455.99	4217.65
456.17	4175.52
456.36	4084.23
456.54	4119.34
456.73	4215.30
456.91	4465.74
457.09	4421.27
457.28	4376.80
457.46	4262.12
457.64	4409.57
457.83	4503.19
458.01	4337.01
458.19	4557.02
458.38	4348.72
458.56	4589.79
458.74	4484.47
458.93	4514.89
459.11	4472.76
459.29	4458.72
459.48	4575.75
459.66	4468.08
459.84	4638.94
460.03	4594.47
460.21	4521.92
460.39	4524.26
460.57	4503.19
460.76	4528.94
460.94	4519.57
461.12	4706.82
461.31	4732.56
461.49	4678.73
461.67	4688.09
461.85	4922.15
462.04	4821.50
462.22	4940.87
462.40	4713.84
462.59	4767.67
462.77	4695.11
462.95	4793.42
463.13	4842.57
463.32	4863.63
463.50	4910.44
463.68	4964.28
463.86	4847.25
464.05	4863.63
464.23	4765.33
464.41	5163.22
464.59	4873.00
464.78	5018.11
464.96	4971.30
465.14	4887.04
465.32	5060.24
465.50	5085.98
465.69	5020.45
465.87	5118.75
466.05	4922.15
466.23	5100.03
466.41	5093.01
466.60	5266.21
466.78	5135.14
466.96	5090.67
467.14	5097.69
467.32	5343.44
467.51	5275.57
467.69	5057.90
467.87	5357.49
468.05	5289.61
468.23	5130.45
468.41	5064.92
468.60	5067.26
468.78	5303.65
468.96	5408.98
469.14	5420.68
469.32	5373.87
469.50	5191.31
469.69	5324.72
469.87	5542.39
470.05	5441.75
470.23	5598.56
470.41	5504.94
470.59	5612.60
470.77	5350.46
470.95	5500.26
471.14	5554.09
471.32	5427.70
471.50	5715.59
471.68	5600.90
471.86	5666.44
472.04	5729.63
472.22	5554.09
472.40	5593.88
472.58	5778.78
472.77	5767.08
472.95	5858.36
473.13	6064.33
473.31	5729.63
473.49	5844.32
473.67	5832.62
473.85	6141.57
474.03	6139.23
474.21	5989.43
474.39	6279.66
474.57	6090.07
474.75	6225.82
474.93	6314.77
475.12	6253.91
475.30	6368.60
475.48	6186.04
475.66	6274.98
475.84	6209.44
476.02	6525.41
476.20	6494.99
476.38	6413.07
476.56	6612.01
476.74	6553.50
476.92	6619.04
477.10	6710.32
477.28	6813.30
477.46	6768.83
477.64	6719.68
477.82	6909.26
478.00	7056.72
478.18	7077.78
478.36	7042.67
478.54	7082.46
478.72	7080.12
478.90	7152.68
479.08	7316.51
479.26	7342.26
479.44	7435.88
479.62	7321.20
479.80	7513.12
479.98	7728.45
480.16	7627.81
480.34	7651.21
480.52	7756.54
480.70	7641.85
480.88	7524.82
481.06	7836.11
481.24	7779.94
481.41	7728.45
481.59	8086.55
481.77	7985.91
481.95	8109.96
482.13	8131.02
482.31	8236.35
482.49	8318.26
482.67	8409.54
482.85	8327.63
483.03	8652.96
483.21	8652.96
483.39	8608.49
483.57	8718.50
483.74	8718.50
483.92	8889.35
484.10	8741.90
484.28	8938.51
484.46	9130.43
484.64	9181.92
484.82	9256.82
485.00	9205.33
485.18	9310.65
485.35	9577.47
485.53	9589.17
485.71	9568.11
485.89	9551.73
486.07	9437.04
486.25	9509.60
486.43	9816.21
486.61	9804.50
486.78	9839.61
486.96	9804.50
487.14	10324.10
487.32	10200.05
487.50	10281.97
487.68	10377.94
487.85	10520.71
488.03	10579.22
488.21	10857.75
488.39	10684.55
488.57	10714.97
488.75	10855.40
488.92	11126.91
489.10	10972.43
489.28	10909.24
489.46	11197.12
489.64	11360.96
489.81	11641.82
489.99	11360.96
490.17	11470.97
490.35	11653.53
490.53	11683.95
490.70	11669.91
490.88	11941.41
491.06	11934.39
491.24	12168.45
491.41	12002.27
491.59	11826.73
491.77	12177.81
491.95	12196.53
492.13	12402.50
492.30	12381.43
492.48	12238.66
492.66	12479.74
492.84	12578.04
493.01	12655.28
493.19	12819.11
493.37	12786.35
493.54	13245.09
493.72	13114.02
493.90	13032.10
494.08	13128.06
494.25	13319.99
494.43	13172.54
494.61	13575.11
494.79	13607.87
494.96	13483.83
495.14	13514.25
495.32	13514.25
495.49	13858.31
495.67	13556.38
495.85	13865.33
496.02	13813.84
496.20	14361.53
496.38	13820.86
496.55	14209.39
496.73	14373.23
496.91	14406.00
497.09	14494.94
497.26	14445.79
497.44	14679.84
497.62	14553.45
497.79	14750.06
497.97	14721.97
498.14	15089.43
498.32	15192.42
498.50	15096.46
498.67	15239.23
498.85	14977.09
499.03	15220.50
499.20	15562.22
499.38	15098.80
499.56	15283.70
499.73	15414.77
499.91	15314.13
500.08	15529.45
500.26	15302.42
500.44	15421.79
500.61	15690.95
500.79	15719.04
500.97	15955.43
501.14	16154.38
501.32	16046.71
501.49	16149.70
501.67	15894.58
501.84	16119.27
502.02	15962.45
502.20	16119.27
502.37	16161.40
502.55	16397.79
502.72	16439.92
502.90	16332.26
503.07	16390.77
503.25	16468.01
503.43	16439.92
503.60	16556.95
503.78	16732.49
503.95	16814.41
504.13	16863.56
504.30	17034.42
504.48	16798.02
504.65	17151.45
504.83	17212.30
505.01	17579.76
505.18	17380.82
505.36	17699.13
505.53	17261.45
505.71	17500.19
505.88	17399.54
506.06	17392.52
506.23	17767.01
506.41	17411.25
506.58	17729.56
506.76	17521.25
506.93	17767.01
507.11	17671.04
507.28	17745.94
507.46	17942.55
507.63	17996.38
507.81	18368.52
507.98	17549.34
508.16	18218.73
508.33	18204.69
508.50	18300.65
508.68	18120.43
508.85	18450.44
509.03	18239.79
509.20	18354.48
509.38	18462.15
509.55	18712.58
509.73	18731.31
509.90	18494.91
510.08	18881.10
510.25	18633.00
510.42	18946.64
510.60	18602.58
510.77	19082.39
510.95	18916.21
511.12	18850.67
511.30	18923.23
511.47	19019.19
511.64	19091.75
511.82	19103.45
511.99	19330.48
512.17	19438.15
512.34	19398.36
512.51	19255.59
512.69	19309.42
512.86	19536.45
513.04	19693.27
513.21	19517.73
513.38	19592.62
513.56	19826.68
513.73	19716.67
513.90	19665.18
514.08	19873.49
514.25	19857.10
514.43	19950.73
514.60	20065.41
514.77	20100.52
514.95	19889.87
515.12	20231.59
515.29	19976.47
515.47	20463.30
515.64	20418.83
515.81	20233.93
515.99	20224.57
516.16	20634.16
516.33	20414.15
516.51	20739.49
516.68	20493.73
516.85	20840.13
517.03	20624.80
517.20	21128.02
517.37	20706.72
517.54	20798.00
517.72	21039.08
517.89	20800.34
518.06	20678.63
518.24	20929.07
518.41	20837.79
518.58	21181.85
518.75	20996.95
518.93	21273.13
519.10	21067.16
519.27	21378.45
519.45	21062.48
519.62	21575.06
519.79	21516.54
519.96	21523.57
520.14	21249.72
520.31	21507.18
520.48	21741.24
520.65	21556.33
520.83	21453.35
521.00	21874.65
521.17	21682.72
521.34	21530.59
521.52	21785.71
521.69	21703.79
521.86	22202.32
522.03	21940.18
522.20	22113.38
522.38	22312.33
522.55	21788.05
522.72	22202.32
522.89	22260.84
523.07	22492.55
523.24	22380.20
523.41	22281.90
523.58	22228.07
523.75	22410.63
523.92	22368.50
524.10	22361.48
524.27	22677.45
524.44	22672.77
524.61	23126.83
524.78	22874.06
524.96	22775.75
525.13	22860.01
525.30	22932.57
525.47	23044.91
525.64	22714.90
525.81	22785.12
525.98	23117.47
526.16	23126.83
526.33	23054.28
526.50	23091.73
526.67	23080.02
526.84	22864.69
527.01	23185.35
527.18	23641.75
527.36	23438.12
527.53	23606.64
527.70	23534.09
527.87	23634.73
528.04	23110.45
528.21	23484.94
528.38	23307.05
528.55	23917.93
528.72	23812.61
528.89	23899.21
529.07	24290.08
529.24	23672.18
529.41	24212.84
529.58	23946.02
529.75	23733.03
529.92	23826.65
530.09	23763.46
530.26	23887.51
530.43	24114.54
530.60	23999.85
530.77	23990.49
530.94	23988.15
531.11	24154.33
531.28	23875.80
531.46	24247.95
531.63	24177.73
531.80	24329.87
531.97	24542.86
532.14	24559.24
532.31	24173.05
532.48	24327.53
532.65	24308.80
532.82	24329.87
532.99	24353.27
533.16	23857.08
533.33	24549.88
533.50	24805.00
533.67	24741.80
533.84	24837.76
534.01	24842.45
534.18	24758.19
534.35	24671.59
534.52	24769.89
534.69	24732.44
534.86	25029.69
535.03	24926.71
535.20	25078.84
535.37	25266.08
535.54	25160.76
535.71	24716.06
535.88	24849.47
536.05	25132.67
536.22	25645.25
536.38	25556.31
536.55	25261.40
536.72	25228.63
536.89	25186.50
537.06	25345.66
537.23	25436.94
537.40	25177.14
537.57	25127.99
537.74	25596.10
537.91	25982.29
538.08	25626.53
538.25	25385.45
538.42	25883.98
538.59	26050.16
538.75	25743.55
538.92	25619.50
539.09	25865.26
539.26	25989.31
539.43	26160.17
539.60	26008.03
539.77	25563.33
539.94	26029.10
540.11	25745.89
540.28	26232.72
540.44	25736.53
540.61	26171.87
540.78	26052.50
540.95	26087.61
541.12	26452.73
541.29	26120.38
541.46	25998.67
541.62	26068.89
541.79	26396.56
541.96	25830.15
542.13	26288.90
542.30	26312.30
542.47	26361.45
542.63	26108.68
542.80	26314.64
542.97	26597.85
543.14	26803.82
543.31	26588.49
543.48	26625.93
543.64	27171.28
543.81	26890.41
543.98	26787.43
544.15	26693.81
544.32	26969.99
544.48	27187.66
544.65	27019.14
544.82	26876.37
544.99	26969.99
545.16	27112.77
545.32	26806.16
545.49	27236.81
545.66	27700.24
545.83	27473.21
546.00	27592.58
546.16	26848.29
546.33	27042.55
546.50	27159.58
546.67	27166.60
546.83	27049.57
547.00	27250.86
547.17	27332.78
547.34	27138.51
547.50	27761.09
547.67	27674.49
547.84	27321.07
548.00	27454.48
548.17	27662.79
548.34	27524.70
548.51	27817.27
548.67	27894.50
548.84	27414.69
549.01	27786.84
549.18	27754.07
549.34	27505.98
549.51	27814.93
549.68	27604.28
549.84	27866.42
550.01	27854.72
550.18	27700.24
550.34	27775.14
550.51	28187.07
550.68	27955.36
550.84	27604.28
551.01	28002.17
551.18	27946.00
551.34	27566.83
551.51	27931.95
551.68	28236.22
551.84	28500.70
552.01	28479.64
552.18	28191.75
552.34	28056.00
552.51	28098.13
552.68	28044.30
552.84	28149.62
553.01	28606.03
553.18	27976.42
553.34	28315.80
553.51	28386.02
553.67	28638.80
553.84	28573.26
554.01	28636.45
554.17	28711.35
554.34	28376.66
554.51	28467.94
554.67	28727.74
554.84	28367.29
555.00	28687.95
555.17	28383.68
555.33	28854.12
555.50	28407.08
555.67	28491.34
555.83	28500.70
556.00	28512.41
556.16	28926.68
556.33	28669.22
556.50	28713.69
556.66	28851.78
556.83	28779.23
556.99	29039.03
557.16	28870.51
557.32	28800.29
557.49	29202.86
557.65	28481.98
557.82	28826.04
557.98	28582.62
558.15	28917.32
558.32	29034.35
558.48	28929.02
558.65	29069.45
558.81	29266.06
558.98	28870.51
559.14	29453.30
559.31	28683.27
559.47	29008.60
559.64	28886.89
559.80	29315.21
559.97	29088.18
560.13	29329.25
560.30	29441.60
560.46	29263.72
560.63	29572.67
560.79	29589.05
560.96	29406.49
561.12	29387.77
561.29	29670.97
561.45	28823.70
561.61	29420.53
561.78	29823.11
561.94	29450.96
562.11	29558.63
562.27	29392.45
562.44	29090.52
562.60	29404.15
562.77	29729.48
562.93	29465.00
563.10	29558.63
563.26	29586.71
563.42	29996.31
563.59	29465.00
563.75	29399.47
563.92	29675.65
564.08	29692.04
564.24	29457.98
564.41	29413.51
564.57	29483.73
564.74	29659.27
564.90	29647.57
565.07	29898.00
565.23	29778.64
565.39	29600.76
565.56	30118.01
565.72	29483.73
565.88	29715.44
566.05	29783.32
566.21	29603.10
566.38	30134.40
566.54	29860.55
566.70	30075.88
566.87	29837.15
567.03	29364.36
567.19	30235.04
567.36	29577.35
567.52	29715.44
567.68	29998.65
567.85	29752.89
568.01	29930.77
568.17	29497.77
568.34	30132.06
568.50	29823.11
568.66	29633.52
568.83	30412.92
568.99	29809.06
569.15	30073.54
569.32	29858.21
569.48	29759.91
569.64	29827.79
569.81	30197.59
569.97	30050.14
570.13	30038.44
570.30	30110.99
570.46	29970.56
570.62	30249.08
570.78	30263.13
570.95	30000.99
571.11	29771.61
571.27	29586.71
571.43	30319.30
571.60	29970.56
571.76	30000.99
571.92	30099.29
572.09	29701.40
572.25	30108.65
572.41	30176.53
572.57	30068.86
572.74	30382.49
572.90	29766.93
573.06	29902.68
573.22	29797.36
573.38	30394.20
573.55	30148.44
573.71	30295.89
573.87	30595.48
574.03	30188.23
574.20	30148.44
574.36	30192.91
574.52	30319.30
574.68	29893.32
574.84	30274.83
575.01	29989.28
575.17	30359.09
575.33	30272.49
575.49	30026.73
575.65	30579.10
575.82	30099.29
575.98	30132.06
576.14	30235.04
576.30	30066.52
576.46	29895.66
576.62	30125.04
576.79	30632.93
576.95	30171.85
577.11	30225.68
577.27	30522.93
577.43	30738.26
577.59	30192.91
577.75	30370.79
577.92	29795.02
578.08	30005.67
578.24	30368.45
578.40	30260.79
578.56	30508.88
578.72	30487.82
578.88	30806.13
579.04	30654.00
579.21	30216.32
579.37	30574.42
579.53	30555.69
579.69	30459.73
579.85	30256.11
580.01	30141.42
580.17	30426.96
580.33	30682.08
580.49	30464.41
580.65	30756.98
580.82	30522.93
580.98	30485.48
581.14	30555.69
581.30	30464.41
581.46	29818.42
581.62	30625.91
581.78	29975.24
581.94	30129.72
582.10	30396.54
582.26	30150.78
582.42	30602.50
582.58	30558.03
582.74	30354.41
582.90	30323.98
583.06	30459.73
583.22	30658.68
583.38	30094.61
583.54	30099.29
583.70	30466.75
583.86	30899.75
584.02	30347.39
584.18	30796.77
584.34	30431.65
584.50	30822.51
584.66	30424.62
584.82	30265.47
584.98	30464.41
585.14	30462.07
585.30	30452.71
585.46	30555.69
585.62	30403.56
585.78	30862.30
585.94	30347.39
586.10	30483.14
586.26	30424.62
586.42	30703.15
586.58	30614.21
586.74	30965.29
586.90	30471.43
587.06	30171.85
587.22	30646.97
587.38	30110.99
587.54	30710.17
587.70	30897.41
587.86	30665.70
588.02	31049.55
588.18	30927.84
588.34	30368.45
588.49	30897.41
588.65	30260.79
588.81	30122.69
588.97	30930.18
589.13	30930.18
589.29	30586.12
589.45	30560.37
589.61	31007.42
589.77	31159.55
589.93	30813.15
590.08	30651.66
590.24	31016.78
590.40	30899.75
590.56	30539.31
590.72	30710.17
590.88	30698.47
591.04	30684.42
591.20	30881.03
591.35	30974.65
591.51	31105.72
591.67	31431.05
591.83	30759.32
591.99	30661.02
592.15	30885.71
592.31	31204.02
592.46	30576.76
592.62	30696.13
592.78	30941.88
592.94	30717.19
593.10	30787.41
593.26	30759.32
593.41	31215.72
593.57	31035.50
593.73	31204.02
593.89	31222.75
594.05	30628.25
594.20	31091.68
594.36	31189.98
594.52	30843.58
594.68	30799.11
594.84	30719.53
594.99	30937.20
595.15	31082.31
595.31	31091.68
595.47	31140.83
595.62	31199.34
595.78	31129.12
595.94	30654.00
596.10	31454.46
596.25	31157.21
596.41	30780.39
596.57	30597.82
596.73	31133.81
596.88	30792.09
597.04	31164.23
597.20	31344.45
597.36	31009.76
597.51	30951.24
597.67	31388.92
597.83	30951.24
597.99	31040.18
598.14	31213.38
598.30	31065.93
598.46	31082.31
598.61	31164.23
598.77	30960.61
598.93	31150.19
599.09	30958.27
599.24	31381.90
599.40	31534.04
599.56	31508.29
599.71	31042.53
599.87	31042.53
600.03	31227.43
600.18	30661.02
600.34	31297.64
600.50	31021.46
600.65	30810.81
600.81	31328.07
600.97	30953.58
601.12	31250.83
601.28	31091.68
601.44	31328.07
601.59	31367.86
601.75	31484.89
601.91	31370.20
602.06	30700.81
602.22	31019.12
602.37	31005.08
602.53	30972.31
602.69	31122.10
602.84	31662.77
603.00	31384.24
603.16	30930.18
603.31	30913.80
603.47	31328.07
603.62	31185.30
603.78	31063.59
603.94	31126.78
604.09	30859.96
604.25	30785.07
604.40	30874.01
604.56	31168.91
604.71	31264.88
604.87	31356.16
605.03	30815.49
605.18	30965.29
605.34	30988.69
605.49	31302.32
605.65	31187.64
605.80	30689.10
605.96	30967.63
606.12	31143.17
606.27	31072.95
606.43	30654.00
606.58	31381.90
606.74	30824.86
606.89	31360.84
607.05	31225.09
607.20	31311.69
607.36	30916.14
607.51	30906.77
607.67	30771.02
607.82	30396.54
607.98	30803.79
608.13	30899.75
608.29	30780.39
608.44	31360.84
608.60	30998.06
608.75	30962.95
608.91	31023.80
609.06	31091.68
609.22	30859.96
609.37	30972.31
609.53	30789.75
609.68	30794.43
609.84	30778.04
609.99	31243.81
610.15	30852.94
610.30	30417.60
610.46	30707.83
610.61	30782.73
610.76	31012.10
610.92	30951.24
611.07	31002.74
611.23	30796.77
611.38	30672.72
611.54	30735.92
611.69	31005.08
611.84	30239.72
612.00	30508.88
612.15	30323.98
612.31	30974.65
612.46	30773.36
612.62	30579.10
612.77	30408.24
612.92	30855.28
613.08	30609.53
613.23	30909.11
613.39	30637.61
613.54	30548.67
613.69	30668.04
613.85	30441.01
614.00	30787.41
614.15	30817.83
614.31	30534.63
614.46	30595.48
614.62	30497.18
614.77	30335.68
614.92	30611.87
615.08	30593.14
615.23	30431.65
615.38	30733.57
615.54	30242.06
615.69	30457.39
615.84	30174.19
616.00	30452.71
616.15	30705.49
616.30	30403.56
616.46	30497.18
616.61	30143.76
616.76	30738.26
616.92	30384.83
617.07	30396.54
617.22	30321.64
617.37	30043.12
617.53	30352.07
617.68	30239.72
617.83	29689.70
617.99	29984.60
618.14	30061.84
618.29	30455.05
618.45	30045.46
618.60	30047.80
618.75	30132.06
618.90	30181.21
619.06	30281.85
619.21	29947.15
619.36	30113.33
619.51	29848.85
619.67	30012.69
619.82	30150.78
619.97	29539.90
620.12	29923.75
620.28	29912.05
620.43	30003.33
620.58	29900.34
620.73	29993.97
620.89	29972.90
621.04	30122.69
621.19	29942.47
621.34	29743.53
621.49	29699.06
621.65	29827.79
621.80	29567.99
621.95	29745.87
622.10	29844.17
622.25	29518.84
622.41	29928.43
622.56	29699.06
622.71	29982.26
622.86	29940.13
623.01	29874.60
623.16	30045.46
623.32	29577.35
623.47	30066.52
623.62	29605.44
623.77	29593.73
623.92	29670.97
624.07	29748.21
624.23	29434.58
624.38	29745.87
624.53	29500.11
624.68	30029.07
624.83	29872.26
624.98	29886.30
625.13	29226.27
625.29	29549.26
625.44	29575.01
625.59	29048.39
625.74	29041.37
625.89	29624.16
626.04	29308.19
626.19	29090.52
626.34	29425.22
626.49	29362.02
626.65	29275.42
626.80	29418.19
626.95	28954.77
627.10	29055.41
627.25	29542.24
627.40	29186.48
627.55	29200.52
627.70	29027.32
627.85	29060.09
628.00	28730.08
628.15	29118.60
628.30	28545.17
628.45	28910.30
628.60	29076.48
628.76	28814.34
628.91	29022.64
629.06	29200.52
629.21	28931.36
629.36	29350.32
629.51	29064.77
629.66	29022.64
629.81	28903.28
629.96	28849.44
630.11	28500.70
630.26	28783.91
630.41	28505.38
630.56	28444.53
630.71	28896.25
630.86	28748.80
631.01	28680.92
631.16	28968.81
631.31	28879.87
631.46	28517.09
631.61	28884.55
631.76	28584.96
631.91	28294.74
632.06	28727.74
632.21	28666.88
632.36	28690.29
632.51	28364.95
632.66	28573.26
632.81	28765.18
632.96	28627.09
633.10	28479.64
633.25	28753.48
633.40	28811.99
633.55	28575.60
633.70	28339.21
633.85	28177.71
634.00	28325.16
634.15	28163.67
634.30	28290.06
634.45	28409.42
634.60	28140.26
634.75	28299.42
634.90	28051.32
635.05	28133.24
635.19	28166.01
635.34	28381.34
635.49	28023.23
635.64	28257.29
635.79	28435.17
635.94	28013.87
636.09	28180.05
636.24	28105.15
636.39	28077.07
636.53	27831.31
636.68	27838.33
636.83	28044.30
636.98	28156.64
637.13	28268.99
637.28	28435.17
637.43	27936.63
637.57	28156.64
637.72	28264.31
637.87	27761.09
638.02	27969.40
638.17	27681.52
638.32	27653.43
638.46	28093.45
638.61	27770.46
638.76	27868.76
638.91	27571.51
639.06	27868.76
639.20	27915.57
639.35	28149.62
639.50	27672.15
639.65	28147.28
639.80	28135.58
639.94	27955.36
640.09	27800.88
640.24	27648.75
640.39	27920.25
640.54	27171.28
640.68	27625.34
640.83	28032.60
640.98	27747.05
641.13	27271.92
641.27	27604.28
641.42	27489.59
641.57	27522.36
641.72	27716.62
641.86	27410.01
642.01	27304.69
642.16	27316.39
642.31	27508.32
642.45	27431.08
642.60	27136.17
642.75	26948.93
642.90	27243.84
643.04	27285.97
643.19	27161.92
643.34	27178.30
643.48	27339.80
643.63	27103.40
643.78	27204.05
643.93	27527.04
644.07	27182.98
644.22	27395.97
644.37	27164.26
644.51	27131.49
644.66	26951.27
644.81	26759.34
644.95	26871.69
645.10	27098.72
645.25	27166.60
645.39	27014.46
645.54	26962.97
645.69	27035.53
645.83	27047.23
645.98	27119.79
646.13	27260.22
646.27	26953.61
646.42	26892.76
646.57	27023.83
646.71	26691.47
646.86	26974.67
647.00	26913.82
647.15	26735.94
647.30	26874.03
647.44	26817.86
647.59	26876.37
647.74	26836.58
647.88	26859.99
648.03	26850.63
648.17	26586.15
648.32	26787.43
648.47	27037.87
648.61	26932.54
648.76	26955.95
648.90	26740.62
649.05	26649.34
649.20	26806.16
649.34	26302.94
649.49	26508.91
649.63	26529.97
649.78	26567.42
649.92	26314.64
650.07	26686.79
650.21	26717.22
650.36	26340.39
650.51	26944.25
650.65	26742.96
650.80	26785.09
650.94	26464.44
651.09	26515.93
651.23	26309.96
651.38	26459.76
651.52	26040.80
651.67	26368.48
651.81	26235.06
651.96	26347.41
652.10	26338.05
652.25	26426.99
652.39	26593.17
652.54	26616.57
652.68	26256.13
652.83	26249.11
652.97	26635.30
653.12	26258.47
653.26	26260.81
653.41	26288.90
653.55	26026.76
653.70	26094.63
653.84	26305.28
653.99	26071.23
654.13	25797.38
654.27	25872.28
654.42	25970.58
654.56	26064.21
654.71	26501.89
654.85	25933.14
655.00	26106.34
655.14	25844.20
655.29	25895.69
655.43	25951.86
655.57	25949.52
655.72	25907.39
655.86	25942.50
656.01	25933.14
656.15	25771.64
656.30	25694.40
656.44	25600.78
656.58	25242.68
656.73	25694.40
656.87	25954.20
657.01	25891.01
657.16	25949.52
657.30	26064.21
657.45	25675.68
657.59	25881.64
657.73	25268.42
657.88	25811.43
658.02	25610.14
658.16	25542.27
658.31	25235.66
658.45	25668.66
658.60	25312.89
658.74	25378.43
658.88	25329.28
659.03	25287.15
659.17	25039.05
659.31	25315.23
659.46	25158.42
659.60	25539.93
659.74	25481.41
659.89	25322.26
660.03	25362.04
660.17	24844.79
660.32	24758.19
660.46	25322.26
660.60	24903.30
660.74	25113.95
660.89	24957.13
661.03	24718.40
661.17	24889.26
661.32	24751.17
661.46	24835.42
661.60	24996.92
661.74	24954.79
661.89	24861.17
662.03	24849.47
662.17	25064.80
662.31	24727.76
662.46	24863.51
662.60	24788.61
662.74	24463.28
662.88	24713.72
663.03	24409.45
663.17	24524.13
663.31	24367.32
663.45	24301.78
663.60	24678.61
663.74	24446.90
663.88	24535.84
664.02	24109.86
664.17	24453.92
664.31	24261.99
664.45	24154.33
664.59	24102.84
664.73	24320.51
664.88	24142.63
665.02	23789.20
665.16	23910.91
665.30	24187.10
665.44	24442.21
665.59	23782.18
665.73	23913.25
665.87	23955.38
666.01	23878.15
666.15	24053.69
666.29	23901.55
666.44	23969.43
666.58	23456.85
666.72	24072.41
666.86	23946.02
667.00	23826.65
667.14	24011.56
667.28	23585.58
667.43	23496.64
667.57	23590.26
667.71	23342.16
667.85	23353.87
667.99	23220.45
668.13	23597.28
668.27	23316.42
668.41	23529.41
668.56	23393.65
668.70	23269.61
668.84	23901.55
668.98	23325.78
669.12	23185.35
669.26	23101.09
669.40	23243.86
669.54	23098.75
669.68	22977.04
669.82	23012.15
669.96	22939.59
670.10	22995.76
670.25	22764.05
670.39	22618.94
670.53	22803.84
670.67	22618.94
670.81	22768.73
670.95	22665.75
671.09	22654.05
671.23	22647.02
671.37	22724.26
671.51	22494.89
671.65	22590.85
671.79	22728.94
671.93	22396.59
672.07	22677.45
672.21	22499.57
672.35	22284.24
672.49	22298.28
672.63	22284.24
672.77	22029.12
672.91	21994.01
673.05	21947.20
673.19	22008.06
673.33	22228.07
673.47	22066.57
673.61	22370.84
673.75	21914.44
673.89	22057.21
674.03	21752.94
674.17	22054.87
674.31	21752.94
674.45	21816.13
674.59	22104.02
674.73	21727.19
674.87	21371.43
675.01	21654.64
675.15	21553.99
675.29	21329.30
675.43	21678.04
675.56	21528.25
675.70	21240.36
675.84	21479.10
675.98	20842.47
676.12	21446.33
676.26	21472.07
676.40	21500.16
676.54	21085.89
676.68	21139.72
676.82	20695.02
676.96	20936.09
677.10	21270.79
677.23	20807.36
677.37	20339.26
677.51	20905.66
677.65	20301.81
677.79	20463.30
677.93	20559.27
678.07	20430.54
678.21	20245.63
678.34	20428.20
678.48	19974.13
678.62	20201.16
678.76	19934.34
678.90	20088.82
679.04	20102.86
679.18	19798.59
679.31	19903.92
679.45	19707.31
679.59	19609.01
679.73	19667.52
679.87	19639.44
680.00	19843.06
680.14	19325.80
680.28	19499.00
680.42	19513.05
680.56	19515.39
680.70	19529.43
680.83	19541.13
680.97	19321.12
681.11	19396.02
681.25	19187.71
681.39	19005.15
681.52	18792.16
681.66	19026.21
681.80	19147.92
681.94	19232.18
682.07	18719.60
682.21	18768.76
682.35	18581.51
682.49	18665.77
682.62	18530.02
682.76	18530.02
682.90	18548.75
683.04	18328.74
683.17	18370.86
683.31	18384.91
683.45	18501.93
683.59	18534.70
683.72	18169.58
683.86	18338.10
684.00	17982.34
684.13	18092.34
684.27	17989.36
684.41	17916.80
684.55	17579.76
684.68	17820.84
684.82	17385.50
684.96	17720.20
685.09	17699.13
685.23	17383.16
685.37	17315.28
685.50	17640.62
685.64	17771.69
685.78	17577.42
685.91	17261.45
686.05	17345.71
686.19	17376.14
686.32	17308.26
686.46	16828.45
686.60	16961.86
686.73	17027.40
686.87	16877.60
687.01	16657.59
687.14	16793.34
687.28	16774.62
687.42	16526.52
687.55	16730.15
687.69	16812.07
687.82	16458.65
687.96	16779.30
688.10	16418.86
688.23	16299.49
688.37	16217.57
688.50	16166.08
688.64	16489.07
688.78	16215.23
688.91	16149.70
689.05	16128.63
689.18	16030.33
689.32	15817.34
689.46	15552.86
689.59	15789.25
689.73	15641.80
689.86	15658.18
690.00	15910.96
690.13	15531.80
690.27	15353.91
690.41	15609.03
690.54	15571.58
690.68	15604.35
690.81	15431.15
690.95	15461.58
691.08	15330.51
691.22	15154.97
691.35	15449.88
691.49	15374.98
691.62	15002.83
691.76	15080.07
691.89	14951.34
692.03	15281.36
692.16	14778.14
692.30	14644.73
692.43	14778.14
692.57	14839.00
692.70	14403.66
692.84	14478.55
692.97	14209.39
693.11	14689.20
693.24	14518.34
693.38	14609.62
693.51	14705.59
693.65	14335.78
693.78	14143.86
693.92	14181.31
694.05	13942.57
694.19	13987.04
694.32	13802.14
694.45	14078.32
694.59	13816.18
694.72	13626.60
694.86	13703.84
694.99	13521.27
695.13	13909.80
695.26	13687.45
695.39	13579.79
695.53	13509.57
695.66	13444.04
695.80	13130.41
695.93	13483.83
696.07	13378.50
696.20	13125.72
696.33	13270.84
696.47	13099.98
696.60	12957.21
696.73	12938.48
696.87	12940.82
697.00	13125.72
697.14	12741.88
697.27	12664.64
697.40	12798.05
697.54	12678.68
697.67	12561.66
697.80	12730.17
697.94	12416.54
698.07	12315.90
698.21	12266.75
698.34	12297.17
698.47	12463.35
698.61	12538.25
698.74	12243.34
698.87	12351.01
699.01	12077.16
699.14	12332.28
699.27	12107.59
699.40	12170.79
699.54	12074.82
699.67	11791.62
699.80	11648.85
699.94	11662.89
700.07	11915.67
700.20	11407.77
700.34	11435.86
700.47	11726.08
700.60	11564.59
700.73	11798.64
700.87	11669.91
701.00	11536.50
701.13	11414.79
701.26	11391.39
701.40	11293.08
701.53	11236.91
701.66	11194.78
701.79	11173.72
701.93	11236.91
702.06	11293.08
702.19	11035.63
702.32	10855.40
702.46	10883.49
702.59	10881.15
702.72	10651.78
702.85	10771.15
702.99	10628.37
703.12	10621.35
703.25	10356.87
703.38	10560.50
703.51	10448.15
703.65	10368.57
703.78	10380.28
703.91	10368.57
704.04	10321.76
704.17	10537.09
704.31	10141.54
704.44	10197.71
704.57	10237.50
704.70	10211.76
704.83	10090.05
704.96	9919.19
705.10	9966.00
705.23	9966.00
>>>>>End Processed Spectral Data<<<<<
