SpectraSuite Data File
++++++++++++++++++++++++++++++++++++
Date: Fri Oct 18 13:57:57 GMT-05:00 2013
User: bianchi
Dark Spectrum Present: No
Reference Spectrum Present: No
Number of Sampled Component Spectra: 1
Spectrometers: USB2+H05261
Integration Time (usec): 50000 (USB2+H05261)
Spectra Averaged: 1 (USB2+H05261)
Boxcar Smoothing: 0 (USB2+H05261)
Correct for Electrical Dark: No (USB2+H05261)
Strobe/Lamp Enabled: No (USB2+H05261)
Correct for Detector Non-linearity: No (USB2+H05261)
Correct for Stray Light: No (USB2+H05261)
Number of Pixels in Processed Spectrum: 2048
>>>>>Begin Processed Spectral Data<<<<<
365.73	0.00
365.92	0.00
366.12	0.00
366.32	0.00
366.52	0.00
366.72	0.00
366.91	0.00
367.11	0.00
367.31	0.00
367.51	0.00
367.70	0.00
367.90	0.00
368.10	0.00
368.30	0.00
368.49	0.00
368.69	0.00
368.89	0.00
369.09	0.00
369.28	0.00
369.48	0.00
369.68	0.00
369.87	0.00
370.07	0.00
370.27	0.00
370.47	0.00
370.66	110.01
370.86	114.69
371.06	117.03
371.25	152.13
371.45	154.48
371.65	154.48
371.84	140.43
372.04	177.88
372.24	212.99
372.44	161.50
372.63	173.20
372.83	311.29
373.03	189.58
373.22	222.35
373.42	224.69
373.62	222.35
373.81	250.44
374.01	318.31
374.21	241.08
374.40	208.31
374.60	208.31
374.79	205.97
374.99	238.73
375.19	248.10
375.38	257.46
375.58	327.68
375.78	280.86
375.97	271.50
376.17	266.82
376.37	330.02
376.56	292.57
376.76	262.14
376.95	304.27
377.15	322.99
377.35	287.89
377.54	220.01
377.74	257.46
377.93	252.78
378.13	231.71
378.33	308.95
378.52	311.29
378.72	280.86
378.91	313.63
379.11	355.76
379.31	283.20
379.50	283.20
379.70	337.04
379.89	299.59
380.09	315.97
380.28	313.63
380.48	259.80
380.68	339.38
380.87	301.93
381.07	332.36
381.26	344.06
381.46	322.99
381.65	304.27
381.85	278.52
382.04	241.08
382.24	369.80
382.43	372.15
382.63	400.23
382.83	355.76
383.02	339.38
383.22	416.62
383.41	327.68
383.61	360.44
383.80	376.83
384.00	358.10
384.19	318.31
384.39	381.51
384.58	351.08
384.78	395.55
384.97	416.62
385.17	411.93
385.36	411.93
385.56	381.51
385.75	425.98
385.95	454.06
386.14	416.62
386.34	379.17
386.53	393.21
386.72	451.72
386.92	440.02
387.11	322.99
387.31	470.45
387.50	428.32
387.70	503.22
387.89	402.57
388.09	472.79
388.28	444.70
388.48	421.30
388.67	517.26
388.86	454.06
389.06	482.15
389.25	386.19
389.45	421.30
389.64	493.85
389.84	475.13
390.03	489.17
390.22	414.27
390.42	465.77
390.61	425.98
390.81	456.40
391.00	568.75
391.19	465.77
391.39	545.34
391.58	535.98
391.78	465.77
391.97	491.51
392.16	477.47
392.36	620.24
392.55	592.16
392.75	554.71
392.94	648.33
393.13	589.82
393.33	479.81
393.52	538.32
393.71	547.69
393.91	552.37
394.10	545.34
394.29	585.13
394.49	592.16
394.68	571.09
394.88	638.97
395.07	727.91
395.26	596.84
395.46	690.46
395.65	664.71
395.84	662.37
396.04	662.37
396.23	634.29
396.42	582.79
396.62	648.33
396.81	631.94
397.00	674.07
397.19	648.33
397.39	718.54
397.58	720.88
397.77	671.73
397.97	688.12
398.16	716.20
398.35	720.88
398.55	671.73
398.74	683.44
398.93	711.52
399.12	767.70
399.32	723.23
399.51	718.54
399.70	767.70
399.90	777.06
400.09	779.40
400.28	720.88
400.47	692.80
400.67	821.53
400.86	840.25
401.05	805.14
401.24	870.68
401.44	880.04
401.63	772.38
401.82	772.38
402.01	760.67
402.21	763.01
402.40	844.93
402.59	784.08
402.78	767.70
402.97	924.51
403.17	833.23
403.36	889.40
403.55	823.87
403.74	917.49
403.93	926.85
404.13	889.40
404.32	1020.47
404.51	924.51
404.70	936.21
404.89	961.96
405.09	997.07
405.28	884.72
405.47	919.83
405.66	1001.75
405.85	1050.90
406.05	922.17
406.24	1015.79
406.43	1043.88
406.62	983.02
406.81	1109.41
407.00	1034.52
407.20	1032.18
407.39	1074.31
407.58	1041.54
407.77	1067.28
407.96	1118.78
408.15	1125.80
408.34	1132.82
408.54	1151.54
408.73	1064.94
408.92	1158.57
409.11	1090.69
409.30	1151.54
409.49	1261.55
409.68	1095.37
409.87	1172.61
410.07	1160.91
410.26	1118.78
410.45	1240.48
410.64	1212.40
410.83	1235.80
411.02	1181.97
411.21	1322.40
411.40	1252.19
411.59	1357.51
411.78	1380.92
411.98	1378.58
412.17	1430.07
412.36	1362.19
412.55	1352.83
412.74	1416.02
412.93	1420.71
413.12	1380.92
413.31	1390.28
413.50	1423.05
413.69	1329.42
413.88	1509.65
414.07	1437.09
414.26	1523.69
414.45	1465.18
414.64	1504.96
414.83	1490.92
415.02	1511.99
415.22	1586.88
415.41	1661.78
415.60	1551.78
415.79	1664.12
415.98	1607.95
416.17	1657.10
416.36	1678.16
416.55	1600.93
416.74	1645.40
416.93	1626.67
417.12	1706.25
417.31	1771.79
417.50	1736.68
417.69	1776.47
417.88	1701.57
418.07	1767.10
418.26	1675.82
418.45	1792.85
418.64	1839.66
418.83	1797.53
419.02	1813.92
419.21	1734.34
419.39	1919.24
419.58	1804.55
419.77	1818.60
419.96	1881.79
420.15	1923.92
420.34	1753.06
420.53	1949.67
420.72	2017.54
420.91	1996.48
421.10	1975.41
421.29	2040.95
421.48	1970.73
421.67	1970.73
421.86	1987.11
422.05	2010.52
422.24	2010.52
422.43	2031.58
422.61	1937.96
422.80	2022.22
422.99	2120.53
423.18	2047.97
423.37	2085.42
423.56	2127.55
423.75	2012.86
423.94	2033.93
424.13	1846.68
424.32	1977.75
424.50	2104.14
424.69	2052.65
424.88	2108.82
425.07	2134.57
425.26	2033.93
425.45	2129.89
425.64	2127.55
425.83	2104.14
426.01	1991.80
426.20	2054.99
426.39	2059.67
426.58	2094.78
426.77	2232.87
426.96	2099.46
427.15	2076.06
427.33	2167.34
427.52	2090.10
427.71	2200.10
427.90	2090.10
428.09	2150.95
428.28	2176.70
428.46	2340.54
428.65	2221.17
428.84	2256.28
429.03	2363.94
429.22	2256.28
429.40	2340.54
429.59	2275.00
429.78	2214.15
429.97	2263.30
430.16	2286.70
430.34	2356.92
430.53	2431.82
430.72	2448.20
430.91	2345.22
431.10	2319.47
431.28	2417.77
431.47	2457.56
431.66	2530.12
431.85	2413.09
432.03	2523.10
432.22	2560.55
432.41	2424.80
432.60	2469.27
432.79	2487.99
432.97	2516.08
433.16	2693.96
433.35	2448.20
433.54	2527.78
433.72	2516.08
433.91	2574.59
434.10	2511.39
434.28	2609.70
434.47	2663.53
434.66	2628.42
434.85	2689.28
435.03	2693.96
435.22	2647.15
435.41	2766.51
435.59	2675.23
435.78	2794.60
435.97	2743.11
436.16	2675.23
436.34	2684.59
436.53	2761.83
436.72	2747.79
436.90	2717.36
437.09	2782.90
437.28	2647.15
437.46	2766.51
437.65	2878.86
437.84	2860.13
438.02	2780.56
438.21	2799.28
438.40	2836.73
438.58	2979.50
438.77	2899.92
438.96	2918.65
439.14	3038.02
439.33	2942.05
439.52	3211.22
439.70	3098.87
439.89	3164.40
440.08	3009.93
440.26	3248.66
440.45	3094.19
440.63	3166.74
440.82	3141.00
441.01	3138.66
441.19	3281.43
441.38	3419.52
441.57	3365.69
441.75	3370.37
441.94	3346.97
442.12	3463.99
442.31	3405.48
442.50	3283.77
442.68	3253.34
442.87	3412.50
443.05	3412.50
443.24	3405.48
443.43	3445.27
443.61	3417.18
443.80	3620.81
443.98	3335.26
444.17	3199.51
444.35	3524.85
444.54	3737.84
444.73	3527.19
444.91	3517.83
445.10	3559.95
445.28	3459.31
445.47	3499.10
445.65	3522.51
445.84	3571.66
446.02	3637.19
446.21	3520.17
446.39	3536.55
446.58	3536.55
446.77	3571.66
446.95	3428.88
447.14	3466.33
447.32	3581.02
447.51	3583.36
447.69	3616.13
447.88	3529.53
448.06	3662.94
448.25	3576.34
448.43	3492.08
448.62	3541.23
448.80	3637.19
448.99	3742.52
449.17	3758.90
449.36	3658.26
449.54	3658.26
449.73	3700.39
449.91	3882.95
450.10	3758.90
450.28	3885.29
450.46	3803.37
450.65	3836.14
450.83	3779.97
451.02	3782.31
451.20	3866.56
451.39	3878.27
451.57	3782.31
451.76	3744.86
451.94	3957.85
452.13	3798.69
452.31	3971.89
452.49	3882.95
452.68	3950.82
452.86	3957.85
453.05	4056.15
453.23	3995.29
453.42	3894.65
453.60	3974.23
453.78	3990.61
453.97	3899.33
454.15	4098.28
454.34	3878.27
454.52	4070.19
454.70	4060.83
454.89	4098.28
455.07	4159.13
455.26	4161.47
455.44	4166.15
455.62	4067.85
455.81	4184.88
455.99	4306.59
456.17	4250.41
456.36	4257.43
456.54	4198.92
456.73	4264.46
456.91	4521.92
457.09	4344.03
457.28	4545.32
457.46	4379.14
457.64	4414.25
457.83	4402.55
458.01	4512.55
458.19	4461.06
458.38	4496.17
458.56	4559.36
458.74	4496.17
458.93	4395.53
459.11	4585.11
459.29	4512.55
459.48	4470.42
459.66	4781.71
459.84	4674.05
460.03	4657.67
460.21	4669.37
460.39	4500.85
460.57	4624.90
460.76	4791.08
460.94	4877.68
461.12	4652.98
461.31	4704.48
461.49	4596.81
461.67	4557.02
461.85	4765.33
462.04	4741.93
462.22	5100.03
462.40	4938.53
462.59	4896.40
462.77	4833.21
462.95	4800.44
463.13	4915.12
463.32	5116.41
463.50	4903.42
463.68	4887.04
463.86	4933.85
464.05	4997.04
464.23	4966.62
464.41	4966.62
464.59	4933.85
464.78	5118.75
464.96	4940.87
465.14	4954.91
465.32	5055.56
465.50	5184.29
465.69	5181.95
465.87	5074.28
466.05	5046.20
466.23	5320.04
466.41	5128.11
466.60	5338.76
466.78	5294.29
466.96	5392.59
467.14	5322.38
467.32	5174.92
467.51	5179.61
467.69	5160.88
467.87	5364.51
468.05	5247.48
468.23	5294.29
468.41	5315.36
468.60	5380.89
468.78	5404.30
468.96	5111.73
469.14	5497.92
469.32	5455.79
469.50	5350.46
469.69	5369.19
469.87	5528.35
470.05	5493.24
470.23	5540.05
470.41	5507.28
470.59	5575.16
470.77	5547.07
470.95	5575.16
471.14	5596.22
471.32	5495.58
471.50	5738.99
471.68	5685.16
471.86	5790.49
472.04	5729.63
472.22	5797.51
472.40	5727.29
472.58	5891.13
472.77	5884.11
472.95	5902.83
473.13	6291.36
473.31	5914.53
473.49	6132.20
473.67	5987.09
473.85	6017.52
474.03	6183.70
474.21	6253.91
474.39	6129.86
474.57	6197.74
474.75	6197.74
474.93	6366.26
475.12	6235.19
475.30	6253.91
475.48	6307.74
475.66	6274.98
475.84	6478.60
476.02	6427.11
476.20	6457.54
476.38	6403.71
476.56	6806.28
476.74	6745.42
476.92	6813.30
477.10	6731.38
477.28	7028.63
477.46	6911.60
477.64	6890.54
477.82	7037.99
478.00	7033.31
478.18	7101.19
478.36	7094.16
478.54	7262.68
478.72	7346.94
478.90	7183.10
479.08	7515.46
479.26	7360.98
479.44	7606.74
479.62	7454.61
479.80	7683.98
479.98	7592.70
480.16	7740.15
480.34	7639.51
480.52	7861.86
480.70	7810.37
480.88	7796.32
481.06	7889.95
481.24	7751.85
481.41	8046.76
481.59	8131.02
481.77	8140.38
481.95	8226.98
482.13	8273.79
482.31	8301.88
482.49	8285.50
482.67	8425.93
482.85	8472.74
483.03	8566.36
483.21	8821.48
483.39	8828.50
483.57	8732.54
483.74	8699.77
483.92	8755.94
484.10	8772.33
484.28	9121.07
484.46	9343.42
484.64	9277.88
484.82	9238.09
485.00	9280.22
485.18	9544.70
485.35	9657.05
485.53	9411.29
485.71	9743.65
485.89	9942.60
486.07	10115.80
486.25	9867.70
486.43	10047.92
486.61	10068.98
486.78	10232.82
486.96	10207.08
487.14	10286.65
487.32	10476.24
487.50	10300.70
487.68	10408.36
487.85	10539.43
488.03	10736.04
488.21	10771.15
488.39	10764.12
488.57	10885.83
488.75	10953.71
488.92	11180.74
489.10	11073.07
489.28	11028.60
489.46	11269.68
489.64	11377.34
489.81	11726.08
489.99	11513.10
490.17	11639.48
490.35	11859.49
490.53	11800.98
490.70	11822.05
490.88	11885.24
491.06	11735.45
491.24	12196.53
491.41	12152.06
491.59	12102.91
491.77	12404.84
491.95	12578.04
492.13	12561.66
492.30	12521.87
492.48	12533.57
492.66	12432.93
492.84	12493.78
493.01	12681.02
493.19	13015.72
493.37	13062.53
493.54	13282.54
493.72	13425.31
493.90	12980.61
494.08	13001.68
494.25	13619.58
494.43	13263.82
494.61	13621.92
494.79	13589.15
494.96	13486.17
495.14	13654.69
495.32	13881.72
495.49	13825.54
495.67	13940.23
495.85	14246.84
496.02	14066.62
496.20	14244.50
496.38	14242.16
496.55	14267.91
496.73	14656.43
496.91	14377.91
497.09	14604.94
497.26	14595.58
497.44	14698.56
497.62	14956.02
497.79	14787.50
497.97	14925.60
498.14	14885.81
498.32	15473.28
498.50	15173.69
498.67	15482.64
498.85	15463.92
499.03	15304.76
499.20	15414.77
499.38	15433.49
499.56	15496.69
499.73	15571.58
499.91	15683.93
500.08	15800.96
500.26	15796.28
500.44	15714.36
500.61	15960.11
500.79	15915.64
500.97	15999.90
501.14	16196.51
501.32	16510.14
501.49	16304.17
501.67	15836.06
501.84	16147.36
502.02	16100.55
502.20	16187.14
502.37	16407.16
502.55	16730.15
502.72	16601.42
502.90	16332.26
503.07	16636.53
503.25	16767.60
503.43	16886.97
503.60	16655.25
503.78	16893.99
503.95	16901.01
504.13	16961.86
504.30	17165.49
504.48	17064.85
504.65	16772.28
504.83	17329.33
505.01	17561.04
505.18	17696.79
505.36	17703.81
505.53	17228.68
505.71	17539.97
505.88	17561.04
506.06	17516.57
506.23	17741.26
506.41	17743.60
506.58	17741.26
506.76	17898.08
506.93	17855.95
507.11	17689.77
507.28	18001.06
507.46	18003.40
507.63	18253.84
507.81	17942.55
507.98	18029.15
508.16	18331.08
508.33	18155.54
508.50	18670.45
508.68	18497.25
508.85	18518.32
509.03	18420.02
509.20	18579.17
509.38	18806.20
509.55	18850.67
509.73	19054.30
509.90	18595.56
510.08	18862.38
510.25	18923.23
510.42	18918.55
510.60	18867.06
510.77	19538.79
510.95	19267.29
511.12	19014.51
511.30	19239.20
511.47	19358.57
511.64	19176.01
511.82	19583.26
511.99	19641.78
512.17	19637.09
512.34	19683.91
512.51	19550.49
512.69	19630.07
512.86	19421.77
513.04	19761.14
513.21	19700.29
513.38	19840.72
513.56	20109.88
513.73	19847.74
513.90	20002.22
514.08	19798.59
514.25	19999.88
514.43	20273.72
514.60	20002.22
514.77	20177.76
514.95	20425.86
515.12	20671.61
515.29	20109.88
515.47	20678.63
515.64	20510.11
515.81	20470.33
515.99	20786.30
516.16	20971.20
516.33	20819.07
516.51	20940.77
516.68	20512.46
516.85	20568.63
517.03	20964.18
517.20	21212.28
517.37	20980.56
517.54	21064.82
517.72	21303.56
517.89	21160.78
518.06	21067.16
518.24	21078.86
518.41	21247.38
518.58	21530.59
518.75	21256.75
518.93	21851.24
519.10	21476.76
519.27	21586.76
519.45	21376.11
519.62	21673.36
519.79	21680.38
519.96	21893.37
520.14	21682.72
520.31	21584.42
520.48	21991.67
520.65	21940.18
520.83	22139.13
521.00	21884.01
521.17	22026.78
521.34	22174.24
521.52	21947.20
521.69	21947.20
521.86	22419.99
522.03	22232.75
522.20	22497.23
522.38	22204.66
522.55	22569.79
522.72	22242.11
522.89	22595.53
523.07	22726.60
523.24	22838.95
523.41	22651.70
523.58	22363.82
523.75	22689.15
523.92	22548.72
524.10	22965.34
524.27	22963.00
524.44	22981.72
524.61	23161.94
524.78	23058.96
524.96	23077.68
525.13	22953.63
525.30	23241.52
525.47	22960.66
525.64	23328.12
525.81	23386.63
525.98	23388.97
526.16	23660.48
526.33	23608.98
526.50	23810.27
526.67	23335.14
526.84	23290.67
527.01	23103.43
527.18	23281.31
527.36	23644.09
527.53	23646.43
527.70	23854.74
527.87	24156.67
528.04	23665.16
528.21	23868.78
528.38	23648.77
528.55	23718.99
528.72	23978.79
528.89	24079.43
529.07	24163.69
529.24	24093.47
529.41	24266.67
529.58	23751.76
529.75	23957.72
529.92	24418.81
530.09	24201.14
530.26	24140.29
530.43	24706.70
530.60	24130.92
530.77	24561.58
530.94	24507.75
531.11	24432.85
531.28	24243.27
531.46	24210.50
531.63	24570.94
531.80	24458.60
531.97	24634.14
532.14	24933.73
532.31	24636.48
532.48	24849.47
532.65	24760.53
532.82	24727.76
532.99	24872.87
533.16	25230.98
533.33	25010.96
533.50	25057.78
533.67	25027.35
533.84	24783.93
534.01	25113.95
534.18	24978.20
534.35	25254.38
534.52	25156.08
534.69	25259.06
534.86	25099.90
535.03	25165.44
535.20	25099.90
535.37	25153.74
535.54	25345.66
535.71	25397.15
535.88	25413.54
536.05	25163.10
536.22	25500.14
536.38	25497.80
536.55	25645.25
536.72	25921.43
536.89	25565.67
537.06	25535.24
537.23	25603.12
537.40	25469.71
537.57	25556.31
537.74	25757.60
537.91	25914.41
538.08	25947.18
538.25	26033.78
538.42	26092.29
538.59	26106.34
538.75	25919.09
538.92	25912.07
539.09	26457.42
539.26	26120.38
539.43	25991.65
539.60	26089.95
539.77	26188.25
539.94	26211.66
540.11	26127.40
540.28	26298.26
540.44	26316.98
540.61	26422.31
540.78	26183.57
540.95	26375.50
541.12	26576.78
541.29	26562.74
541.46	26382.52
541.62	26274.85
541.79	26394.22
541.96	26235.06
542.13	26637.64
542.30	26539.33
542.47	26857.65
542.63	26792.11
542.80	26874.03
542.97	27049.57
543.14	26862.33
543.31	26888.07
543.48	26754.66
543.64	27314.05
543.81	26881.05
543.98	27505.98
544.15	27129.15
544.32	27463.85
544.48	27791.52
544.65	26906.80
544.82	27421.72
544.99	26979.36
545.16	27101.06
545.32	27283.62
545.49	27353.84
545.66	27681.52
545.83	27513.00
546.00	27695.56
546.16	27269.58
546.33	27454.48
546.50	26785.09
546.67	27513.00
546.83	27105.74
547.00	27782.16
547.17	27721.30
547.34	27707.26
547.50	28126.22
547.67	28084.09
547.84	27637.05
548.00	27960.04
548.17	28086.43
548.34	27655.77
548.51	28074.73
548.67	28308.78
548.84	28203.46
549.01	28114.52
549.18	28013.87
549.34	27983.44
549.51	28053.66
549.68	28091.11
549.84	27718.96
550.01	28208.14
550.18	27915.57
550.34	28290.06
550.51	28362.61
550.68	28517.09
550.84	27854.72
551.01	28353.25
551.18	28074.73
551.34	28067.70
551.51	28203.46
551.68	28379.00
551.84	28573.26
552.01	28320.48
552.18	28659.86
552.34	28762.84
552.51	28570.92
552.68	28519.43
552.84	28414.10
553.01	28657.52
553.18	28617.73
553.34	28809.65
553.51	28236.22
553.67	28587.30
553.84	29099.88
554.01	29102.22
554.17	29041.37
554.34	28868.17
554.51	28561.56
554.67	28659.86
554.84	29008.60
555.00	28989.88
555.17	28741.78
555.33	28727.74
555.50	28732.42
555.67	28877.53
555.83	29170.10
556.00	28769.86
556.16	29322.23
556.33	28940.72
556.50	29181.80
556.66	28952.43
556.83	29165.42
556.99	29329.25
557.16	29050.73
557.32	29390.11
557.49	29209.89
557.65	29235.63
557.82	29207.55
557.98	29209.89
558.15	29366.70
558.32	29088.18
558.48	29582.03
558.65	29371.38
558.81	29617.14
558.98	29230.95
559.14	29343.30
559.31	29163.08
559.47	29397.13
559.64	29673.31
559.80	29544.58
559.97	29802.04
560.13	29661.61
560.30	29755.23
560.46	29593.73
560.63	29357.34
560.79	29338.62
560.96	29572.67
561.12	29610.12
561.29	29605.44
561.45	29392.45
561.61	29493.09
561.78	29560.97
561.94	29785.66
562.11	29631.18
562.27	29890.98
562.44	29649.91
562.60	29820.77
562.77	29804.38
562.93	29727.14
563.10	29624.16
563.26	29687.36
563.42	29895.66
563.59	29869.92
563.75	29935.45
563.92	30089.93
564.08	29806.72
564.24	29797.36
564.41	29579.69
564.57	29647.57
564.74	29902.68
564.90	30082.91
565.07	30043.12
565.23	30005.67
565.39	29982.26
565.56	30094.61
565.72	29869.92
565.88	29970.56
566.05	30036.09
566.21	30024.39
566.38	29879.28
566.54	30235.04
566.70	30232.70
566.87	30075.88
567.03	30197.59
567.19	30487.82
567.36	30244.40
567.52	29715.44
567.68	30274.83
567.85	30244.40
568.01	30195.25
568.17	29769.27
568.34	30328.66
568.50	30096.95
568.66	30230.36
568.83	30022.05
568.99	29935.45
569.15	30190.57
569.32	30195.25
569.48	30146.10
569.64	30108.65
569.81	30616.55
569.97	30082.91
570.13	30562.72
570.30	30108.65
570.46	30370.79
570.62	30586.12
570.78	30288.87
570.95	30167.16
571.11	30354.41
571.27	30256.11
571.43	30272.49
571.60	30036.09
571.76	30183.55
571.92	30359.09
572.09	30253.76
572.25	30281.85
572.41	30483.14
572.57	30352.07
572.74	30347.39
572.90	30260.79
573.06	30808.47
573.22	30295.89
573.38	30548.67
573.55	30260.79
573.71	30948.90
573.87	30607.19
574.03	30478.46
574.20	30602.50
574.36	30595.48
574.52	31005.08
574.68	30426.96
574.84	30260.79
575.01	30103.97
575.17	30534.63
575.33	29912.05
575.49	30412.92
575.65	30691.44
575.82	30473.78
575.98	30410.58
576.14	30513.56
576.30	30780.39
576.46	30658.68
576.62	30644.63
576.79	30410.58
576.95	30672.72
577.11	30834.22
577.27	30855.28
577.43	30841.24
577.59	30211.64
577.75	30890.39
577.92	30546.33
578.08	30300.58
578.24	30611.87
578.40	30455.05
578.56	30991.03
578.72	30654.00
578.88	30955.93
579.04	30316.96
579.21	30661.02
579.37	30738.26
579.53	30487.82
579.69	30576.76
579.85	30560.37
580.01	30515.90
580.17	30387.18
580.33	30646.97
580.49	30698.47
580.65	31072.95
580.82	30618.89
580.98	30471.43
581.14	30881.03
581.30	30972.31
581.46	30366.11
581.62	30560.37
581.78	30450.37
581.94	30522.93
582.10	30485.48
582.26	30768.68
582.42	30646.97
582.58	30897.41
582.74	30759.32
582.90	30773.36
583.06	30705.49
583.22	30513.56
583.38	30426.96
583.54	30855.28
583.70	30993.37
583.86	30934.86
584.02	30733.57
584.18	31075.29
584.34	30654.00
584.50	31105.72
584.66	30632.93
584.82	30979.33
584.98	31065.93
585.14	30696.13
585.30	30778.04
585.46	30756.98
585.62	30663.36
585.78	31087.00
585.94	30796.77
586.10	30768.68
586.26	31061.25
586.42	30939.54
586.58	31154.87
586.74	31101.04
586.90	30946.56
587.06	30384.83
587.22	30810.81
587.38	30742.94
587.54	31360.84
587.70	30658.68
587.86	31019.12
588.02	31182.96
588.18	31475.52
588.34	31222.75
588.49	30946.56
588.65	30806.13
588.81	30899.75
588.97	30878.69
589.13	30998.06
589.29	30764.00
589.45	30600.16
589.61	31412.33
589.77	31115.08
589.93	31166.57
590.08	31407.65
590.24	31248.49
590.40	31145.51
590.56	31395.95
590.72	30958.27
590.88	30876.35
591.04	31042.53
591.20	31257.85
591.35	31161.89
591.51	31775.11
591.67	30675.06
591.83	31363.18
591.99	31119.76
592.15	30991.03
592.31	31374.88
592.46	31108.06
592.62	30890.39
592.78	31143.17
592.94	31662.77
593.10	31449.78
593.26	31721.28
593.41	31281.26
593.57	31063.59
593.73	31307.01
593.89	31398.29
594.05	31496.59
594.20	31246.15
594.36	31297.64
594.52	31159.55
594.68	31218.07
594.84	31096.36
594.99	31686.17
595.15	31311.69
595.31	31379.56
595.47	31594.89
595.62	31274.24
595.78	30965.29
595.94	31655.75
596.10	31407.65
596.25	31496.59
596.41	30981.67
596.57	31133.81
596.73	31381.90
596.88	31257.85
597.04	31473.18
597.20	31367.86
597.36	31456.80
597.51	31693.19
597.67	31688.51
597.83	31290.62
597.99	31536.38
598.14	31381.90
598.30	31208.70
598.46	31199.34
598.61	31669.79
598.77	31316.37
598.93	31810.22
599.09	31693.19
599.24	31756.39
599.40	31702.56
599.56	31742.35
599.71	31105.72
599.87	31550.42
600.03	31608.93
600.18	31646.38
600.34	31351.48
600.50	31435.74
600.65	31323.39
600.81	31630.00
600.97	31384.24
601.12	31821.92
601.28	31569.15
601.44	31578.51
601.59	31524.68
601.75	31384.24
601.91	31321.05
602.06	31098.70
602.22	31461.48
602.37	31232.11
602.53	31405.31
602.69	31763.41
602.84	31512.97
603.00	31545.74
603.16	31569.15
603.31	31454.46
603.47	31337.43
603.62	31367.86
603.78	31445.10
603.94	31473.18
604.09	31157.21
604.25	31257.85
604.40	31452.12
604.56	31395.95
604.71	31468.50
604.87	31438.08
605.03	31604.25
605.18	31445.10
605.34	31234.45
605.49	31044.87
605.65	31842.99
605.80	31101.04
605.96	31227.43
606.12	31087.00
606.27	31564.46
606.43	31164.23
606.58	31519.99
606.74	31491.91
606.89	31651.06
607.05	31594.89
607.20	31662.77
607.36	31714.26
607.51	31393.61
607.67	30782.73
607.82	31323.39
607.98	31189.98
608.13	31192.32
608.29	31440.42
608.44	31208.70
608.60	31566.81
608.75	31250.83
608.91	31543.40
609.06	31145.51
609.22	31428.71
609.37	31110.40
609.53	31178.28
609.68	30892.73
609.84	31442.76
609.99	31103.38
610.15	31023.80
610.30	31077.63
610.46	31257.85
610.61	31426.37
610.76	31412.33
610.92	30972.31
611.07	31005.08
611.23	31101.04
611.38	31192.32
611.54	30808.47
611.69	30976.99
611.84	30960.61
612.00	31014.44
612.15	30724.21
612.31	31079.97
612.46	30885.71
612.62	31360.84
612.77	31140.83
612.92	31218.07
613.08	30761.66
613.23	31030.82
613.39	31463.82
613.54	30654.00
613.69	30661.02
613.85	30520.59
614.00	30749.96
614.15	31185.30
614.31	30764.00
614.46	30932.52
614.62	30934.86
614.77	31225.09
614.92	30817.83
615.08	31079.97
615.23	30796.77
615.38	31049.55
615.54	30590.80
615.69	30700.81
615.84	30801.45
616.00	30934.86
616.15	30593.14
616.30	31140.83
616.46	31007.42
616.61	30714.85
616.76	30878.69
616.92	30382.49
617.07	30590.80
617.22	30244.40
617.37	30288.87
617.53	30768.68
617.68	30560.37
617.83	30319.30
617.99	30380.15
618.14	30347.39
618.29	30827.20
618.45	30558.03
618.60	30462.07
618.75	30775.70
618.90	30595.48
619.06	30642.29
619.21	30754.64
619.36	30600.16
619.51	30281.85
619.67	30038.44
619.82	29734.17
619.97	30572.08
620.12	30197.59
620.28	30099.29
620.43	30331.00
620.58	30705.49
620.73	30249.08
620.89	30171.85
621.04	30401.22
621.19	30661.02
621.34	30384.83
621.49	30391.86
621.65	30192.91
621.80	30333.34
621.95	29902.68
622.10	30230.36
622.25	29757.57
622.41	29900.34
622.56	30195.25
622.71	30103.97
622.86	30298.23
623.01	30223.34
623.16	29954.18
623.32	30129.72
623.47	30047.80
623.62	29769.27
623.77	30129.72
623.92	29921.41
624.07	30071.20
624.23	30073.54
624.38	29755.23
624.53	29771.61
624.68	29975.24
624.83	29748.21
624.98	30005.67
625.13	29654.59
625.29	29855.87
625.44	29977.58
625.59	29493.09
625.74	29371.38
625.89	29694.38
626.04	29614.80
626.19	29174.78
626.34	29369.04
626.49	29724.80
626.65	29677.99
626.80	29729.48
626.95	29537.56
627.10	29626.50
627.25	29366.70
627.40	29607.78
627.55	29490.75
627.70	29364.36
627.85	29228.61
628.00	29530.54
628.15	29462.66
628.30	29352.66
628.45	29310.53
628.60	29390.11
628.76	29303.51
628.91	29572.67
629.06	29514.16
629.21	29357.34
629.36	29357.34
629.51	29207.55
629.66	29090.52
629.81	29233.29
629.96	28851.78
630.11	28919.66
630.26	28912.64
630.41	29193.50
630.56	28985.19
630.71	29495.43
630.86	28863.49
631.01	29015.62
631.16	29034.35
631.31	29415.85
631.46	28706.67
631.61	29301.17
631.76	28790.93
631.91	28975.83
632.06	28430.49
632.21	28503.04
632.36	28730.08
632.51	28947.75
632.66	28814.34
632.81	28837.74
632.96	29092.86
633.10	28554.54
633.25	28980.51
633.40	28926.68
633.55	29027.32
633.70	28376.66
633.85	28512.41
634.00	28566.24
634.15	28510.07
634.30	28624.75
634.45	28432.83
634.60	28741.78
634.75	28566.24
634.90	28388.36
635.05	28755.82
635.19	28795.61
635.34	29151.37
635.49	28931.36
635.64	29181.80
635.79	28591.98
635.94	28886.89
636.09	28294.74
636.24	28432.83
636.39	28313.46
636.53	28238.56
636.68	28411.76
636.83	28306.44
636.98	28563.90
637.13	28418.78
637.28	28720.71
637.43	28428.15
637.57	28758.16
637.72	28154.30
637.87	28247.93
638.02	28098.13
638.17	28271.33
638.32	28018.55
638.46	28121.54
638.61	28142.60
638.76	28058.34
638.91	28128.56
639.06	28439.85
639.20	28271.33
639.35	27875.78
639.50	28491.34
639.65	27922.59
639.80	28283.03
639.94	28027.92
640.09	28271.33
640.24	27803.22
640.39	28004.51
640.54	27599.60
640.68	27908.55
640.83	28002.17
640.98	27833.65
641.13	27639.39
641.27	28362.61
641.42	27761.09
641.57	27866.42
641.72	27938.97
641.86	27835.99
642.01	27749.39
642.16	27545.76
642.31	27555.13
642.45	27903.87
642.60	27164.26
642.75	27452.14
642.90	27407.67
643.04	27410.01
643.19	27604.28
643.34	27807.90
643.48	27718.96
643.63	27784.50
643.78	27503.64
643.93	27704.92
644.07	27946.00
644.22	27438.10
644.37	27646.41
644.51	27414.69
644.66	27615.98
644.81	27115.11
644.95	27175.96
645.10	27213.41
645.25	27564.49
645.39	27529.38
645.54	27330.44
645.69	27262.56
645.83	27620.66
645.98	27475.55
646.13	27316.39
646.27	27477.89
646.42	27257.88
646.57	27646.41
646.71	27211.07
646.86	27276.60
647.00	27302.35
647.15	27314.05
647.30	27342.14
647.44	26955.95
647.59	27248.52
647.74	27037.87
647.88	27395.97
648.03	27482.57
648.17	27253.20
648.32	27129.15
648.47	27220.43
648.61	27150.21
648.76	27157.24
648.90	27157.24
649.05	26967.65
649.20	27084.68
649.34	26822.54
649.49	26930.20
649.63	26817.86
649.78	26721.90
649.92	26719.56
650.07	26892.76
650.21	26984.04
650.36	26703.17
650.51	26536.99
650.65	26991.06
650.80	27056.59
650.94	26632.96
651.09	26597.85
651.23	26478.48
651.38	26459.76
651.52	26724.24
651.67	26260.81
651.81	26764.03
651.96	26742.96
652.10	27049.57
652.25	26731.26
652.39	26864.67
652.54	26689.13
652.68	26731.26
652.83	26581.46
652.97	26719.56
653.12	26768.71
653.26	26436.35
653.41	26747.64
653.55	26169.53
653.70	26333.37
653.84	26405.92
653.99	26253.79
654.13	26345.07
654.27	26473.80
654.42	26696.15
654.56	26483.16
654.71	26485.50
654.85	26380.18
655.00	26841.26
655.14	26258.47
655.29	26195.28
655.43	26464.44
655.57	26052.50
655.72	26125.06
655.86	26452.73
656.01	25738.87
656.15	25968.24
656.30	26155.49
656.44	25809.09
656.58	25736.53
656.73	25947.18
656.87	26230.38
657.01	25792.70
657.16	26443.37
657.30	26010.37
657.45	25921.43
657.59	26024.42
657.73	25652.27
657.88	25848.88
658.02	25900.37
658.16	25579.71
658.31	25860.58
658.45	25668.66
658.60	25673.34
658.74	25680.36
658.88	25362.04
659.03	25823.13
659.17	25715.47
659.31	25614.82
659.46	25846.54
659.60	25582.06
659.74	25390.13
659.89	25671.00
660.03	25537.59
660.17	25689.72
660.32	25483.75
660.46	25376.09
660.60	25060.12
660.74	25530.56
660.89	25247.36
661.03	25043.73
661.17	25053.09
661.32	24982.88
661.46	25076.50
661.60	25078.84
661.74	25378.43
661.89	25408.86
662.03	25261.40
662.17	24973.52
662.31	25003.94
662.46	25099.90
662.60	24889.26
662.74	24851.81
662.88	24753.51
663.03	24926.71
663.17	24603.71
663.31	24477.32
663.45	24549.88
663.60	24606.05
663.74	24372.00
663.88	25069.48
664.02	24697.33
664.17	24861.17
664.31	24812.02
664.45	24678.61
664.59	24879.89
664.73	24299.44
664.88	24470.30
665.02	24259.65
665.16	24072.41
665.30	24210.50
665.44	24063.05
665.59	23943.68
665.73	23985.81
665.87	24526.47
666.01	24212.84
666.15	24187.10
666.29	24154.33
666.44	24390.72
666.58	24051.34
666.72	23819.63
666.86	24297.10
667.00	24056.03
667.14	23658.14
667.28	23702.61
667.43	24016.24
667.57	23484.94
667.71	23796.23
667.85	23569.19
667.99	23962.40
668.13	23669.84
668.27	24079.43
668.41	24006.87
668.56	23208.75
668.70	23711.97
668.84	23702.61
668.98	23538.77
669.12	23613.66
669.26	23658.14
669.40	23693.24
669.54	23508.34
669.68	23353.87
669.82	23187.69
669.96	23276.63
670.10	23122.15
670.25	23101.09
670.39	23290.67
670.53	22742.99
670.67	22881.08
670.81	23082.36
670.95	23115.13
671.09	22881.08
671.23	22860.01
671.37	23454.51
671.51	22951.29
671.65	22890.44
671.79	22672.77
671.93	22518.29
672.07	22740.64
672.21	22750.01
672.35	22593.19
672.49	22527.66
672.63	22766.39
672.77	22068.91
672.91	22218.71
673.05	22436.38
673.19	22370.84
673.33	22377.86
673.47	22052.53
673.61	22412.97
673.75	22333.39
673.89	22258.49
674.03	21886.35
674.17	21902.73
674.31	22361.48
674.45	21652.30
674.59	22195.30
674.73	22043.17
674.87	21729.53
675.01	21834.86
675.15	21736.56
675.29	21652.30
675.43	21619.53
675.56	21619.53
675.70	21734.21
675.84	21500.16
675.98	21170.15
676.12	21846.56
676.26	21694.43
676.40	21469.73
676.54	21359.73
676.68	21369.09
676.82	20746.51
676.96	21312.92
677.10	21113.97
677.23	20851.83
677.37	20903.32
677.51	20896.30
677.65	20856.51
677.79	20882.26
677.93	20704.38
678.07	20365.00
678.21	20472.67
678.34	20353.30
678.48	20507.77
678.62	20498.41
678.76	20435.22
678.90	20313.51
679.04	20229.25
679.18	20320.53
679.31	19798.59
679.45	20152.01
679.59	19740.08
679.73	20173.08
679.87	19917.96
680.00	19924.98
680.14	19751.78
680.28	19995.20
680.42	19969.45
680.56	20056.05
680.70	19733.06
680.83	20063.07
680.97	19747.10
681.11	19805.61
681.25	19311.76
681.39	19447.51
681.52	19393.68
681.66	19236.86
681.80	19012.17
681.94	18979.40
682.07	19009.83
682.21	18946.64
682.35	18817.91
682.49	18717.26
682.62	18946.64
682.76	18724.29
682.90	18621.30
683.04	18501.93
683.17	18527.68
683.31	18848.33
683.45	18480.87
683.59	18480.87
683.72	18338.10
683.86	18340.44
684.00	18352.14
684.13	18239.79
684.27	18036.17
684.41	17970.63
684.55	17874.67
684.68	18047.87
684.82	17745.94
684.96	17802.11
685.09	17785.73
685.23	17584.44
685.37	17605.51
685.50	17654.66
685.64	17912.12
685.78	17799.77
685.91	17596.15
686.05	17551.68
686.19	17371.46
686.32	17755.30
686.46	16982.93
686.60	16980.59
686.73	16882.28
686.87	16882.28
687.01	17179.53
687.14	17153.79
687.28	16648.23
687.42	16681.00
687.55	16538.23
687.69	16753.55
687.82	16681.00
687.96	16769.94
688.10	16816.75
688.23	16594.40
688.37	16538.23
688.50	16404.81
688.64	16379.07
688.78	16327.58
688.91	16439.92
689.05	16119.27
689.18	16257.36
689.32	15754.15
689.46	15754.15
689.59	15913.30
689.73	15892.24
689.86	15426.47
690.00	15934.37
690.13	15683.93
690.27	15716.70
690.41	15800.96
690.54	15466.26
690.68	15620.74
690.81	15531.80
690.95	15644.14
691.08	15602.01
691.22	15286.04
691.35	15241.57
691.49	15304.76
691.62	15269.66
691.76	15293.06
691.89	15084.75
692.03	14806.23
692.16	14892.83
692.30	14860.06
692.43	14932.62
692.57	14738.35
692.70	14750.06
692.84	14897.51
692.97	14853.04
693.11	14499.62
693.24	14539.41
693.38	14471.53
693.51	14555.79
693.65	14471.53
693.78	14085.34
693.92	14429.40
694.05	14279.61
694.19	14113.43
694.32	14118.11
694.45	14059.60
694.59	14024.49
694.72	13673.41
694.86	13846.61
694.99	13635.96
695.13	13502.55
695.26	13727.24
695.39	13757.67
695.53	13738.94
695.66	13628.94
695.80	13748.31
695.93	13369.14
696.07	13493.19
696.20	13570.43
696.33	13476.80
696.47	13406.59
696.60	13336.37
696.73	13097.64
696.87	13135.09
697.00	13060.19
697.14	12795.71
697.27	12554.63
697.40	12643.57
697.54	12854.22
697.67	12870.61
697.80	12603.78
697.94	12379.09
698.07	12540.59
698.21	12608.47
698.34	12870.61
698.47	12767.62
698.61	12189.51
698.74	12545.27
698.87	12578.04
699.01	12409.52
699.14	12159.08
699.27	12229.30
699.40	12116.95
699.54	11815.02
699.67	11967.16
699.80	12051.42
699.94	12093.55
700.07	11983.54
700.20	11934.39
700.34	11850.13
700.47	11695.66
700.60	11737.79
700.73	11466.28
700.87	11309.47
701.00	11513.10
701.13	11585.65
701.26	11522.46
701.40	11705.02
701.53	11571.61
701.66	11391.39
701.79	11290.74
701.93	11171.38
702.06	10979.45
702.19	10991.16
702.32	11080.10
702.46	10911.58
702.59	10817.96
702.72	11178.40
702.85	10736.04
702.99	10752.42
703.12	10867.11
703.25	10862.43
703.38	10705.61
703.51	10656.46
703.65	10597.95
703.78	10710.29
703.91	10546.45
704.04	10911.58
704.17	10595.61
704.31	10516.03
704.44	10623.69
704.57	10265.59
704.70	10143.88
704.83	10043.24
704.96	10134.52
705.10	10071.33
705.23	9888.76
>>>>>End Processed Spectral Data<<<<<
