SpectraSuite Data File
++++++++++++++++++++++++++++++++++++
Date: Fri Oct 18 13:58:09 GMT-05:00 2013
User: bianchi
Dark Spectrum Present: No
Reference Spectrum Present: No
Number of Sampled Component Spectra: 1
Spectrometers: USB2+H05261
Integration Time (usec): 50000 (USB2+H05261)
Spectra Averaged: 1 (USB2+H05261)
Boxcar Smoothing: 0 (USB2+H05261)
Correct for Electrical Dark: No (USB2+H05261)
Strobe/Lamp Enabled: No (USB2+H05261)
Correct for Detector Non-linearity: No (USB2+H05261)
Correct for Stray Light: No (USB2+H05261)
Number of Pixels in Processed Spectrum: 2048
>>>>>Begin Processed Spectral Data<<<<<
365.73	0.00
365.92	0.00
366.12	0.00
366.32	0.00
366.52	0.00
366.72	0.00
366.91	0.00
367.11	0.00
367.31	0.00
367.51	0.00
367.70	0.00
367.90	0.00
368.10	0.00
368.30	0.00
368.49	0.00
368.69	0.00
368.89	0.00
369.09	0.00
369.28	0.00
369.48	0.00
369.68	0.00
369.87	0.00
370.07	0.00
370.27	0.00
370.47	0.00
370.66	65.54
370.86	166.18
371.06	149.79
371.25	198.95
371.45	159.16
371.65	175.54
371.84	88.94
372.04	154.48
372.24	147.45
372.44	138.09
372.63	142.77
372.83	191.92
373.03	182.56
373.22	173.20
373.42	264.48
373.62	212.99
373.81	198.95
374.01	208.31
374.21	313.63
374.40	201.29
374.60	245.76
374.79	159.16
374.99	318.31
375.19	194.26
375.38	205.97
375.58	220.01
375.78	227.03
375.97	245.76
376.17	280.86
376.37	252.78
376.56	257.46
376.76	280.86
376.95	259.80
377.15	367.46
377.35	210.65
377.54	308.95
377.74	229.37
377.93	252.78
378.13	259.80
378.33	262.14
378.52	327.68
378.72	297.25
378.91	313.63
379.11	266.82
379.31	301.93
379.50	299.59
379.70	287.89
379.89	306.61
380.09	311.29
380.28	362.78
380.48	409.59
380.68	332.36
380.87	292.57
381.07	416.62
381.26	315.97
381.46	360.44
381.65	383.85
381.85	372.15
382.04	390.87
382.24	372.15
382.43	241.08
382.63	348.74
382.83	344.06
383.02	390.87
383.22	327.68
383.41	404.91
383.61	290.23
383.80	344.06
384.00	358.10
384.19	381.51
384.39	374.49
384.58	393.21
384.78	395.55
384.97	430.66
385.17	304.27
385.36	409.59
385.56	355.76
385.75	339.38
385.95	423.64
386.14	440.02
386.34	416.62
386.53	449.38
386.72	397.89
386.92	435.34
387.11	456.40
387.31	440.02
387.50	510.24
387.70	425.98
387.89	479.81
388.09	428.32
388.28	400.23
388.48	458.74
388.67	489.17
388.86	531.30
389.06	505.56
389.25	367.46
389.45	430.66
389.64	491.51
389.84	552.37
390.03	458.74
390.22	470.45
390.42	435.34
390.61	561.73
390.81	440.02
391.00	512.58
391.19	493.85
391.39	557.05
391.58	491.51
391.78	510.24
391.97	528.96
392.16	498.53
392.36	578.11
392.55	557.05
392.75	475.13
392.94	557.05
393.13	580.45
393.33	547.69
393.52	514.92
393.71	484.49
393.91	585.13
394.10	669.39
394.29	613.22
394.49	603.86
394.68	554.71
394.88	531.30
395.07	624.92
395.26	617.90
395.46	592.16
395.65	638.97
395.84	578.11
396.04	685.78
396.23	664.71
396.42	596.84
396.62	704.50
396.81	678.76
397.00	669.39
397.19	667.05
397.39	671.73
397.58	765.36
397.77	692.80
397.97	681.10
398.16	669.39
398.35	702.16
398.55	713.86
398.74	744.29
398.93	706.84
399.12	737.27
399.32	770.04
399.51	683.44
399.70	758.33
399.90	781.74
400.09	788.76
400.28	858.98
400.47	660.03
400.67	748.97
400.86	760.67
401.05	812.17
401.24	788.76
401.44	809.83
401.63	802.80
401.82	819.19
402.01	819.19
402.21	760.67
402.40	898.77
402.59	854.30
402.78	842.59
402.97	830.89
403.17	919.83
403.36	870.68
403.55	882.38
403.74	912.81
403.93	966.64
404.13	936.21
404.32	919.83
404.51	926.85
404.70	903.45
404.89	870.68
405.09	940.90
405.28	973.66
405.47	903.45
405.66	917.49
405.85	1036.86
406.05	966.64
406.24	1060.26
406.43	1053.24
406.62	1041.54
406.81	1097.71
407.00	1057.92
407.20	952.60
407.39	990.05
407.58	1022.81
407.77	1093.03
407.96	1104.73
408.15	1055.58
408.34	1043.88
408.54	1086.01
408.73	1093.03
408.92	1125.80
409.11	1221.76
409.30	1125.80
409.49	1109.41
409.68	1121.12
409.87	1177.29
410.07	1212.40
410.26	1217.08
410.45	1200.69
410.64	1167.93
410.83	1181.97
411.02	1191.33
411.21	1214.74
411.40	1205.38
411.59	1291.98
411.78	1228.78
411.98	1252.19
412.17	1350.49
412.36	1378.58
412.55	1387.94
412.74	1392.62
412.93	1287.29
413.12	1406.66
413.31	1411.34
413.50	1397.30
413.69	1390.28
413.88	1401.98
414.07	1409.00
414.26	1451.13
414.45	1528.37
414.64	1502.62
414.83	1453.47
415.02	1427.73
415.22	1528.37
415.41	1591.56
415.60	1582.20
415.79	1689.87
415.98	1596.25
416.17	1586.88
416.36	1626.67
416.55	1610.29
416.74	1720.29
416.93	1617.31
417.12	1640.72
417.31	1678.16
417.50	1804.55
417.69	1783.49
417.88	1743.70
418.07	1713.27
418.26	1713.27
418.45	1703.91
418.64	1818.60
418.83	1820.94
419.02	1748.38
419.21	1874.77
419.39	1879.45
419.58	1834.98
419.77	1860.73
419.96	1914.56
420.15	1877.11
420.34	1860.73
420.53	1783.49
420.72	1884.13
420.91	1914.56
421.10	2005.84
421.29	2078.40
421.48	1898.17
421.67	1900.52
421.86	1961.37
422.05	2019.88
422.24	1928.60
422.43	2026.90
422.61	1973.07
422.80	2073.71
422.99	2054.99
423.18	2008.18
423.37	2033.93
423.56	1966.05
423.75	2029.24
423.94	1982.43
424.13	1952.01
424.32	2040.95
424.50	2090.10
424.69	2139.25
424.88	2146.27
425.07	2038.61
425.26	2146.27
425.45	1987.11
425.64	2008.18
425.83	2071.37
426.01	2153.29
426.20	2043.29
426.39	2143.93
426.58	2033.93
426.77	2050.31
426.96	2197.76
427.15	2150.95
427.33	2141.59
427.52	2083.08
427.71	2193.08
427.90	2204.78
428.09	2111.16
428.28	2270.32
428.46	2197.76
428.65	2223.51
428.84	2333.51
429.03	2272.66
429.22	2176.70
429.40	2368.62
429.59	2324.15
429.78	2242.23
429.97	2115.84
430.16	2310.11
430.34	2349.90
430.53	2279.68
430.72	2345.22
430.91	2333.51
431.10	2319.47
431.28	2368.62
431.47	2359.26
431.66	2363.94
431.85	2445.86
432.03	2399.05
432.22	2579.27
432.41	2434.16
432.60	2443.52
432.79	2427.14
432.97	2506.71
433.16	2403.73
433.35	2558.21
433.54	2546.50
433.72	2509.05
433.91	2635.44
434.10	2527.78
434.28	2492.67
434.47	2464.58
434.66	2619.06
434.85	2593.31
435.03	2583.95
435.22	2708.00
435.41	2637.78
435.59	2665.87
435.78	2715.02
435.97	2649.49
436.16	2586.29
436.34	2651.83
436.53	2656.51
436.72	2822.69
436.90	2764.17
437.09	2708.00
437.28	2729.06
437.46	2815.66
437.65	2750.13
437.84	2918.65
438.02	2773.53
438.21	2825.03
438.40	2806.30
438.58	2937.37
438.77	2960.78
438.96	2949.08
439.14	2967.80
439.33	2909.29
439.52	2951.42
439.70	3033.33
439.89	3045.04
440.08	3162.06
440.26	3063.76
440.45	3087.17
440.63	3178.45
440.82	3126.96
441.01	3197.17
441.19	3239.30
441.38	3290.79
441.57	3227.60
441.75	3157.38
441.94	3414.84
442.12	3187.81
442.31	3325.90
442.50	3239.30
442.68	3316.54
442.87	3377.39
443.05	3318.88
443.24	3545.91
443.43	3461.65
443.61	3442.93
443.80	3590.38
443.98	3419.52
444.17	3220.58
444.35	3475.70
444.54	3534.21
444.73	3576.34
444.91	3499.10
445.10	3562.30
445.28	3480.38
445.47	3321.22
445.65	3405.48
445.84	3527.19
446.02	3658.26
446.21	3492.08
446.39	3524.85
446.58	3686.34
446.77	3566.98
446.95	3496.76
447.14	3541.23
447.32	3588.04
447.51	3545.91
447.69	3627.83
447.88	3531.87
448.06	3438.25
448.25	3609.11
448.43	3524.85
448.62	3562.30
448.80	3478.04
448.99	3630.17
449.17	3665.28
449.36	3623.15
449.54	3719.11
449.73	3747.20
449.91	3651.24
450.10	3721.45
450.28	3698.05
450.46	3789.33
450.65	3836.14
450.83	3946.14
451.02	3707.41
451.20	3899.33
451.39	3892.31
451.57	3796.35
451.76	3887.63
451.94	3812.73
452.13	4007.00
452.31	3847.84
452.49	3761.24
452.68	3913.38
452.86	3845.50
453.05	3911.04
453.23	3995.29
453.42	3899.33
453.60	3899.33
453.78	4063.17
453.97	3911.04
454.15	3946.14
454.34	3988.27
454.52	4084.23
454.70	4128.70
454.89	4035.08
455.07	4166.15
455.26	4070.19
455.44	4180.20
455.62	4138.07
455.81	4241.05
455.99	4159.13
456.17	4306.59
456.36	4131.05
456.54	4140.41
456.73	4201.26
456.91	4348.72
457.09	4231.69
457.28	4404.89
457.46	4297.22
457.64	4531.28
457.83	4500.85
458.01	4327.65
458.19	4304.25
458.38	4339.35
458.56	4468.08
458.74	4482.13
458.93	4425.95
459.11	4440.00
459.29	4362.76
459.48	4498.51
459.66	4437.66
459.84	4624.90
460.03	4564.04
460.21	4786.40
460.39	4550.00
460.57	4542.98
460.76	4472.76
460.94	4784.06
461.12	4573.41
461.31	4603.83
461.49	4634.26
461.67	4755.97
461.85	4723.20
462.04	4828.53
462.22	5071.94
462.40	4779.37
462.59	4926.83
462.77	4903.42
462.95	4877.68
463.13	4865.97
463.32	4774.69
463.50	4898.74
463.68	4983.00
463.86	5036.83
464.05	4842.57
464.23	4748.95
464.41	4990.02
464.59	4891.72
464.78	5008.75
464.96	4952.57
465.14	4826.18
465.32	5039.17
465.50	5085.98
465.69	5188.97
465.87	5039.17
466.05	4980.66
466.23	5041.51
466.41	5020.45
466.60	5191.31
466.78	5034.49
466.96	5036.83
467.14	5100.03
467.32	5083.64
467.51	5273.23
467.69	5125.77
467.87	5036.83
468.05	5181.95
468.23	5261.52
468.41	5210.03
468.60	5254.50
468.78	5373.87
468.96	5263.86
469.14	5308.34
469.32	5406.64
469.50	5104.71
469.69	5465.15
469.87	5383.23
470.05	5605.58
470.23	5479.19
470.41	5577.50
470.59	5504.94
470.77	5537.71
470.95	5598.56
471.14	5645.37
471.32	5547.07
471.50	5696.86
471.68	5680.48
471.86	5769.42
472.04	5727.29
472.22	5905.17
472.40	5689.84
472.58	5713.25
472.77	5746.02
472.95	5907.51
473.13	5970.71
473.31	5973.05
473.49	5954.32
473.67	5860.70
473.85	5738.99
474.03	5994.11
474.21	6190.72
474.39	6211.78
474.57	6296.04
474.75	6291.36
474.93	6265.61
475.12	6363.92
475.30	6370.94
475.48	6253.91
475.66	6532.44
475.84	6249.23
476.02	6530.09
476.20	6565.20
476.38	6614.35
476.56	6616.69
476.74	6614.35
476.92	6658.82
477.10	6581.59
477.28	6715.00
477.46	6726.70
477.64	6722.02
477.82	6888.20
478.00	7096.50
478.18	6998.20
478.36	7014.59
478.54	7049.69
478.72	7302.47
478.90	7227.57
479.08	7276.73
479.26	7234.60
479.44	7508.44
479.62	7588.02
479.80	7433.54
479.98	7386.73
480.16	7712.07
480.34	7644.19
480.52	7681.64
480.70	7733.13
480.88	7810.37
481.06	7646.53
481.24	7948.46
481.41	7955.48
481.59	8102.93
481.77	8009.31
481.95	7990.59
482.13	8367.42
482.31	8121.66
482.49	8425.93
482.67	8566.36
482.85	8655.30
483.03	8690.41
483.21	8638.92
483.39	8744.24
483.57	8638.92
483.74	8842.54
483.92	8793.39
484.10	8858.93
484.28	9062.55
484.46	9151.49
484.64	9273.20
484.82	9242.78
485.00	9242.78
485.18	9341.08
485.35	9577.47
485.53	9378.53
485.71	9708.54
485.89	9727.27
486.07	9713.22
486.25	9568.11
486.43	9848.97
486.61	10073.67
486.78	10036.22
486.96	10150.90
487.14	10228.14
487.32	10352.19
487.50	10122.82
487.68	10377.94
487.85	10480.92
488.03	10621.35
488.21	10810.93
488.39	10815.62
488.57	10796.89
488.75	10927.96
488.92	10808.59
489.10	11082.44
489.28	11152.65
489.46	11445.22
489.64	11147.97
489.81	11566.93
489.99	11534.16
490.17	11585.65
490.35	11789.28
490.53	11698.00
490.70	11805.66
490.88	11492.03
491.06	11793.96
491.24	11751.83
491.41	12056.10
491.59	12381.43
491.77	12212.92
491.95	12343.99
492.13	12475.06
492.30	12341.64
492.48	12425.90
492.66	12482.08
492.84	12475.06
493.01	12678.68
493.19	12720.81
493.37	12938.48
493.54	13102.32
493.72	13008.70
493.90	13018.06
494.08	13109.34
494.25	13329.35
494.43	13369.14
494.61	13570.43
494.79	13556.38
494.96	13507.23
495.14	13446.38
495.32	13556.38
495.49	13752.99
495.67	13778.73
495.85	13902.78
496.02	14155.56
496.20	14024.49
496.38	14087.68
496.55	14010.45
496.73	14497.28
496.91	14700.90
497.09	14738.35
497.26	14689.20
497.44	14738.35
497.62	14642.39
497.79	14827.29
497.97	14867.08
498.14	14944.32
498.32	15190.08
498.50	14834.32
498.67	15267.31
498.85	15204.12
499.03	15307.10
499.20	15220.50
499.38	15096.46
499.56	15534.14
499.73	15503.71
499.91	15559.88
500.08	15480.30
500.26	15833.72
500.44	15536.48
500.61	15800.96
500.79	15934.37
500.97	15946.07
501.14	16194.17
501.32	16552.27
501.49	16035.01
501.67	16098.20
501.84	16203.53
502.02	16191.83
502.20	16451.63
502.37	16292.47
502.55	16657.59
502.72	16432.90
502.90	16575.67
503.07	16301.83
503.25	16570.99
503.43	16243.32
503.60	16816.75
503.78	16875.26
503.95	16819.09
504.13	16989.95
504.30	16903.35
504.48	16713.77
504.65	16915.05
504.83	17165.49
505.01	17238.05
505.18	17312.94
505.36	17453.37
505.53	17451.03
505.71	17439.33
505.88	17357.41
506.06	17219.32
506.23	17916.80
506.41	17598.49
506.58	17874.67
506.76	17678.07
506.93	18012.76
507.11	17977.65
507.28	17879.35
507.46	17860.63
507.63	17947.23
507.81	18511.30
507.98	18267.88
508.16	18164.90
508.33	18066.60
508.50	18113.41
508.68	18270.22
508.85	18211.71
509.03	18326.39
509.20	18625.98
509.38	18768.76
509.55	18483.21
509.73	18714.92
509.90	18623.64
510.08	18546.40
510.25	18930.25
510.42	18780.46
510.60	18820.25
510.77	19044.94
510.95	18981.74
511.12	18668.11
511.30	19096.43
511.47	18937.27
511.64	19260.27
511.82	19133.88
511.99	19063.66
512.17	19585.60
512.34	19253.25
512.51	19517.73
512.69	19293.04
512.86	19520.07
513.04	19522.41
513.21	19791.57
513.38	19974.13
513.56	19939.02
513.73	19667.52
513.90	19861.79
514.08	19449.85
514.25	19882.85
514.43	20257.34
514.60	20119.24
514.77	19845.40
514.95	20231.59
515.12	20032.65
515.29	20348.62
515.47	20219.89
515.64	20219.89
515.81	20203.50
515.99	20601.40
516.16	20723.10
516.33	20842.47
516.51	20519.48
516.68	20573.31
516.85	20425.86
517.03	20512.46
517.20	20826.09
517.37	21034.39
517.54	21029.71
517.72	20987.58
517.89	20795.66
518.06	20840.13
518.24	20851.83
518.41	21097.59
518.58	21139.72
518.75	20748.85
518.93	21404.20
519.10	21036.74
519.27	21434.63
519.45	21209.93
519.62	21425.26
519.79	21451.01
519.96	21589.10
520.14	21748.26
520.31	21671.02
520.48	21717.83
520.65	21563.36
520.83	21764.64
521.00	21270.79
521.17	21755.28
521.34	21736.56
521.52	21715.49
521.69	21998.70
521.86	21900.39
522.03	22277.22
522.20	22277.22
522.38	22532.34
522.55	22300.62
522.72	22260.84
522.89	22216.36
523.07	22817.88
523.24	22501.91
523.41	22541.70
523.58	22637.66
523.75	22668.09
523.92	22754.69
524.10	22787.46
524.27	22527.66
524.44	22895.12
524.61	22752.35
524.78	22970.02
524.96	22754.69
525.13	22675.11
525.30	22890.44
525.47	22970.02
525.64	23187.69
525.81	22986.40
525.98	22988.74
526.16	23260.24
526.33	23199.39
526.50	23391.31
526.67	22974.70
526.84	23241.52
527.01	23222.80
527.18	23438.12
527.36	23580.90
527.53	23456.85
527.70	23861.76
527.87	23662.82
528.04	23407.70
528.21	23494.30
528.38	23501.32
528.55	23807.93
528.72	23520.04
528.89	23768.14
529.07	24147.31
529.24	23400.68
529.41	24095.82
529.58	23873.46
529.75	23906.23
529.92	23859.42
530.09	23814.95
530.26	24161.35
530.43	24329.87
530.60	23892.19
530.77	24212.84
530.94	24266.67
531.11	23772.82
531.28	24147.31
531.46	24058.37
531.63	24535.84
531.80	24456.26
531.97	24896.28
532.14	24645.84
532.31	24479.66
532.48	24783.93
532.65	24393.06
532.82	24201.14
532.99	24659.88
533.16	24503.07
533.33	24898.62
533.50	24634.14
533.67	24872.87
533.84	24992.24
534.01	25064.80
534.18	24793.29
534.35	25315.23
534.52	24915.00
534.69	25088.20
534.86	25132.67
535.03	24961.81
535.20	25085.86
535.37	25273.10
535.54	25198.21
535.71	24875.21
535.88	25369.07
536.05	25111.61
536.22	25181.82
536.38	25528.22
536.55	25240.34
536.72	25507.16
536.89	25106.93
537.06	25624.18
537.23	25621.84
537.40	25469.71
537.57	25572.69
537.74	25752.91
537.91	25776.32
538.08	25762.28
538.25	25638.23
538.42	25731.85
538.59	25965.90
538.75	25619.50
538.92	25593.76
539.09	25937.82
539.26	25699.08
539.43	26003.35
539.60	26092.29
539.77	25961.22
539.94	26136.76
540.11	26188.25
540.28	26300.60
540.44	25771.64
540.61	26103.99
540.78	25825.47
540.95	26111.02
541.12	26377.84
541.29	26675.09
541.46	26218.68
541.62	26246.77
541.79	26508.91
541.96	25942.50
542.13	25940.16
542.30	26298.26
542.47	26565.08
542.63	26328.69
542.80	26787.43
542.97	26749.98
543.14	26829.56
543.31	27033.19
543.48	26740.62
543.64	27009.78
543.81	27187.66
543.98	26810.84
544.15	26995.74
544.32	27431.08
544.48	27360.86
544.65	27262.56
544.82	27007.44
544.99	26773.39
545.16	26918.50
545.32	26948.93
545.49	27054.25
545.66	27257.88
545.83	27304.69
546.00	27161.92
546.16	27234.47
546.33	27407.67
546.50	26581.46
546.67	27391.29
546.83	27014.46
547.00	27412.35
547.17	27793.86
547.34	27449.80
547.50	27866.42
547.67	28039.62
547.84	27651.09
548.00	27288.31
548.17	28004.51
548.34	27604.28
548.51	27791.52
548.67	27821.95
548.84	28032.60
549.01	27885.14
549.18	27676.83
549.34	27585.55
549.51	27957.70
549.68	27955.36
549.84	27786.84
550.01	27824.29
550.18	27885.14
550.34	28229.20
550.51	28147.28
550.68	28306.44
550.84	28041.96
551.01	28360.27
551.18	27775.14
551.34	27672.15
551.51	28500.70
551.68	28107.49
551.84	28271.33
552.01	28386.02
552.18	28364.95
552.34	28149.62
552.51	28151.96
552.68	28170.69
552.84	28428.15
553.01	28599.01
553.18	28273.67
553.34	28308.78
553.51	28655.18
553.67	28624.75
553.84	28797.95
554.01	28355.59
554.17	28629.43
554.34	28842.42
554.51	28641.14
554.67	28606.03
554.84	28587.30
555.00	28381.34
555.17	28280.69
555.33	28816.68
555.50	28584.96
555.67	28685.61
555.83	28797.95
556.00	28690.29
556.16	29186.48
556.33	28638.80
556.50	29116.26
556.66	29369.04
556.83	28727.74
556.99	29048.39
557.16	29109.24
557.32	28854.12
557.49	29165.42
557.65	28896.25
557.82	29139.67
557.98	28730.08
558.15	28776.89
558.32	29635.86
558.48	29003.92
558.65	28996.90
558.81	29092.86
558.98	29237.97
559.14	29127.97
559.31	28767.52
559.47	28926.68
559.64	28987.53
559.80	29202.86
559.97	29200.52
560.13	29223.93
560.30	29528.20
560.46	29502.45
560.63	29195.84
560.79	29125.63
560.96	29165.42
561.12	28884.55
561.29	29200.52
561.45	29371.38
561.61	29610.12
561.78	29701.40
561.94	29727.14
562.11	29579.69
562.27	29226.27
562.44	29689.70
562.60	29780.98
562.77	29474.37
562.93	29518.84
563.10	29703.74
563.26	29200.52
563.42	29790.34
563.59	29862.90
563.75	29991.62
563.92	29788.00
564.08	29977.58
564.24	29399.47
564.41	29692.04
564.57	29280.10
564.74	29923.75
564.90	29809.06
565.07	29778.64
565.23	29785.66
565.39	29923.75
565.56	30066.52
565.72	29699.06
565.88	29720.12
566.05	29406.49
566.21	29958.86
566.38	29706.08
566.54	30038.44
566.70	30059.50
566.87	30356.75
567.03	29879.28
567.19	30249.08
567.36	30487.82
567.52	29605.44
567.68	30106.31
567.85	29968.22
568.01	29603.10
568.17	29834.81
568.34	30054.82
568.50	30047.80
568.66	29790.34
568.83	30146.10
568.99	29975.24
569.15	30363.77
569.32	29914.39
569.48	29673.31
569.64	30000.99
569.81	30036.09
569.97	29961.20
570.13	30029.07
570.30	30253.76
570.46	30340.36
570.62	29755.23
570.78	30211.64
570.95	30230.36
571.11	30157.80
571.27	29720.12
571.43	30103.97
571.60	30174.19
571.76	29809.06
571.92	30307.60
572.09	30333.34
572.25	30218.66
572.41	30646.97
572.57	30302.92
572.74	30022.05
572.90	30199.93
573.06	30031.41
573.22	29954.18
573.38	30089.93
573.55	29975.24
573.71	30501.86
573.87	30827.20
574.03	30459.73
574.20	30129.72
574.36	30120.35
574.52	30424.62
574.68	30061.84
574.84	30614.21
575.01	30380.15
575.17	30436.33
575.33	30298.23
575.49	30218.66
575.65	30302.92
575.82	30511.22
575.98	30274.83
576.14	30543.99
576.30	30279.51
576.46	30059.50
576.62	30073.54
576.79	30382.49
576.95	30122.69
577.11	30483.14
577.27	30499.52
577.43	30443.35
577.59	30272.49
577.75	30473.78
577.92	30295.89
578.08	30398.88
578.24	30553.35
578.40	30223.34
578.56	30782.73
578.72	29972.90
578.88	30801.45
579.04	30698.47
579.21	30000.99
579.37	30438.67
579.53	30794.43
579.69	30190.57
579.85	30087.59
580.01	30335.68
580.17	30244.40
580.33	30366.11
580.49	30661.02
580.65	30417.60
580.82	30401.22
580.98	30483.14
581.14	30387.18
581.30	30768.68
581.46	30424.62
581.62	30419.94
581.78	30293.55
581.94	30396.54
582.10	30459.73
582.26	30448.03
582.42	30614.21
582.58	30663.36
582.74	30618.89
582.90	30972.31
583.06	30759.32
583.22	30616.55
583.38	30445.69
583.54	30417.60
583.70	30625.91
583.86	30668.04
584.02	30630.59
584.18	30829.54
584.34	31019.12
584.50	30796.77
584.66	30429.30
584.82	30499.52
584.98	30625.91
585.14	30642.29
585.30	30265.47
585.46	30607.19
585.62	30576.76
585.78	30190.57
585.94	30567.40
586.10	30632.93
586.26	31075.29
586.42	30445.69
586.58	30586.12
586.74	30242.06
586.90	30443.35
587.06	30483.14
587.22	30752.30
587.38	30485.48
587.54	31122.10
587.70	31227.43
587.86	31161.89
588.02	30754.64
588.18	31089.34
588.34	30703.15
588.49	31049.55
588.65	30700.81
588.81	30567.40
588.97	30859.96
589.13	30850.60
589.29	30785.07
589.45	30955.93
589.61	30764.00
589.77	31119.76
589.93	30871.67
590.08	30916.14
590.24	30756.98
590.40	30998.06
590.56	30831.88
590.72	30658.68
590.88	30764.00
591.04	30904.43
591.20	30941.88
591.35	31054.23
591.51	31400.63
591.67	31014.44
591.83	31412.33
591.99	31178.28
592.15	31051.89
592.31	30890.39
592.46	30927.84
592.62	31005.08
592.78	30888.05
592.94	31255.51
593.10	31026.14
593.26	31173.60
593.41	31185.30
593.57	31091.68
593.73	31115.08
593.89	31304.67
594.05	31222.75
594.20	30628.25
594.36	30834.22
594.52	30979.33
594.68	30700.81
594.84	30948.90
594.99	30787.41
595.15	30951.24
595.31	31138.49
595.47	31358.50
595.62	31152.53
595.78	30934.86
595.94	31009.76
596.10	30976.99
596.25	30946.56
596.41	30831.88
596.57	30735.92
596.73	31246.15
596.88	31049.55
597.04	31075.29
597.20	31360.84
597.36	31056.57
597.51	31384.24
597.67	31323.39
597.83	31042.53
597.99	31370.20
598.14	30925.50
598.30	30993.37
598.46	31115.08
598.61	31360.84
598.77	31318.71
598.93	31328.07
599.09	30941.88
599.24	31690.85
599.40	31377.22
599.56	31182.96
599.71	31192.32
599.87	31255.51
600.03	31302.32
600.18	31173.60
600.34	31119.76
600.50	31110.40
600.65	31005.08
600.81	31419.35
600.97	31594.89
601.12	31672.13
601.28	31454.46
601.44	31447.44
601.59	31445.10
601.75	31573.83
601.91	31346.79
602.06	31143.17
602.22	31171.25
602.37	31271.90
602.53	31299.98
602.69	31559.78
602.84	31016.78
603.00	31611.28
603.16	31138.49
603.31	31101.04
603.47	31164.23
603.62	31131.47
603.78	31524.68
603.94	31185.30
604.09	30960.61
604.25	30998.06
604.40	31262.54
604.56	31278.92
604.71	31484.89
604.87	30920.82
605.03	30834.22
605.18	31360.84
605.34	31063.59
605.49	31070.61
605.65	31536.38
605.80	30913.80
605.96	31260.20
606.12	30955.93
606.27	31232.11
606.43	31246.15
606.58	31192.32
606.74	31243.81
606.89	31421.69
607.05	31702.56
607.20	31353.82
607.36	31344.45
607.51	31545.74
607.67	31112.74
607.82	30862.30
607.98	31171.25
608.13	30548.67
608.29	31192.32
608.44	31276.58
608.60	31047.21
608.75	31421.69
608.91	31379.56
609.06	31082.31
609.22	31030.82
609.37	30822.51
609.53	31019.12
609.68	30775.70
609.84	30808.47
609.99	31079.97
610.15	30600.16
610.30	30700.81
610.46	30768.68
610.61	31026.14
610.76	31309.35
610.92	31105.72
611.07	31091.68
611.23	31168.91
611.38	30960.61
611.54	31058.91
611.69	30618.89
611.84	30792.09
612.00	30831.88
612.15	30756.98
612.31	30857.62
612.46	31023.80
612.62	30998.06
612.77	30789.75
612.92	31145.51
613.08	30625.91
613.23	30895.07
613.39	30567.40
613.54	30712.51
613.69	30677.40
613.85	30639.95
614.00	30759.32
614.15	30663.36
614.31	30270.15
614.46	30792.09
614.62	31087.00
614.77	30923.16
614.92	31040.18
615.08	30789.75
615.23	30719.53
615.38	30429.30
615.54	30604.84
615.69	30497.18
615.84	30216.32
616.00	30721.87
616.15	30253.76
616.30	30410.58
616.46	30555.69
616.61	30335.68
616.76	30689.10
616.92	30539.31
617.07	30586.12
617.22	30295.89
617.37	30230.36
617.53	30490.16
617.68	30132.06
617.83	29804.38
617.99	29867.58
618.14	29972.90
618.29	30328.66
618.45	30513.56
618.60	30225.68
618.75	30190.57
618.90	30478.46
619.06	30024.39
619.21	30043.12
619.36	30361.43
619.51	29766.93
619.67	30192.91
619.82	29921.41
619.97	30183.55
620.12	30050.14
620.28	30314.62
620.43	30213.98
620.58	30424.62
620.73	30499.52
620.89	30150.78
621.04	30338.02
621.19	30064.18
621.34	29841.83
621.49	29930.77
621.65	29635.86
621.80	29970.56
621.95	29551.60
622.10	30115.67
622.25	29542.24
622.41	29577.35
622.56	29837.15
622.71	30274.83
622.86	29893.32
623.01	29788.00
623.16	30094.61
623.32	29942.47
623.47	29937.79
623.62	29645.23
623.77	29713.10
623.92	30005.67
624.07	29479.05
624.23	29558.63
624.38	29427.56
624.53	29476.71
624.68	29984.60
624.83	29898.00
624.98	29439.26
625.13	29647.57
625.29	30106.31
625.44	29757.57
625.59	29465.00
625.74	29301.17
625.89	29415.85
626.04	29516.50
626.19	29273.08
626.34	29366.70
626.49	29233.29
626.65	29181.80
626.80	29191.16
626.95	29298.83
627.10	29359.68
627.25	29511.81
627.40	29209.89
627.55	29373.72
627.70	29195.84
627.85	29158.39
628.00	29378.40
628.15	28837.74
628.30	29186.48
628.45	28823.70
628.60	29010.94
628.76	29399.47
628.91	29153.71
629.06	29057.75
629.21	29434.58
629.36	29149.03
629.51	29223.93
629.66	28938.38
629.81	28538.15
629.96	28889.23
630.11	28514.75
630.26	28751.14
630.41	28479.64
630.56	28802.63
630.71	29069.45
630.86	28725.39
631.01	28947.75
631.16	28989.88
631.31	29039.03
631.46	28879.87
631.61	28945.41
631.76	28875.19
631.91	28851.78
632.06	28755.82
632.21	28709.01
632.36	28783.91
632.51	28844.76
632.66	28725.39
632.81	28477.30
632.96	28514.75
633.10	28535.81
633.25	28947.75
633.40	28734.76
633.55	28556.88
633.70	28418.78
633.85	28067.70
634.00	28493.68
634.15	28350.91
634.30	28563.90
634.45	28259.63
634.60	28163.67
634.75	28411.76
634.90	28259.63
635.05	28779.23
635.19	28552.20
635.34	28772.21
635.49	28599.01
635.64	28559.22
635.79	28458.57
635.94	28390.70
636.09	28254.95
636.24	27845.35
636.39	27868.76
636.53	28411.76
636.68	27789.18
636.83	28411.76
636.98	28231.54
637.13	28217.50
637.28	28283.03
637.43	28376.66
637.57	28231.54
637.72	28177.71
637.87	27941.32
638.02	28219.84
638.17	27796.20
638.32	27716.62
638.46	27971.74
638.61	27669.81
638.76	27894.50
638.91	27569.17
639.06	28219.84
639.20	28023.23
639.35	27990.47
639.50	28257.29
639.65	28046.64
639.80	27875.78
639.94	27821.95
640.09	27613.64
640.24	27763.43
640.39	27651.09
640.54	27529.38
640.68	27728.33
640.83	27777.48
640.98	27543.42
641.13	27566.83
641.27	28011.53
641.42	27529.38
641.57	27618.32
641.72	27393.63
641.86	27608.96
642.01	27278.94
642.16	27337.46
642.31	27412.35
642.45	27850.03
642.60	27428.74
642.75	27449.80
642.90	27424.06
643.04	27115.11
643.19	27248.52
643.34	27431.08
643.48	27414.69
643.63	27480.23
643.78	27590.24
643.93	27311.71
644.07	27241.50
644.22	27768.12
644.37	27225.11
644.51	27405.33
644.66	27339.80
644.81	26885.73
644.95	26986.38
645.10	27012.12
645.25	27505.98
645.39	27424.06
645.54	26714.87
645.69	26958.29
645.83	27407.67
645.98	27510.66
646.13	27307.03
646.27	27187.66
646.42	27178.30
646.57	26920.84
646.71	27386.61
646.86	27037.87
647.00	27094.04
647.15	27206.39
647.30	26909.14
647.44	27206.39
647.59	26953.61
647.74	27065.96
647.88	26794.45
648.03	27154.90
648.17	27213.41
648.32	27171.28
648.47	27044.89
648.61	27164.26
648.76	27056.59
648.90	26829.56
649.05	27072.98
649.20	26515.93
649.34	26583.80
649.49	26490.18
649.63	26862.33
649.78	26522.95
649.92	26487.84
650.07	26607.21
650.21	26560.40
650.36	26567.42
650.51	26565.08
650.65	26583.80
650.80	26918.50
650.94	26340.39
651.09	26403.58
651.23	26270.17
651.38	26036.12
651.52	26600.19
651.67	26356.77
651.81	26656.36
651.96	26295.92
652.10	26274.85
652.25	26504.23
652.39	26431.67
652.54	26654.02
652.68	26588.49
652.83	26483.16
652.97	26529.97
653.12	26206.98
653.26	26473.80
653.41	26527.63
653.55	26082.93
653.70	25832.49
653.84	26391.88
653.99	26050.16
654.13	26225.70
654.27	26326.35
654.42	26314.64
654.56	26375.50
654.71	26434.01
654.85	26412.95
655.00	26064.21
655.14	26015.05
655.29	26363.79
655.43	25865.26
655.57	25958.88
655.72	25600.78
655.86	25942.50
656.01	26148.46
656.15	25823.13
656.30	25802.07
656.44	26195.28
656.58	25624.18
656.73	25776.32
656.87	25352.68
657.01	25883.98
657.16	25905.05
657.30	25804.41
657.45	25858.24
657.59	26099.31
657.73	25633.55
657.88	25736.53
658.02	25450.99
658.16	25731.85
658.31	25724.83
658.45	25626.53
658.60	25628.87
658.74	25406.52
658.88	25720.15
659.03	25523.54
659.17	25600.78
659.31	25820.79
659.46	25369.07
659.60	25455.67
659.74	25481.41
659.89	25392.47
660.03	25584.40
660.17	25282.47
660.32	25200.55
660.46	25322.26
660.60	25167.78
660.74	25081.18
660.89	25170.12
661.03	25198.21
661.17	24802.66
661.32	25144.38
661.46	25090.54
661.60	25303.53
661.74	25132.67
661.89	24835.42
662.03	24915.00
662.17	25130.33
662.31	24966.49
662.46	24896.28
662.60	25071.82
662.74	25123.31
662.88	24655.20
663.03	24449.24
663.17	24676.27
663.31	24542.86
663.45	24795.64
663.60	24201.14
663.74	24369.66
663.88	24498.39
664.02	24638.82
664.17	24617.75
664.31	24599.03
664.45	24718.40
664.59	24453.92
664.73	24156.67
664.88	24489.03
665.02	24334.55
665.16	24170.71
665.30	24201.14
665.44	24065.39
665.59	23971.77
665.73	23707.29
665.87	23939.00
666.01	24144.97
666.15	24119.22
666.29	24151.99
666.44	24343.91
666.58	23828.99
666.72	23983.47
666.86	24144.97
667.00	23885.17
667.14	23695.58
667.28	23779.84
667.43	23571.54
667.57	24067.73
667.71	23396.00
667.85	23360.89
667.99	23541.11
668.13	23239.18
668.27	23548.13
668.41	23730.69
668.56	23344.50
668.70	23714.31
668.84	23758.78
668.98	23297.69
669.12	23559.83
669.26	23468.55
669.40	23058.96
669.54	23264.92
669.68	23419.40
669.82	22838.95
669.96	22806.18
670.10	22838.95
670.25	22916.19
670.39	22717.24
670.53	22675.11
670.67	22895.12
670.81	22930.23
670.95	22916.19
671.09	22843.63
671.23	22808.52
671.37	22625.96
671.51	22824.90
671.65	22792.14
671.79	22881.08
671.93	22738.30
672.07	22632.98
672.21	22518.29
672.35	22422.33
672.49	22216.36
672.63	22249.13
672.77	22075.93
672.91	22258.49
673.05	22223.39
673.19	22253.81
673.33	22024.44
673.47	22169.55
673.61	22207.00
673.75	21996.35
673.89	22068.91
674.03	21844.22
674.17	21989.33
674.31	21834.86
674.45	22244.45
674.59	21710.81
674.73	21654.64
674.87	21586.76
675.01	21645.27
675.15	21776.34
675.29	21535.27
675.43	21443.99
675.56	21303.56
675.70	21392.50
675.84	21420.58
675.98	20688.00
676.12	21610.17
676.26	21589.10
676.40	21479.10
676.54	21193.55
676.68	21270.79
676.82	20975.88
676.96	20903.32
677.10	20718.42
677.23	20964.18
677.37	20793.32
677.51	20800.34
677.65	20802.68
677.79	20556.93
677.93	20533.52
678.07	20350.96
678.21	20264.36
678.34	20486.71
678.48	20077.12
678.62	20500.75
678.76	20327.55
678.90	19840.72
679.04	20063.07
679.18	20152.01
679.31	19913.28
679.45	19885.19
679.59	19613.69
679.73	19522.41
679.87	19536.45
680.00	19779.87
680.14	19623.05
680.28	19424.11
680.42	19381.98
680.56	19599.65
680.70	19332.82
680.83	19548.15
680.97	19421.77
681.11	19166.65
681.25	19286.01
681.39	19264.95
681.52	19051.96
681.66	18778.12
681.80	18874.08
681.94	18831.95
682.07	18747.69
682.21	18586.19
682.35	18890.46
682.49	18733.65
682.62	18525.34
682.76	18515.98
682.90	18345.12
683.04	18625.98
683.17	18581.51
683.31	18263.20
683.45	18438.74
683.59	18384.91
683.72	18504.28
683.86	18420.02
684.00	18129.79
684.13	18143.83
684.27	18059.57
684.41	17951.91
684.55	17912.12
684.68	17872.33
684.82	17495.50
684.96	17563.38
685.09	17743.60
685.23	17741.26
685.37	17680.41
685.50	17820.84
685.64	17516.57
685.78	17631.26
685.91	17460.40
686.05	17240.39
686.19	17221.66
686.32	17378.48
686.46	16819.09
686.60	16713.77
686.73	16985.27
686.87	16891.65
687.01	16748.87
687.14	16910.37
687.28	16727.81
687.42	16580.36
687.55	16739.51
687.69	16828.45
687.82	16264.38
687.96	16329.92
688.10	16346.30
688.23	16348.64
688.37	16737.17
688.50	16641.21
688.64	16238.64
688.78	16226.93
688.91	16133.31
689.05	16208.21
689.18	16042.03
689.32	15679.25
689.46	15882.88
689.59	15735.42
689.73	15866.49
689.86	15798.62
690.00	15559.88
690.13	15983.52
690.27	15620.74
690.41	15864.15
690.54	15681.59
690.68	15557.54
690.81	15445.20
690.95	15597.33
691.08	15358.60
691.22	15454.56
691.35	15297.74
691.49	15346.89
691.62	15290.72
691.76	14937.30
691.89	15026.24
692.03	14892.83
692.16	14810.91
692.30	14764.10
692.43	14764.10
692.57	14516.00
692.70	14747.72
692.84	14691.54
692.97	14534.73
693.11	14494.94
693.24	14356.85
693.38	14356.85
693.51	14176.62
693.65	14300.67
693.78	14197.69
693.92	14406.00
694.05	14398.98
694.19	14040.87
694.32	13820.86
694.45	13853.63
694.59	13647.66
694.72	14003.43
694.86	13678.09
694.99	13425.31
695.13	13738.94
695.26	13532.98
695.39	13476.80
695.53	13593.83
695.66	13329.35
695.80	13465.10
695.93	13591.49
696.07	13565.74
696.20	13336.37
696.33	13315.31
696.47	13125.72
696.60	13298.92
696.73	13184.24
696.87	12975.93
697.00	13018.06
697.14	12854.22
697.27	12582.72
697.40	12599.10
697.54	12603.78
697.67	12622.51
697.80	12695.07
697.94	12652.94
698.07	12229.30
698.21	12470.37
698.34	12437.61
698.47	12493.78
698.61	12468.03
698.74	12276.11
698.87	12435.27
699.01	12226.96
699.14	12154.40
699.27	11913.33
699.40	12414.20
699.54	12074.82
699.67	11751.83
699.80	11791.62
699.94	11889.92
700.07	11882.90
700.20	11733.11
700.34	11318.83
700.47	11618.42
700.60	11627.78
700.73	11564.59
700.87	11449.90
701.00	11489.69
701.13	11473.31
701.26	11414.79
701.40	11438.20
701.53	11255.64
701.66	11562.25
701.79	11236.91
701.93	11131.59
702.06	11143.29
702.19	10998.18
702.32	10700.93
702.46	10939.66
702.59	10918.60
702.72	10513.69
702.85	10656.46
702.99	10750.08
703.12	10724.33
703.25	10401.34
703.38	10714.97
703.51	10516.03
703.65	10621.35
703.78	10630.71
703.91	10487.94
704.04	10483.26
704.17	10436.45
704.31	10331.12
704.44	10078.35
704.57	10279.63
704.70	10115.80
704.83	10239.84
704.96	10097.07
705.10	9989.41
705.23	9935.57
>>>>>End Processed Spectral Data<<<<<
