SpectraSuite Data File
++++++++++++++++++++++++++++++++++++
Date: Fri Oct 18 13:58:23 GMT-05:00 2013
User: bianchi
Dark Spectrum Present: No
Reference Spectrum Present: No
Number of Sampled Component Spectra: 1
Spectrometers: USB2+H05261
Integration Time (usec): 50000 (USB2+H05261)
Spectra Averaged: 1 (USB2+H05261)
Boxcar Smoothing: 0 (USB2+H05261)
Correct for Electrical Dark: No (USB2+H05261)
Strobe/Lamp Enabled: No (USB2+H05261)
Correct for Detector Non-linearity: No (USB2+H05261)
Correct for Stray Light: No (USB2+H05261)
Number of Pixels in Processed Spectrum: 2048
>>>>>Begin Processed Spectral Data<<<<<
365.73	0.00
365.92	0.00
366.12	0.00
366.32	0.00
366.52	0.00
366.72	0.00
366.91	0.00
367.11	0.00
367.31	0.00
367.51	0.00
367.70	0.00
367.90	0.00
368.10	0.00
368.30	0.00
368.49	0.00
368.69	0.00
368.89	0.00
369.09	0.00
369.28	0.00
369.48	0.00
369.68	0.00
369.87	0.00
370.07	0.00
370.27	0.00
370.47	0.00
370.66	0.00
370.86	77.24
371.06	95.96
371.25	147.45
371.45	117.03
371.65	124.05
371.84	152.13
372.04	154.48
372.24	159.16
372.44	212.99
372.63	191.92
372.83	196.60
373.03	161.50
373.22	180.22
373.42	217.67
373.62	229.37
373.81	222.35
374.01	257.46
374.21	294.91
374.40	222.35
374.60	173.20
374.79	229.37
374.99	248.10
375.19	248.10
375.38	140.43
375.58	311.29
375.78	255.12
375.97	339.38
376.17	325.33
376.37	255.12
376.56	320.65
376.76	205.97
376.95	287.89
377.15	271.50
377.35	315.97
377.54	351.08
377.74	203.63
377.93	205.97
378.13	243.42
378.33	299.59
378.52	278.52
378.72	241.08
378.91	297.25
379.11	266.82
379.31	201.29
379.50	334.70
379.70	339.38
379.89	337.04
380.09	273.84
380.28	308.95
380.48	367.46
380.68	262.14
380.87	220.01
381.07	320.65
381.26	283.20
381.46	341.72
381.65	348.74
381.85	271.50
382.04	344.06
382.24	355.76
382.43	339.38
382.63	280.86
382.83	304.27
383.02	447.04
383.22	351.08
383.41	304.27
383.61	355.76
383.80	376.83
384.00	369.80
384.19	383.85
384.39	376.83
384.58	428.32
384.78	409.59
384.97	428.32
385.17	390.87
385.36	367.46
385.56	435.34
385.75	402.57
385.95	379.17
386.14	374.49
386.34	383.85
386.53	425.98
386.72	344.06
386.92	418.96
387.11	435.34
387.31	381.51
387.50	381.51
387.70	430.66
387.89	418.96
388.09	423.64
388.28	388.53
388.48	465.77
388.67	451.72
388.86	447.04
389.06	433.00
389.25	519.60
389.45	447.04
389.64	475.13
389.84	491.51
390.03	437.68
390.22	482.15
390.42	421.30
390.61	465.77
390.81	582.79
391.00	505.56
391.19	428.32
391.39	503.22
391.58	475.13
391.78	517.26
391.97	575.77
392.16	561.73
392.36	545.34
392.55	498.53
392.75	580.45
392.94	486.83
393.13	573.43
393.33	507.90
393.52	578.11
393.71	540.66
393.91	470.45
394.10	573.43
394.29	519.60
394.49	582.79
394.68	554.71
394.88	557.05
395.07	643.65
395.26	559.39
395.46	638.97
395.65	594.50
395.84	599.18
396.04	622.58
396.23	664.71
396.42	608.54
396.62	716.20
396.81	709.18
397.00	690.46
397.19	648.33
397.39	741.95
397.58	718.54
397.77	699.82
397.97	732.59
398.16	737.27
398.35	685.78
398.55	709.18
398.74	709.18
398.93	718.54
399.12	702.16
399.32	727.91
399.51	699.82
399.70	746.63
399.90	636.63
400.09	779.40
400.28	805.14
400.47	826.21
400.67	770.04
400.86	819.19
401.05	851.96
401.24	924.51
401.44	858.98
401.63	793.44
401.82	807.48
402.01	791.10
402.21	903.45
402.40	854.30
402.59	791.10
402.78	774.72
402.97	929.19
403.17	866.00
403.36	800.46
403.55	828.55
403.74	884.72
403.93	814.51
404.13	917.49
404.32	844.93
404.51	983.02
404.70	957.28
404.89	884.72
405.09	933.87
405.28	901.11
405.47	968.98
405.66	929.19
405.85	968.98
406.05	938.55
406.24	1025.15
406.43	954.94
406.62	1057.92
406.81	1078.99
407.00	1025.15
407.20	943.24
407.39	987.71
407.58	1039.20
407.77	1046.22
407.96	1036.86
408.15	999.41
408.34	968.98
408.54	1060.26
408.73	1041.54
408.92	1107.07
409.11	1144.52
409.30	1088.35
409.49	1081.33
409.68	1165.59
409.87	1104.73
410.07	1118.78
410.26	1200.69
410.45	1266.23
410.64	1214.74
410.83	1254.53
411.02	1256.87
411.21	1198.35
411.40	1294.32
411.59	1259.21
411.78	1301.34
411.98	1371.55
412.17	1280.27
412.36	1343.47
412.55	1331.76
412.74	1345.81
412.93	1301.34
413.12	1263.89
413.31	1338.79
413.50	1355.17
413.69	1479.22
413.88	1427.73
414.07	1425.39
414.26	1558.80
414.45	1479.22
414.64	1355.17
414.83	1418.36
415.02	1551.78
415.22	1504.96
415.41	1598.59
415.60	1530.71
415.79	1554.12
415.98	1577.52
416.17	1647.74
416.36	1490.92
416.55	1577.52
416.74	1610.29
416.93	1607.95
417.12	1736.68
417.31	1619.65
417.50	1724.97
417.69	1769.44
417.88	1706.25
418.07	1668.80
418.26	1858.39
418.45	1678.16
418.64	1746.04
418.83	1743.70
419.02	1804.55
419.21	1806.89
419.39	1849.02
419.58	1785.83
419.77	1778.81
419.96	1811.57
420.15	1921.58
420.34	1860.73
420.53	1839.66
420.72	1956.69
420.91	1959.03
421.10	1984.77
421.29	2057.33
421.48	1961.37
421.67	1989.46
421.86	1886.47
422.05	1923.92
422.24	1980.09
422.43	2026.90
422.61	1909.88
422.80	1916.90
422.99	1916.90
423.18	2080.74
423.37	2078.40
423.56	2153.29
423.75	1970.73
423.94	1966.05
424.13	1839.66
424.32	1952.01
424.50	2148.61
424.69	2099.46
424.88	2167.34
425.07	1926.26
425.26	1952.01
425.45	2012.86
425.64	2069.03
425.83	2026.90
426.01	2043.29
426.20	2078.40
426.39	2153.29
426.58	2031.58
426.77	2115.84
426.96	2113.50
427.15	2153.29
427.33	2057.33
427.52	2024.56
427.71	2111.16
427.90	2134.57
428.09	2153.29
428.28	2270.32
428.46	2139.25
428.65	2237.55
428.84	2277.34
429.03	2303.09
429.22	2174.36
429.40	2270.32
429.59	2319.47
429.78	2101.80
429.97	2090.10
430.16	2286.70
430.34	2377.98
430.53	2377.98
430.72	2363.94
430.91	2312.45
431.10	2375.64
431.28	2335.85
431.47	2326.49
431.66	2495.01
431.85	2497.35
432.03	2459.90
432.22	2539.48
432.41	2450.54
432.60	2452.88
432.79	2387.35
432.97	2349.90
433.16	2499.69
433.35	2480.97
433.54	2548.84
433.72	2555.86
433.91	2448.20
434.10	2483.31
434.28	2525.44
434.47	2717.36
434.66	2679.91
434.85	2509.05
435.03	2541.82
435.22	2668.21
435.41	2738.43
435.59	2729.06
435.78	2593.31
435.97	2656.51
436.16	2548.84
436.34	2733.75
436.53	2726.72
436.72	2686.94
436.90	2623.74
437.09	2808.64
437.28	2733.75
437.46	2768.85
437.65	2869.50
437.84	2745.45
438.02	2825.03
438.21	2773.53
438.40	2733.75
438.58	2932.69
438.77	2895.24
438.96	2808.64
439.14	2963.12
439.33	2818.00
439.52	3054.40
439.70	2902.26
439.89	3052.06
440.08	3035.67
440.26	3030.99
440.45	3049.72
440.63	3150.36
440.82	3218.24
441.01	3019.29
441.19	3176.11
441.38	3166.74
441.57	3208.87
441.75	3105.89
441.94	3375.05
442.12	3405.48
442.31	3316.54
442.50	3361.01
442.68	3325.90
442.87	3288.45
443.05	3433.57
443.24	3358.67
443.43	3391.44
443.61	3363.35
443.80	3534.21
443.98	3410.16
444.17	3297.81
444.35	3489.74
444.54	3379.73
444.73	3480.38
444.91	3419.52
445.10	3508.46
445.28	3466.33
445.47	3356.33
445.65	3499.10
445.84	3581.02
446.02	3517.83
446.21	3506.12
446.39	3527.19
446.58	3520.17
446.77	3531.87
446.95	3403.14
447.14	3468.67
447.32	3463.99
447.51	3442.93
447.69	3454.63
447.88	3454.63
448.06	3609.11
448.25	3524.85
448.43	3564.64
448.62	3536.55
448.80	3552.93
448.99	3688.68
449.17	3749.54
449.36	3597.40
449.54	3700.39
449.73	3747.20
449.91	3730.81
450.10	3756.56
450.28	3822.09
450.46	3789.33
450.65	3688.68
450.83	3796.35
451.02	3737.84
451.20	3920.40
451.39	3768.26
451.57	3864.22
451.76	3829.12
451.94	3744.86
452.13	3871.25
452.31	3889.97
452.49	3681.66
452.68	3985.93
452.86	3845.50
453.05	3852.52
453.23	4074.87
453.42	3730.81
453.60	3904.01
453.78	3946.14
453.97	3854.86
454.15	4007.00
454.34	4007.00
454.52	4131.05
454.70	3936.78
454.89	4074.87
455.07	4084.23
455.26	4107.64
455.44	4105.30
455.62	4166.15
455.81	4023.38
455.99	4255.09
456.17	4219.99
456.36	4191.90
456.54	4306.59
456.73	4262.12
456.91	4297.22
457.09	4222.33
457.28	4463.40
457.46	4238.71
457.64	4400.21
457.83	4402.55
458.01	4388.50
458.19	4393.19
458.38	4362.76
458.56	4519.57
458.74	4470.42
458.93	4393.19
459.11	4341.69
459.29	4454.04
459.48	4582.77
459.66	4435.32
459.84	4676.39
460.03	4709.16
460.21	4594.47
460.39	4379.14
460.57	4519.57
460.76	4657.67
460.94	4603.83
461.12	4704.48
461.31	4615.54
461.49	4718.52
461.67	4592.13
461.85	4751.29
462.04	4786.40
462.22	4788.74
462.40	4706.82
462.59	4793.42
462.77	4692.77
462.95	4814.48
463.13	4802.78
463.32	4861.29
463.50	4760.65
463.68	4933.85
463.86	4947.89
464.05	4755.97
464.23	4861.29
464.41	4772.35
464.59	4844.91
464.78	5085.98
464.96	4889.38
465.14	5018.11
465.32	5029.81
465.50	5055.56
465.69	5144.50
465.87	5060.24
466.05	5060.24
466.23	5184.29
466.41	5151.52
466.60	5093.01
466.78	4994.70
466.96	5053.22
467.14	5060.24
467.32	5060.24
467.51	5212.37
467.69	5008.75
467.87	5191.31
468.05	5076.62
468.23	5053.22
468.41	5193.65
468.60	5341.10
468.78	5280.25
468.96	5121.09
469.14	5224.08
469.32	5364.51
469.50	5308.34
469.69	5324.72
469.87	5605.58
470.05	5437.06
470.23	5518.98
470.41	5444.09
470.59	5446.43
470.77	5467.49
470.95	5416.00
471.14	5500.26
471.32	5526.00
471.50	5671.12
471.68	5579.84
471.86	5558.77
472.04	5659.42
472.22	5863.04
472.40	5551.75
472.58	5706.23
472.77	5760.06
472.95	5767.08
473.13	5949.64
473.31	5827.93
473.49	5891.13
473.67	5870.06
473.85	5893.47
474.03	6101.78
474.21	5951.98
474.39	6071.35
474.57	6057.31
474.75	6244.55
474.93	6209.44
475.12	6218.80
475.30	6078.37
475.48	6134.54
475.66	6155.61
475.84	6347.53
476.02	6382.64
476.20	6293.70
476.38	6487.96
476.56	6565.20
476.74	6689.25
476.92	6579.25
477.10	6537.12
477.28	6839.05
477.46	6558.18
477.64	6633.08
477.82	6836.70
478.00	6963.09
478.18	6998.20
478.36	6958.41
478.54	7012.24
478.72	7056.72
478.90	7208.85
479.08	7213.53
479.26	7112.89
479.44	7424.18
479.62	7428.86
479.80	7396.09
479.98	7616.10
480.16	7618.44
480.34	7538.87
480.52	7676.96
480.70	7590.36
480.88	7733.13
481.06	7796.32
481.24	7845.48
481.41	7896.97
481.59	7971.86
481.77	7997.61
481.95	8077.19
482.13	8138.04
482.31	8039.74
482.49	8318.26
482.67	8226.98
482.85	8362.73
483.03	8458.70
483.21	8734.88
483.39	8631.90
483.57	8690.41
483.74	8730.20
483.92	8767.65
484.10	8837.86
484.28	8695.09
484.46	8985.32
484.64	9200.65
484.82	9076.60
485.00	9139.79
485.18	9284.91
485.35	9434.70
485.53	9404.27
485.71	9647.69
485.89	9706.20
486.07	9451.08
486.25	9696.84
486.43	9738.97
486.61	9760.03
486.78	9905.15
486.96	10036.22
487.14	10031.54
487.32	10101.75
487.50	10129.84
487.68	10228.14
487.85	10331.12
488.03	10548.79
488.21	10738.38
488.39	10878.81
488.57	10539.43
488.75	10820.30
488.92	10860.09
489.10	10977.11
489.28	11119.89
489.46	11084.78
489.64	11089.46
489.81	11398.41
489.99	11169.04
490.17	11372.66
490.35	11405.43
490.53	11637.14
490.70	11676.93
490.88	11709.70
491.06	11662.89
491.24	11845.45
491.41	11744.81
491.59	12088.87
491.77	12046.74
491.95	12121.63
492.13	12329.94
492.30	12425.90
492.48	12313.56
492.66	12423.56
492.84	12517.18
493.01	12599.10
493.19	12863.58
493.37	12847.20
493.54	12798.05
493.72	13067.21
493.90	12854.22
494.08	12968.91
494.25	13153.81
494.43	13317.65
494.61	13373.82
494.79	13558.72
494.96	13380.84
495.14	13352.76
495.32	13584.47
495.49	13830.23
495.67	13666.39
495.85	13717.88
496.02	14024.49
496.20	13984.70
496.38	14181.31
496.55	13933.21
496.73	14637.71
496.91	13961.30
497.09	14200.03
497.26	14623.67
497.44	14370.89
497.62	14497.28
497.79	14782.82
497.97	14626.01
498.14	14658.78
498.32	14941.98
498.50	15037.94
498.67	14904.53
498.85	14953.68
499.03	15234.55
499.20	15016.88
499.38	15176.03
499.56	15311.78
499.73	15405.41
499.91	15393.70
500.08	15611.37
500.26	15330.51
500.44	15538.82
500.61	15775.21
500.79	15536.48
500.97	15868.83
501.14	15910.96
501.32	15950.75
501.49	15779.89
501.67	15845.43
501.84	15889.90
502.02	15747.12
502.20	16009.26
502.37	16360.34
502.55	16287.79
502.72	16248.00
502.90	16486.73
503.07	16273.74
503.25	16432.90
503.43	16283.11
503.60	16688.02
503.78	16666.95
503.95	16634.19
504.13	16957.18
504.30	17013.35
504.48	16610.78
504.65	16652.91
504.83	17130.38
505.01	17240.39
505.18	17015.69
505.36	17144.42
505.53	17020.38
505.71	17188.89
505.88	17092.93
506.06	17039.10
506.23	17352.73
506.41	17193.58
506.58	17514.23
506.76	17589.13
506.93	17579.76
507.11	17774.03
507.28	17633.60
507.46	17406.56
507.63	17774.03
507.81	18094.68
507.98	17909.78
508.16	18024.47
508.33	17982.34
508.50	18160.22
508.68	18295.97
508.85	18136.81
509.03	18148.51
509.20	18148.51
509.38	18698.54
509.55	18335.76
509.73	18553.43
509.90	18724.29
510.08	18469.17
510.25	18370.86
510.42	18649.39
510.60	18647.05
510.77	18764.07
510.95	18792.16
511.12	18721.95
511.30	18789.82
511.47	19173.67
511.64	18843.65
511.82	19091.75
511.99	19014.51
512.17	19047.28
512.34	19091.75
512.51	19204.10
512.69	19215.80
512.86	19187.71
513.04	19639.44
513.21	19639.44
513.38	19711.99
513.56	19417.08
513.73	19337.51
513.90	19482.62
514.08	19625.39
514.25	19960.09
514.43	19618.37
514.60	19829.02
514.77	19962.43
514.95	20184.78
515.12	19964.77
515.29	19880.51
515.47	20159.03
515.64	20360.32
515.81	20240.95
515.99	20306.49
516.16	20367.34
516.33	20294.79
516.51	20489.05
516.68	20091.16
516.85	20559.27
517.03	20521.82
517.20	20458.62
517.37	20812.04
517.54	20849.49
517.72	20673.95
517.89	20730.12
518.06	20929.07
518.24	20767.57
518.41	20940.77
518.58	20992.26
518.75	20875.24
518.93	21280.15
519.10	21090.57
519.27	21329.30
519.45	21032.05
519.62	21001.63
519.79	21245.04
519.96	21226.32
520.14	21273.13
520.31	21408.88
520.48	21268.45
520.65	21310.58
520.83	21895.71
521.00	21612.51
521.17	21809.11
521.34	21694.43
521.52	21905.07
521.69	21624.21
521.86	21860.60
522.03	22106.36
522.20	21923.80
522.38	22008.06
522.55	21816.13
522.72	21888.69
522.89	22178.92
523.07	22302.96
523.24	22235.09
523.41	22207.00
523.58	22120.40
523.75	22221.05
523.92	22136.79
524.10	22204.66
524.27	22616.60
524.44	22682.13
524.61	22808.52
524.78	22532.34
524.96	22586.17
525.13	22684.47
525.30	22548.72
525.47	22670.43
525.64	22878.74
525.81	22572.13
525.98	23026.19
526.16	23211.09
526.33	23044.91
526.50	22845.97
526.67	22602.55
526.84	22808.52
527.01	23407.70
527.18	22963.00
527.36	23400.68
527.53	23302.37
527.70	23454.51
527.87	23403.02
528.04	23344.50
528.21	23370.25
528.38	23353.87
528.55	23651.11
528.72	23349.18
528.89	23620.69
529.07	23456.85
529.24	23520.04
529.41	23686.22
529.58	23653.45
529.75	23403.02
529.92	23737.71
530.09	23831.33
530.26	23798.57
530.43	23931.98
530.60	23950.70
530.77	23854.74
530.94	23702.61
531.11	23936.66
531.28	24332.21
531.46	24091.13
531.63	23742.39
531.80	24222.20
531.97	24212.84
532.14	24053.69
532.31	24100.50
532.48	24311.14
532.65	24077.09
532.82	24390.72
532.99	24456.26
533.16	24175.39
533.33	24570.94
533.50	24751.17
533.67	24610.73
533.84	24496.05
534.01	24599.03
534.18	24395.40
534.35	24723.08
534.52	24559.24
534.69	24968.84
534.86	24903.30
535.03	24926.71
535.20	25015.65
535.37	24706.70
535.54	25179.48
535.71	24875.21
535.88	24900.96
536.05	24713.72
536.22	25085.86
536.38	25287.15
536.55	25013.31
536.72	25245.02
536.89	25097.56
537.06	25469.71
537.23	24837.76
537.40	25081.18
537.57	25472.05
537.74	25053.09
537.91	25626.53
538.08	25549.29
538.25	25343.32
538.42	25514.18
538.59	25500.14
538.75	25268.42
538.92	25500.14
539.09	25816.11
539.26	25724.83
539.43	25708.44
539.60	25659.29
539.77	25549.29
539.94	25862.92
540.11	25713.13
540.28	26038.46
540.44	25549.29
540.61	25752.91
540.78	25790.36
540.95	25818.45
541.12	26012.71
541.29	25839.51
541.46	26129.74
541.62	25933.14
541.79	26141.44
541.96	25827.81
542.13	25764.62
542.30	26136.76
542.47	26260.81
542.63	26183.57
542.80	26359.11
542.97	26340.39
543.14	26618.91
543.31	26225.70
543.48	26197.62
543.64	26838.92
543.81	26958.29
543.98	26859.99
544.15	26560.40
544.32	26759.34
544.48	27112.77
544.65	26487.84
544.82	26614.23
544.99	26518.27
545.16	26721.90
545.32	26785.09
545.49	26625.93
545.66	27332.78
545.83	26895.10
546.00	27349.16
546.16	27124.47
546.33	26941.91
546.50	26773.39
546.67	27204.05
546.83	26541.68
547.00	27115.11
547.17	27145.53
547.34	26969.99
547.50	27154.90
547.67	27435.76
547.84	27267.24
548.00	27353.84
548.17	27386.61
548.34	27087.02
548.51	27442.78
548.67	27538.74
548.84	27494.27
549.01	27145.53
549.18	27541.08
549.34	27370.22
549.51	27232.13
549.68	27248.52
549.84	27330.44
550.01	27594.92
550.18	27395.97
550.34	27641.73
550.51	27494.27
550.68	27587.89
550.84	27391.29
551.01	27658.11
551.18	27524.70
551.34	27704.92
551.51	27618.32
551.68	27618.32
551.84	27704.92
552.01	27571.51
552.18	27871.10
552.34	27821.95
552.51	27976.42
552.68	27915.57
552.84	27868.76
553.01	27805.56
553.18	27892.16
553.34	28266.65
553.51	28437.51
553.67	28051.32
553.84	28229.20
554.01	28226.86
554.17	28500.70
554.34	28009.19
554.51	28315.80
554.67	28402.40
554.84	28371.97
555.00	28601.35
555.17	28528.79
555.33	28774.55
555.50	28261.97
555.67	28182.39
555.83	28425.81
556.00	28664.54
556.16	28610.71
556.33	28362.61
556.50	28371.97
556.66	28566.24
556.83	28734.76
556.99	28716.03
557.16	28943.06
557.32	28968.81
557.49	28624.75
557.65	28453.89
557.82	28379.00
557.98	28439.85
558.15	28680.92
558.32	28559.22
558.48	28566.24
558.65	28613.05
558.81	28814.34
558.98	28535.81
559.14	29282.44
559.31	28718.37
559.47	28830.72
559.64	28889.23
559.80	28933.70
559.97	28669.22
560.13	29001.58
560.30	28701.99
560.46	28737.10
560.63	29287.12
560.79	28802.63
560.96	29479.05
561.12	29371.38
561.29	29074.13
561.45	29132.65
561.61	29024.98
561.78	29097.54
561.94	29167.76
562.11	29104.56
562.27	28929.02
562.44	29233.29
562.60	29032.00
562.77	29013.28
562.93	28961.79
563.10	29116.26
563.26	29479.05
563.42	29453.30
563.59	29385.43
563.75	29226.27
563.92	29315.21
564.08	28912.64
564.24	29167.76
564.41	29139.67
564.57	29003.92
564.74	29280.10
564.90	29397.13
565.07	29317.55
565.23	29514.16
565.39	29345.64
565.56	29394.79
565.72	28985.19
565.88	29106.90
566.05	29116.26
566.21	29467.34
566.38	29116.26
566.54	29617.14
566.70	29710.76
566.87	29607.78
567.03	29551.60
567.19	30010.35
567.36	29240.31
567.52	29809.06
567.68	29549.26
567.85	29172.44
568.01	29495.43
568.17	29259.04
568.34	29652.25
568.50	29591.39
568.66	29553.94
568.83	29862.90
568.99	29565.65
569.15	29610.12
569.32	29266.06
569.48	29694.38
569.64	29432.24
569.81	29701.40
569.97	29762.25
570.13	29965.88
570.30	29699.06
570.46	29575.01
570.62	29539.90
570.78	29582.03
570.95	29268.40
571.11	29582.03
571.27	29755.23
571.43	29628.84
571.60	29333.93
571.76	29783.32
571.92	29729.48
572.09	29649.91
572.25	29734.17
572.41	29844.17
572.57	30307.60
572.74	30113.33
572.90	29390.11
573.06	29727.14
573.22	30167.16
573.38	29813.74
573.55	29977.58
573.71	29993.97
573.87	29804.38
574.03	29680.33
574.20	29905.02
574.36	29567.99
574.52	29621.82
574.68	29788.00
574.84	29851.19
575.01	29919.07
575.17	30199.93
575.33	29923.75
575.49	29816.08
575.65	30008.01
575.82	30239.72
575.98	29834.81
576.14	30064.18
576.30	29951.84
576.46	29809.06
576.62	30050.14
576.79	29820.77
576.95	29993.97
577.11	30029.07
577.27	29979.92
577.43	30223.34
577.59	30064.18
577.75	29802.04
577.92	30101.63
578.08	29848.85
578.24	29809.06
578.40	30012.69
578.56	29912.05
578.72	30094.61
578.88	30377.81
579.04	30469.09
579.21	30054.82
579.37	29799.70
579.53	29823.11
579.69	30054.82
579.85	29357.34
580.01	29961.20
580.17	29628.84
580.33	29804.38
580.49	30192.91
580.65	30441.01
580.82	30143.76
580.98	29977.58
581.14	30010.35
581.30	30176.53
581.46	29771.61
581.62	30113.33
581.78	29905.02
581.94	30080.56
582.10	29640.54
582.26	29717.78
582.42	30120.35
582.58	30075.88
582.74	29986.94
582.90	29975.24
583.06	30340.36
583.22	30146.10
583.38	30092.27
583.54	30150.78
583.70	30132.06
583.86	30225.68
584.02	30059.50
584.18	30115.67
584.34	30164.82
584.50	30197.59
584.66	30464.41
584.82	29799.70
584.98	30396.54
585.14	30050.14
585.30	30143.76
585.46	30038.44
585.62	30057.16
585.78	30199.93
585.94	29771.61
586.10	29902.68
586.26	30424.62
586.42	29869.92
586.58	30263.13
586.74	30244.40
586.90	29958.86
587.06	30188.23
587.22	30143.76
587.38	29865.24
587.54	30141.42
587.70	30075.88
587.86	30478.46
588.02	30565.06
588.18	30155.46
588.34	30319.30
588.49	30061.84
588.65	30525.27
588.81	29996.31
588.97	30087.59
589.13	30398.88
589.29	30356.75
589.45	30134.40
589.61	30682.08
589.77	30305.26
589.93	30604.84
590.08	30546.33
590.24	30682.08
590.40	30483.14
590.56	30614.21
590.72	30590.80
590.88	30139.08
591.04	30354.41
591.20	30628.25
591.35	30731.23
591.51	30382.49
591.67	30874.01
591.83	31089.34
591.99	30593.14
592.15	30590.80
592.31	30602.50
592.46	30976.99
592.62	30129.72
592.78	30167.16
592.94	30583.78
593.10	30572.08
593.26	30607.19
593.41	30553.35
593.57	30780.39
593.73	30799.11
593.89	30991.03
594.05	30607.19
594.20	30639.95
594.36	30541.65
594.52	30106.31
594.68	30284.19
594.84	30426.96
594.99	30391.86
595.15	30464.41
595.31	30838.90
595.47	30625.91
595.62	30881.03
595.78	30703.15
595.94	30433.99
596.10	30649.32
596.25	30445.69
596.41	30480.80
596.57	30068.86
596.73	30906.77
596.88	30469.09
597.04	30944.22
597.20	30693.79
597.36	30885.71
597.51	30998.06
597.67	30939.54
597.83	30719.53
597.99	31037.84
598.14	30511.22
598.30	30457.39
598.46	30443.35
598.61	30883.37
598.77	30710.17
598.93	30925.50
599.09	30892.73
599.24	31072.95
599.40	31058.91
599.56	31136.15
599.71	31166.57
599.87	30937.20
600.03	30831.88
600.18	30314.62
600.34	30925.50
600.50	30749.96
600.65	30408.24
600.81	31281.26
600.97	31047.21
601.12	30866.98
601.28	30756.98
601.44	30941.88
601.59	31117.42
601.75	30646.97
601.91	31133.81
602.06	30450.37
602.22	30719.53
602.37	30719.53
602.53	30494.84
602.69	30934.86
602.84	30803.79
603.00	30864.64
603.16	30855.28
603.31	30656.34
603.47	30869.33
603.62	30551.01
603.78	30520.59
603.94	30859.96
604.09	30380.15
604.25	30661.02
604.40	30675.06
604.56	30354.41
604.71	31009.76
604.87	30850.60
605.03	30885.71
605.18	30717.19
605.34	30646.97
605.49	30356.75
605.65	30338.02
605.80	30560.37
605.96	30555.69
606.12	30850.60
606.27	30663.36
606.43	30707.83
606.58	30927.84
606.74	30820.17
606.89	30909.11
607.05	30609.53
607.20	30728.89
607.36	30684.42
607.51	30787.41
607.67	30445.69
607.82	30312.28
607.98	30480.80
608.13	30775.70
608.29	30326.32
608.44	30331.00
608.60	30717.19
608.75	30740.60
608.91	30651.66
609.06	30611.87
609.22	30918.48
609.37	30260.79
609.53	30693.79
609.68	30225.68
609.84	30237.38
609.99	30574.42
610.15	30511.22
610.30	30548.67
610.46	30628.25
610.61	30478.46
610.76	30567.40
610.92	30497.18
611.07	30408.24
611.23	30541.65
611.38	30113.33
611.54	30237.38
611.69	30061.84
611.84	30134.40
612.00	30150.78
612.15	30279.51
612.31	30340.36
612.46	30366.11
612.62	30204.61
612.77	30209.29
612.92	30419.94
613.08	30328.66
613.23	30696.13
613.39	30483.14
613.54	29993.97
613.69	29883.96
613.85	30012.69
614.00	29720.12
614.15	30625.91
614.31	30092.27
614.46	30143.76
614.62	30469.09
614.77	30349.73
614.92	29898.00
615.08	29729.48
615.23	30017.37
615.38	30118.01
615.54	29799.70
615.69	29766.93
615.84	29425.22
616.00	30492.50
616.15	29869.92
616.30	30087.59
616.46	30174.19
616.61	29649.91
616.76	30045.46
616.92	29668.63
617.07	30316.96
617.22	29677.99
617.37	29848.85
617.53	29659.27
617.68	29846.51
617.83	29610.12
617.99	29439.26
618.14	30040.78
618.29	29652.25
618.45	29689.70
618.60	29851.19
618.75	29832.47
618.90	30092.27
619.06	29879.28
619.21	29736.51
619.36	29846.51
619.51	29816.08
619.67	29198.18
619.82	29343.30
619.97	29687.36
620.12	28957.11
620.28	29174.78
620.43	29544.58
620.58	29542.24
620.73	29656.93
620.89	29743.53
621.04	29820.77
621.19	29675.65
621.34	29465.00
621.49	29603.10
621.65	29256.70
621.80	29708.42
621.95	29399.47
622.10	29247.33
622.25	29394.79
622.41	28854.12
622.56	29647.57
622.71	29443.94
622.86	29631.18
623.01	29457.98
623.16	29032.00
623.32	29125.63
623.47	29317.55
623.62	29249.67
623.77	29024.98
623.92	29237.97
624.07	28968.81
624.23	29392.45
624.38	29221.59
624.53	28968.81
624.68	29706.08
624.83	29284.78
624.98	29212.23
625.13	29345.64
625.29	29097.54
625.44	29064.77
625.59	28776.89
625.74	28589.64
625.89	29237.97
626.04	29172.44
626.19	28797.95
626.34	29228.61
626.49	28933.70
626.65	28753.48
626.80	29017.96
626.95	29024.98
627.10	28872.85
627.25	28879.87
627.40	28795.61
627.55	28891.57
627.70	28407.08
627.85	28507.72
628.00	28439.85
628.15	28893.91
628.30	28549.85
628.45	28685.61
628.60	28730.08
628.76	28973.49
628.91	28645.82
629.06	28741.78
629.21	28725.39
629.36	29067.11
629.51	28779.23
629.66	28673.90
629.81	28446.87
629.96	28432.83
630.11	28393.04
630.26	28369.63
630.41	28210.48
630.56	28308.78
630.71	28369.63
630.86	28027.92
631.01	28545.17
631.16	28231.54
631.31	28393.04
631.46	27929.61
631.61	28421.13
631.76	28301.76
631.91	28093.45
632.06	28154.30
632.21	28238.56
632.36	28325.16
632.51	27953.02
632.66	28121.54
632.81	27943.66
632.96	28184.73
633.10	28226.86
633.25	28149.62
633.40	28208.14
633.55	28077.07
633.70	27889.82
633.85	27850.03
634.00	27995.15
634.15	27466.19
634.30	27908.55
634.45	27569.17
634.60	27651.09
634.75	27718.96
634.90	27847.69
635.05	27768.12
635.19	27723.65
635.34	27908.55
635.49	27955.36
635.64	27861.74
635.79	27527.04
635.94	28013.87
636.09	28004.51
636.24	27765.78
636.39	27623.00
636.53	27962.38
636.68	27555.13
636.83	27810.25
636.98	27786.84
637.13	27688.54
637.28	27824.29
637.43	27889.82
637.57	27702.58
637.72	27583.21
637.87	27550.45
638.02	27608.96
638.17	27693.22
638.32	27559.81
638.46	27615.98
638.61	27206.39
638.76	26995.74
638.91	27325.75
639.06	27342.14
639.20	27178.30
639.35	27424.06
639.50	27353.84
639.65	27379.59
639.80	27335.12
639.94	27365.54
640.09	27658.11
640.24	27552.79
640.39	27349.16
640.54	27152.55
640.68	27332.78
640.83	26967.65
640.98	27119.79
641.13	26986.38
641.27	27129.15
641.42	27332.78
641.57	27033.19
641.72	27480.23
641.86	26948.93
642.01	27019.14
642.16	26909.14
642.31	26986.38
642.45	27150.21
642.60	27054.25
642.75	26740.62
642.90	26656.36
643.04	26831.90
643.19	26654.02
643.34	27016.80
643.48	26920.84
643.63	26867.01
643.78	26998.08
643.93	26923.18
644.07	26745.30
644.22	26981.70
644.37	26810.84
644.51	27012.12
644.66	26614.23
644.81	26808.50
644.95	26771.05
645.10	26462.10
645.25	26562.74
645.39	26796.79
645.54	26888.07
645.69	26862.33
645.83	26824.88
645.98	26190.59
646.13	26597.85
646.27	26834.24
646.42	26876.37
646.57	26845.94
646.71	26202.30
646.86	26532.31
647.00	26415.29
647.15	26342.73
647.30	26480.82
647.44	26270.17
647.59	26513.59
647.74	26434.01
647.88	26188.25
648.03	26616.57
648.17	26864.67
648.32	26384.86
648.47	26511.25
648.61	26326.35
648.76	26426.99
648.90	26214.00
649.05	26602.53
649.20	26223.36
649.34	26307.62
649.49	25979.95
649.63	26038.46
649.78	26211.66
649.92	25916.75
650.07	26061.87
650.21	26326.35
650.36	26499.55
650.51	26005.69
650.65	26387.20
650.80	26405.92
650.94	26003.35
651.09	25708.44
651.23	25905.05
651.38	26244.43
651.52	26043.14
651.67	26143.78
651.81	26061.87
651.96	25727.17
652.10	25757.60
652.25	25661.63
652.39	26057.18
652.54	25949.52
652.68	25743.55
652.83	25642.91
652.97	26148.46
653.12	26302.94
653.26	25619.50
653.41	25928.45
653.55	25687.38
653.70	25635.89
653.84	26024.42
653.99	25673.34
654.13	25579.71
654.27	25394.81
654.42	25769.30
654.56	25841.85
654.71	25710.78
654.85	25720.15
655.00	25876.96
655.14	25364.39
655.29	25682.70
655.43	25673.34
655.57	25907.39
655.72	25612.48
655.86	25387.79
656.01	25144.38
656.15	25429.92
656.30	25371.41
656.44	25635.89
656.58	25289.49
656.73	25898.03
656.87	25247.36
657.01	25270.76
657.16	25378.43
657.30	25603.12
657.45	25591.42
657.59	25591.42
657.73	25408.86
657.88	24968.84
658.02	25277.79
658.16	25020.33
658.31	25436.94
658.45	25287.15
658.60	24947.77
658.74	24971.18
658.88	24929.05
659.03	24886.92
659.17	25256.72
659.31	24917.34
659.46	24751.17
659.60	25074.16
659.74	25022.67
659.89	24975.86
660.03	24524.13
660.17	25029.69
660.32	24739.46
660.46	24650.52
660.60	24355.61
660.74	24744.14
660.89	24568.60
661.03	24512.43
661.17	24404.77
661.32	24587.33
661.46	24610.73
661.60	24634.14
661.74	24456.26
661.89	24837.76
662.03	24613.07
662.17	24812.02
662.31	24238.59
662.46	24563.92
662.60	24233.91
662.74	24053.69
662.88	24269.01
663.03	23784.52
663.17	24463.28
663.31	24343.91
663.45	23871.12
663.60	24329.87
663.74	23775.16
663.88	24123.90
664.02	23929.64
664.17	24266.67
664.31	23873.46
664.45	23847.72
664.59	24140.29
664.73	23871.12
664.88	23826.65
665.02	23557.49
665.16	23786.86
665.30	23487.28
665.44	23889.85
665.59	23501.32
665.73	23814.95
665.87	23447.49
666.01	23857.08
666.15	23529.41
666.29	23466.21
666.44	23681.54
666.58	23520.04
666.72	23122.15
666.86	23470.89
667.00	23449.83
667.14	23281.31
667.28	23218.11
667.43	23058.96
667.57	23112.79
667.71	23215.77
667.85	22876.40
667.99	23302.37
668.13	23084.70
668.27	23145.56
668.41	22897.46
668.56	22824.90
668.70	22991.08
668.84	23009.81
668.98	23026.19
669.12	23080.02
669.26	22778.09
669.40	22747.67
669.54	23117.47
669.68	22970.02
669.82	22593.19
669.96	22286.58
670.10	22522.98
670.25	22398.93
670.39	22583.83
670.53	22506.59
670.67	22574.47
670.81	22410.63
670.95	22841.29
671.09	22305.31
671.23	22359.14
671.37	22431.69
671.51	22274.88
671.65	22174.24
671.79	22267.86
671.93	22209.34
672.07	22104.02
672.21	21790.39
672.35	22157.85
672.49	21907.41
672.63	22031.46
672.77	21600.80
672.91	21909.75
673.05	21886.35
673.19	21928.48
673.33	21933.16
673.47	21666.34
673.61	22085.30
673.75	21921.46
673.89	21720.17
674.03	21120.99
674.17	21399.52
674.31	21436.97
674.45	21397.18
674.59	21781.03
674.73	21516.54
674.87	21090.57
675.01	21034.39
675.15	20954.82
675.29	21029.71
675.43	21036.74
675.56	20952.48
675.70	21104.61
675.84	20957.16
675.98	20482.03
676.12	21252.06
676.26	21081.21
676.40	20905.66
676.54	20610.76
676.68	20704.38
676.82	20372.02
676.96	20533.52
677.10	20566.29
677.23	20215.21
677.37	20130.95
677.51	20627.14
677.65	20037.33
677.79	20238.61
677.93	20086.48
678.07	19791.57
678.21	20039.67
678.34	19688.59
678.48	20219.89
678.62	19983.49
678.76	19967.11
678.90	19850.08
679.04	19489.64
679.18	19646.46
679.31	19550.49
679.45	19278.99
679.59	19342.19
679.73	19513.05
679.87	19363.25
680.00	19405.38
680.14	19143.24
680.28	18867.06
680.42	19173.67
680.56	19274.31
680.70	19281.33
680.83	19243.88
680.97	19101.11
681.11	19194.73
681.25	19016.85
681.39	18932.59
681.52	18831.95
681.66	18651.73
681.80	18520.66
681.94	18333.42
682.07	18820.25
682.21	18532.36
682.35	18171.92
682.49	18394.27
682.62	18270.22
682.76	18298.31
682.90	18347.46
683.04	18111.07
683.17	18312.35
683.31	18324.05
683.45	18092.34
683.59	18281.92
683.72	18045.53
683.86	17947.23
684.00	17886.37
684.13	18085.32
684.27	17991.70
684.41	17568.06
684.55	17291.88
684.68	17465.08
684.82	17383.16
684.96	17317.62
685.09	17383.16
685.23	17254.43
685.37	17090.59
685.50	17308.26
685.64	17003.99
685.78	16917.39
685.91	16978.25
686.05	17144.42
686.19	17102.29
686.32	17092.93
686.46	16840.15
686.60	16893.99
686.73	16819.09
686.87	16383.75
687.01	16711.42
687.14	16624.83
687.28	16278.43
687.42	16416.52
687.55	16285.45
687.69	16397.79
687.82	16159.06
687.96	16121.61
688.10	16205.87
688.23	16072.46
688.37	16149.70
688.50	16053.73
688.64	16215.23
688.78	16187.14
688.91	15639.46
689.05	15995.22
689.18	15618.39
689.32	15442.85
689.46	15431.15
689.59	15700.31
689.73	15550.52
689.86	15382.00
690.00	15536.48
690.13	15260.29
690.27	15382.00
690.41	15466.26
690.54	15232.21
690.68	15016.88
690.81	15171.35
690.95	15009.86
691.08	15138.58
691.22	14904.53
691.35	15044.96
691.49	14918.57
691.62	14885.81
691.76	14635.37
691.89	14497.28
692.03	14225.78
692.16	14471.53
692.30	14324.08
692.43	14483.24
692.57	14483.24
692.70	14083.00
692.84	14043.21
692.97	14314.72
693.11	14141.52
693.24	14218.75
693.38	14239.82
693.51	14104.07
693.65	14214.07
693.78	14068.96
693.92	14129.81
694.05	14017.47
694.19	13626.60
694.32	13820.86
694.45	13788.10
694.59	13352.76
694.72	13455.74
694.86	13556.38
694.99	13231.05
695.13	13324.67
695.26	13151.47
695.39	13172.54
695.53	13247.43
695.66	13167.85
695.80	12929.12
695.93	13277.86
696.07	12999.34
696.20	12987.63
696.33	13170.19
696.47	12999.34
696.60	12702.09
696.73	12861.24
696.87	12821.45
697.00	12746.56
697.14	12594.42
697.27	12521.87
697.40	12126.32
697.54	12432.93
697.67	12535.91
697.80	12285.47
697.94	12484.42
698.07	12233.98
698.21	12145.04
698.34	12170.79
698.47	12297.17
698.61	12175.47
698.74	12175.47
698.87	12147.38
699.01	11934.39
699.14	11777.58
699.27	11761.19
699.40	11918.01
699.54	11672.25
699.67	11515.44
699.80	11796.30
699.94	11688.64
700.07	11419.47
700.20	11342.24
700.34	11449.90
700.47	11323.51
700.60	11297.77
700.73	11386.71
700.87	11501.39
701.00	11131.59
701.13	11257.98
701.26	11183.08
701.40	11265.00
701.53	10923.28
701.66	11220.53
701.79	10995.84
701.93	11084.78
702.06	10883.49
702.19	10906.90
702.32	10810.93
702.46	10452.83
702.59	10574.54
702.72	10429.43
702.85	10473.90
702.99	10457.51
703.12	10450.49
703.25	10274.95
703.38	10499.64
703.51	10331.12
703.65	10291.34
703.78	10319.42
703.91	10118.14
704.04	10202.40
704.17	10375.59
704.31	10092.39
704.44	10054.94
704.57	10122.82
704.70	9958.98
704.83	9898.13
704.96	9853.66
705.10	9881.74
705.23	9755.35
>>>>>End Processed Spectral Data<<<<<
