SpectraSuite Data File
++++++++++++++++++++++++++++++++++++
Date: Fri Oct 18 13:58:07 GMT-05:00 2013
User: bianchi
Dark Spectrum Present: No
Reference Spectrum Present: No
Number of Sampled Component Spectra: 1
Spectrometers: USB2+H05261
Integration Time (usec): 50000 (USB2+H05261)
Spectra Averaged: 1 (USB2+H05261)
Boxcar Smoothing: 0 (USB2+H05261)
Correct for Electrical Dark: No (USB2+H05261)
Strobe/Lamp Enabled: No (USB2+H05261)
Correct for Detector Non-linearity: No (USB2+H05261)
Correct for Stray Light: No (USB2+H05261)
Number of Pixels in Processed Spectrum: 2048
>>>>>Begin Processed Spectral Data<<<<<
365.73	0.00
365.92	0.00
366.12	0.00
366.32	0.00
366.52	0.00
366.72	0.00
366.91	0.00
367.11	0.00
367.31	0.00
367.51	0.00
367.70	0.00
367.90	0.00
368.10	0.00
368.30	0.00
368.49	0.00
368.69	0.00
368.89	0.00
369.09	0.00
369.28	0.00
369.48	0.00
369.68	0.00
369.87	0.00
370.07	0.00
370.27	0.00
370.47	0.00
370.66	39.79
370.86	110.01
371.06	147.45
371.25	84.26
371.45	131.07
371.65	133.41
371.84	175.54
372.04	189.58
372.24	100.64
372.44	175.54
372.63	220.01
372.83	273.84
373.03	198.95
373.22	180.22
373.42	215.33
373.62	184.90
373.81	276.18
374.01	210.65
374.21	208.31
374.40	170.86
374.60	170.86
374.79	243.42
374.99	266.82
375.19	297.25
375.38	330.02
375.58	259.80
375.78	271.50
375.97	332.36
376.17	234.05
376.37	252.78
376.56	266.82
376.76	187.24
376.95	252.78
377.15	248.10
377.35	229.37
377.54	287.89
377.74	238.73
377.93	278.52
378.13	330.02
378.33	294.91
378.52	280.86
378.72	250.44
378.91	241.08
379.11	273.84
379.31	264.48
379.50	248.10
379.70	287.89
379.89	348.74
380.09	327.68
380.28	250.44
380.48	322.99
380.68	325.33
380.87	234.05
381.07	325.33
381.26	341.72
381.46	334.70
381.65	313.63
381.85	320.65
382.04	294.91
382.24	292.57
382.43	346.40
382.63	301.93
382.83	360.44
383.02	348.74
383.22	374.49
383.41	362.78
383.61	372.15
383.80	308.95
384.00	346.40
384.19	383.85
384.39	376.83
384.58	339.38
384.78	407.25
384.97	414.27
385.17	346.40
385.36	348.74
385.56	341.72
385.75	322.99
385.95	313.63
386.14	386.19
386.34	308.95
386.53	430.66
386.72	447.04
386.92	395.55
387.11	517.26
387.31	393.21
387.50	379.17
387.70	346.40
387.89	449.38
388.09	423.64
388.28	379.17
388.48	470.45
388.67	475.13
388.86	505.56
389.06	461.09
389.25	444.70
389.45	498.53
389.64	463.43
389.84	491.51
390.03	482.15
390.22	456.40
390.42	484.49
390.61	400.23
390.81	440.02
391.00	416.62
391.19	526.62
391.39	540.66
391.58	498.53
391.78	512.58
391.97	587.47
392.16	477.47
392.36	587.47
392.55	484.49
392.75	559.39
392.94	557.05
393.13	575.77
393.33	638.97
393.52	575.77
393.71	613.22
393.91	564.07
394.10	624.92
394.29	535.98
394.49	566.41
394.68	575.77
394.88	599.18
395.07	620.24
395.26	641.31
395.46	580.45
395.65	592.16
395.84	634.29
396.04	620.24
396.23	617.90
396.42	683.44
396.62	587.47
396.81	674.07
397.00	622.58
397.19	678.76
397.39	662.37
397.58	683.44
397.77	695.14
397.97	681.10
398.16	732.59
398.35	786.42
398.55	746.63
398.74	636.63
398.93	777.06
399.12	744.29
399.32	734.93
399.51	695.14
399.70	786.42
399.90	737.27
400.09	800.46
400.28	704.50
400.47	840.25
400.67	791.10
400.86	788.76
401.05	746.63
401.24	800.46
401.44	774.72
401.63	793.44
401.82	786.42
402.01	802.80
402.21	791.10
402.40	873.02
402.59	926.85
402.78	854.30
402.97	858.98
403.17	894.08
403.36	847.27
403.55	875.36
403.74	877.70
403.93	894.08
404.13	947.92
404.32	854.30
404.51	905.79
404.70	961.96
404.89	952.60
405.09	889.40
405.28	959.62
405.47	980.68
405.66	983.02
405.85	950.26
406.05	1001.75
406.24	938.55
406.43	959.62
406.62	983.02
406.81	1074.31
407.00	1011.11
407.20	994.73
407.39	992.39
407.58	1048.56
407.77	1027.50
407.96	976.00
408.15	1062.60
408.34	1022.81
408.54	1114.10
408.73	1053.24
408.92	1186.65
409.11	1128.14
409.30	1125.80
409.49	1142.18
409.68	1191.33
409.87	1128.14
410.07	1121.12
410.26	1172.61
410.45	1263.89
410.64	1238.14
410.83	1151.54
411.02	1240.48
411.21	1273.25
411.40	1249.85
411.59	1268.57
411.78	1331.76
411.98	1259.21
412.17	1231.12
412.36	1296.66
412.55	1296.66
412.74	1399.64
412.93	1359.85
413.12	1327.08
413.31	1427.73
413.50	1397.30
413.69	1448.79
413.88	1380.92
414.07	1481.56
414.26	1561.14
414.45	1516.67
414.64	1528.37
414.83	1500.28
415.02	1516.67
415.22	1661.78
415.41	1519.01
415.60	1551.78
415.79	1504.96
415.98	1638.38
416.17	1600.93
416.36	1605.61
416.55	1654.76
416.74	1652.42
416.93	1636.03
417.12	1678.16
417.31	1806.89
417.50	1750.72
417.69	1732.00
417.88	1748.38
418.07	1699.23
418.26	1851.36
418.45	1790.51
418.64	1680.50
418.83	1867.75
419.02	1834.98
419.21	1849.02
419.39	1802.21
419.58	1853.70
419.77	1809.23
419.96	1764.76
420.15	1935.62
420.34	1872.43
420.53	1839.66
420.72	1916.90
420.91	1900.52
421.10	1944.99
421.29	1923.92
421.48	2005.84
421.67	1891.15
421.86	1872.43
422.05	1980.09
422.24	2064.35
422.43	1933.28
422.61	2054.99
422.80	2073.71
422.99	2143.93
423.18	2085.42
423.37	1933.28
423.56	2115.84
423.75	2069.03
423.94	2113.50
424.13	2031.58
424.32	1961.37
424.50	2057.33
424.69	1998.82
424.88	2190.74
425.07	2052.65
425.26	1879.45
425.45	2050.31
425.64	1952.01
425.83	1996.48
426.01	2054.99
426.20	2090.10
426.39	2043.29
426.58	2101.80
426.77	2129.89
426.96	2043.29
427.15	2001.16
427.33	2071.37
427.52	2122.87
427.71	2167.34
427.90	2221.17
428.09	2223.51
428.28	2167.34
428.46	2211.81
428.65	2289.04
428.84	2279.68
429.03	2253.94
429.22	2244.57
429.40	2340.54
429.59	2293.72
429.78	2157.97
429.97	2193.08
430.16	2380.32
430.34	2335.85
430.53	2385.01
430.72	2300.75
430.91	2242.23
431.10	2246.91
431.28	2361.60
431.47	2483.31
431.66	2420.11
431.85	2394.37
432.03	2476.29
432.22	2511.39
432.41	2445.86
432.60	2445.86
432.79	2284.36
432.97	2478.63
433.16	2431.82
433.35	2478.63
433.54	2534.80
433.72	2572.25
433.91	2473.95
434.10	2427.14
434.28	2466.92
434.47	2614.38
434.66	2511.39
434.85	2530.12
435.03	2600.34
435.22	2605.02
435.41	2661.19
435.59	2766.51
435.78	2663.53
435.97	2626.08
436.16	2696.30
436.34	2705.66
436.53	2661.19
436.72	2766.51
436.90	2686.94
437.09	2708.00
437.28	2654.17
437.46	2780.56
437.65	2775.88
437.84	2864.82
438.02	2761.83
438.21	2827.37
438.40	2808.64
438.58	2785.24
438.77	3070.78
438.96	2787.58
439.14	3030.99
439.33	2970.14
439.52	2970.14
439.70	3035.67
439.89	2946.73
440.08	3066.10
440.26	3084.83
440.45	3087.17
440.63	3162.06
440.82	3094.19
441.01	3061.42
441.19	3192.49
441.38	3248.66
441.57	3288.45
441.75	3293.13
441.94	3286.11
442.12	3314.20
442.31	3377.39
442.50	3328.24
442.68	3248.66
442.87	3321.22
443.05	3286.11
443.24	3349.31
443.43	3325.90
443.61	3466.33
443.80	3424.20
443.98	3379.73
444.17	3300.16
444.35	3471.01
444.54	3485.06
444.73	3557.61
444.91	3372.71
445.10	3456.97
445.28	3543.57
445.47	3487.40
445.65	3456.97
445.84	3562.30
446.02	3368.03
446.21	3569.32
446.39	3414.84
446.58	3515.48
446.77	3463.99
446.95	3321.22
447.14	3646.55
447.32	3578.68
447.51	3606.77
447.69	3585.70
447.88	3534.21
448.06	3501.44
448.25	3454.63
448.43	3566.98
448.62	3466.33
448.80	3599.74
448.99	3665.28
449.17	3676.98
449.36	3524.85
449.54	3691.02
449.73	3693.37
449.91	3850.18
450.10	3588.04
450.28	3772.94
450.46	3730.81
450.65	3810.39
450.83	3686.34
451.02	3779.97
451.20	3962.53
451.39	3878.27
451.57	3857.20
451.76	3782.31
451.94	3904.01
452.13	3744.86
452.31	3796.35
452.49	3826.78
452.68	3882.95
452.86	3899.33
453.05	3990.61
453.23	3906.35
453.42	3901.67
453.60	3882.95
453.78	3976.57
453.97	3943.80
454.15	3927.42
454.34	3967.21
454.52	4011.68
454.70	3997.64
454.89	4135.73
455.07	4039.76
455.26	4074.87
455.44	4128.70
455.62	4074.87
455.81	4194.24
455.99	4126.36
456.17	4170.83
456.36	4224.67
456.54	4166.15
456.73	4269.14
456.91	4517.23
457.09	4402.55
457.28	4444.68
457.46	4507.87
457.64	4557.02
457.83	4407.23
458.01	4168.49
458.19	4358.08
458.38	4461.06
458.56	4418.93
458.74	4491.49
458.93	4428.29
459.11	4365.10
459.29	4351.06
459.48	4505.53
459.66	4496.17
459.84	4589.79
460.03	4760.65
460.21	4545.32
460.39	4528.94
460.57	4557.02
460.76	4657.67
460.94	4835.55
461.12	4739.58
461.31	4617.88
461.49	4608.51
461.67	4568.73
461.85	4751.29
462.04	4826.18
462.22	4992.36
462.40	4648.30
462.59	4762.99
462.77	4791.08
462.95	4711.50
463.13	4784.06
463.32	4884.70
463.50	4772.35
463.68	4945.55
463.86	4865.97
464.05	4987.68
464.23	4849.59
464.41	4929.17
464.59	4858.95
464.78	4961.94
464.96	4929.17
465.14	4777.03
465.32	5043.85
465.50	5195.99
465.69	5165.56
465.87	4997.04
466.05	5034.49
466.23	4961.94
466.41	5195.99
466.60	5149.18
466.78	5085.98
466.96	4980.66
467.14	5100.03
467.32	5174.92
467.51	5179.61
467.69	5078.96
467.87	5205.35
468.05	5109.39
468.23	5254.50
468.41	5181.95
468.60	5254.50
468.78	5329.40
468.96	5268.55
469.14	5259.18
469.32	5406.64
469.50	5221.74
469.69	5481.53
469.87	5416.00
470.05	5518.98
470.23	5556.43
470.41	5544.73
470.59	5504.94
470.77	5305.99
470.95	5554.09
471.14	5591.54
471.32	5518.98
471.50	5813.89
471.68	5687.50
471.86	5701.54
472.04	5797.51
472.22	5841.98
472.40	5703.89
472.58	5610.26
472.77	5738.99
472.95	5846.66
473.13	6078.37
473.31	5853.68
473.49	5877.09
473.67	5870.06
473.85	5905.17
474.03	6256.25
474.21	6050.28
474.39	6040.92
474.57	6148.59
474.75	6167.31
474.93	6132.20
475.12	6242.21
475.30	6331.15
475.48	6202.42
475.66	6352.21
475.84	6338.17
476.02	6457.54
476.20	6392.00
476.38	6260.93
476.56	6654.14
476.74	6502.01
476.92	6511.37
477.10	6593.29
477.28	6848.41
477.46	6480.94
477.64	6747.76
477.82	6733.72
478.00	7009.90
478.18	6965.43
478.36	6885.86
478.54	7040.33
478.72	7166.72
478.90	7169.06
479.08	7452.27
479.26	7316.51
479.44	7281.41
479.62	7300.13
479.80	7445.24
479.98	7426.52
480.16	7501.42
480.34	7606.74
480.52	7609.08
480.70	7815.05
480.88	7627.81
481.06	7712.07
481.24	7559.93
481.41	7779.94
481.59	7854.84
481.77	8058.46
481.95	8224.64
482.13	8032.72
482.31	8180.17
482.49	8203.58
482.67	8369.76
482.85	8510.19
483.03	8720.84
483.21	8671.68
483.39	8454.02
483.57	8751.26
483.74	8812.12
483.92	8884.67
484.10	8823.82
484.28	8945.53
484.46	9156.18
484.64	9121.07
484.82	9118.73
485.00	9100.00
485.18	9359.80
485.35	9418.32
485.53	9472.15
485.71	9612.58
485.89	9671.09
486.07	9596.20
486.25	9827.91
486.43	9720.24
486.61	9785.78
486.78	9998.77
486.96	10026.86
487.14	10188.35
487.32	10197.71
487.50	10272.61
487.68	10406.02
487.85	10473.90
488.03	10539.43
488.21	10705.61
488.39	10626.03
488.57	10801.57
488.75	10803.91
488.92	11033.29
489.10	11117.54
489.28	11066.05
489.46	11136.27
489.64	11255.64
489.81	11358.62
489.99	11389.05
490.17	11323.51
490.35	11492.03
490.53	11761.19
490.70	11747.15
490.88	11655.87
491.06	11838.43
491.24	11836.09
491.41	11971.84
491.59	11988.22
491.77	11918.01
491.95	12086.53
492.13	12161.42
492.30	12336.96
492.48	12367.39
492.66	12484.42
492.84	12641.23
493.01	12376.75
493.19	12688.04
493.37	12954.87
493.54	12741.88
493.72	13048.49
493.90	12912.74
494.08	13179.56
494.25	13252.11
494.43	13217.01
494.61	13418.29
494.79	13617.24
494.96	13542.34
495.14	13500.21
495.32	13593.83
495.49	13865.33
495.67	13748.31
495.85	13832.57
496.02	14195.35
496.20	13900.44
496.38	14071.30
496.55	14097.05
496.73	14200.03
496.91	14265.57
497.09	14314.72
497.26	14476.21
497.44	14478.55
497.62	14527.71
497.79	14888.15
497.97	14740.69
498.14	14829.63
498.32	15232.21
498.50	15201.78
498.67	15300.08
498.85	14827.29
499.03	15173.69
499.20	15281.36
499.38	14885.81
499.56	15407.75
499.73	15321.15
499.91	15414.77
500.08	15456.90
500.26	15538.82
500.44	15599.67
500.61	15779.89
500.79	15606.69
500.97	15817.34
501.14	15999.90
501.32	16046.71
501.49	15927.35
501.67	15836.06
501.84	16409.50
502.02	16077.14
502.20	16196.51
502.37	16262.04
502.55	16379.07
502.72	16217.57
502.90	16149.70
503.07	16243.32
503.25	16823.77
503.43	16217.57
503.60	16596.74
503.78	16992.29
503.95	16755.90
504.13	16704.40
504.30	16889.31
504.48	16985.27
504.65	16971.22
504.83	17247.41
505.01	17207.62
505.18	17245.07
505.36	17249.75
505.53	17114.00
505.71	16936.12
505.88	17301.24
506.06	17233.36
506.23	17645.30
506.41	17408.90
506.58	17385.50
506.76	17472.10
506.93	17640.62
507.11	17561.04
507.28	17706.15
507.46	17750.62
507.63	17907.44
507.81	18092.34
507.98	17869.99
508.16	17734.24
508.33	18125.11
508.50	18185.96
508.68	17921.48
508.85	18197.67
509.03	18284.26
509.20	18354.48
509.38	18490.23
509.55	18600.24
509.73	18513.64
509.90	18291.29
510.08	18319.37
510.25	18679.82
510.42	18735.99
510.60	18733.65
510.77	18925.57
510.95	18735.99
511.12	19105.79
511.30	18796.84
511.47	19070.68
511.64	19105.79
511.82	19185.37
511.99	19227.50
512.17	19328.14
512.34	19475.60
512.51	19180.69
512.69	19601.99
512.86	19307.08
513.04	19779.87
513.21	19494.32
513.38	19981.15
513.56	19693.27
513.73	19475.60
513.90	19601.99
514.08	19819.66
514.25	19913.28
514.43	19950.73
514.60	20189.46
514.77	20013.92
514.95	20210.53
515.12	20009.24
515.29	19800.93
515.47	20243.29
515.64	20325.21
515.81	20346.28
515.99	20269.04
516.16	20776.94
516.33	20517.14
516.51	20400.11
516.68	20400.11
516.85	20301.81
517.03	20896.30
517.20	20737.15
517.37	20699.70
517.54	20896.30
517.72	20585.01
517.89	20929.07
518.06	20938.43
518.24	20751.19
518.41	20795.66
518.58	21195.89
518.75	21032.05
518.93	21223.98
519.10	21207.59
519.27	21184.19
519.45	21137.38
519.62	20931.41
519.79	21228.66
519.96	21591.44
520.14	21165.46
520.31	21095.25
520.48	21624.21
520.65	21675.70
520.83	21682.72
521.00	21509.52
521.17	21439.31
521.34	21909.75
521.52	21867.63
521.69	21921.46
521.86	22129.77
522.03	21799.75
522.20	22003.38
522.38	22045.51
522.55	21933.16
522.72	21991.67
522.89	22054.87
523.07	22541.70
523.24	22026.78
523.41	22640.00
523.58	22094.66
523.75	22452.76
523.92	22043.17
524.10	22335.73
524.27	22742.99
524.44	22717.24
524.61	22810.86
524.78	22742.99
524.96	22412.97
525.13	22476.16
525.30	22831.93
525.47	22958.31
525.64	22796.82
525.81	22958.31
525.98	23019.17
526.16	22995.76
526.33	23058.96
526.50	23372.59
526.67	22970.02
526.84	22995.76
527.01	22913.84
527.18	23040.23
527.36	23105.77
527.53	23194.71
527.70	23821.97
527.87	23676.86
528.04	23424.08
528.21	23323.44
528.38	23737.71
528.55	23442.81
528.72	23424.08
528.89	23826.65
529.07	23744.73
529.24	23784.52
529.41	23531.75
529.58	23737.71
529.75	23948.36
529.92	23611.32
530.09	23924.96
530.26	24011.56
530.43	24041.98
530.60	24002.19
530.77	23894.53
530.94	24058.37
531.11	23981.13
531.28	24112.20
531.46	23953.04
531.63	24039.64
531.80	24219.86
531.97	24203.48
532.14	24489.03
532.31	24245.61
532.48	24182.42
532.65	24273.70
532.82	24439.87
532.99	24563.92
533.16	24416.47
533.33	25029.69
533.50	24812.02
533.67	24580.31
533.84	24528.81
534.01	24826.06
534.18	24900.96
534.35	24650.52
534.52	24699.67
534.69	24973.52
534.86	24966.49
535.03	24657.54
535.20	25088.20
535.37	24795.64
535.54	25036.71
535.71	24386.04
535.88	25001.60
536.05	24903.30
536.22	25055.43
536.38	25345.66
536.55	25247.36
536.72	25495.46
536.89	25238.00
537.06	25156.08
537.23	25289.49
537.40	25352.68
537.57	25371.41
537.74	25322.26
537.91	25675.68
538.08	25642.91
538.25	25617.16
538.42	25394.81
538.59	25944.84
538.75	25469.71
538.92	25596.10
539.09	25876.96
539.26	25565.67
539.43	25766.96
539.60	25553.97
539.77	25900.37
539.94	26319.32
540.11	25937.82
540.28	25851.22
540.44	25659.29
540.61	25891.01
540.78	25991.65
540.95	25907.39
541.12	25867.60
541.29	26274.85
541.46	25851.22
541.62	26129.74
541.79	26335.71
541.96	25916.75
542.13	25874.62
542.30	26160.17
542.47	26483.16
542.63	26394.22
542.80	26574.44
542.97	26663.38
543.14	26960.63
543.31	26429.33
543.48	26551.04
543.64	26735.94
543.81	26682.11
543.98	27147.87
544.15	26855.31
544.32	26691.47
544.48	26984.04
544.65	26651.68
544.82	26855.31
544.99	26595.51
545.16	26780.41
545.32	26773.39
545.49	27077.66
545.66	27002.76
545.83	27395.97
546.00	27049.57
546.16	26892.76
546.33	27009.78
546.50	26707.85
546.67	26937.23
546.83	27068.30
547.00	26813.18
547.17	27555.13
547.34	27475.55
547.50	27475.55
547.67	28018.55
547.84	27484.91
548.00	27597.26
548.17	27810.25
548.34	27239.15
548.51	27775.14
548.67	28004.51
548.84	27264.90
549.01	27372.57
549.18	27653.43
549.34	27637.05
549.51	27779.82
549.68	27548.11
549.84	27695.56
550.01	27513.00
550.18	27695.56
550.34	27693.22
550.51	28142.60
550.68	27765.78
550.84	27566.83
551.01	27770.46
551.18	27775.14
551.34	27885.14
551.51	28016.21
551.68	28166.01
551.84	27826.63
552.01	27857.06
552.18	27960.04
552.34	27971.74
552.51	28144.94
552.68	28259.63
552.84	28002.17
553.01	28261.97
553.18	28032.60
553.34	28357.93
553.51	28549.85
553.67	28175.37
553.84	28882.21
554.01	28589.64
554.17	28425.81
554.34	28371.97
554.51	28584.96
554.67	28353.25
554.84	28489.00
555.00	28381.34
555.17	28458.57
555.33	28568.58
555.50	28313.46
555.67	28533.47
555.83	28507.72
556.00	28664.54
556.16	28765.18
556.33	28657.52
556.50	28725.39
556.66	28833.06
556.83	28772.21
556.99	28816.68
557.16	28765.18
557.32	28898.59
557.49	28821.36
557.65	28673.90
557.82	28870.51
557.98	28694.97
558.15	28699.65
558.32	28484.32
558.48	28662.20
558.65	29528.20
558.81	29235.63
558.98	28849.44
559.14	28870.51
559.31	28973.49
559.47	29041.37
559.64	29193.50
559.80	29165.42
559.97	29319.89
560.13	28973.49
560.30	29179.46
560.46	29495.43
560.63	28971.15
560.79	28926.68
560.96	29383.09
561.12	28833.06
561.29	29092.86
561.45	29020.30
561.61	29359.68
561.78	29490.75
561.94	29324.57
562.11	29345.64
562.27	29247.33
562.44	29057.75
562.60	29027.32
562.77	29144.35
562.93	28879.87
563.10	29392.45
563.26	29209.89
563.42	29907.37
563.59	29422.87
563.75	29345.64
563.92	29493.09
564.08	29315.21
564.24	29724.80
564.41	29034.35
564.57	29450.96
564.74	29289.46
564.90	29289.46
565.07	29455.64
565.23	29912.05
565.39	29577.35
565.56	29567.99
565.72	29415.85
565.88	29619.48
566.05	29673.31
566.21	29539.90
566.38	29668.63
566.54	29376.06
566.70	29551.60
566.87	29961.20
567.03	30078.22
567.19	30057.16
567.36	29823.11
567.52	29813.74
567.68	29745.87
567.85	29839.49
568.01	29862.90
568.17	29315.21
568.34	30129.72
568.50	29809.06
568.66	29738.85
568.83	30178.87
568.99	29572.67
569.15	29537.56
569.32	29834.81
569.48	29727.14
569.64	30010.35
569.81	29851.19
569.97	29900.34
570.13	29827.79
570.30	29862.90
570.46	30068.86
570.62	29834.81
570.78	29539.90
570.95	29876.94
571.11	29991.62
571.27	29783.32
571.43	29846.51
571.60	29993.97
571.76	29446.28
571.92	30122.69
572.09	29963.54
572.25	29933.11
572.41	30125.04
572.57	29921.41
572.74	29830.13
572.90	29965.88
573.06	29701.40
573.22	29862.90
573.38	30036.09
573.55	29879.28
573.71	30455.05
573.87	30237.38
574.03	30099.29
574.20	30038.44
574.36	29874.60
574.52	30185.89
574.68	30120.35
574.84	30244.40
575.01	30017.37
575.17	30497.18
575.33	29745.87
575.49	29954.18
575.65	30492.50
575.82	30225.68
575.98	30101.63
576.14	30480.80
576.30	30195.25
576.46	29947.15
576.62	30103.97
576.79	30380.15
576.95	30302.92
577.11	30129.72
577.27	30354.41
577.43	30244.40
577.59	30539.31
577.75	30459.73
577.92	29734.17
578.08	30471.43
578.24	30295.89
578.40	30005.67
578.56	30518.25
578.72	30024.39
578.88	30504.20
579.04	30309.94
579.21	30405.90
579.37	30291.21
579.53	30548.67
579.69	30143.76
579.85	30118.01
580.01	30408.24
580.17	29776.30
580.33	30333.34
580.49	30099.29
580.65	30433.99
580.82	30333.34
580.98	30375.47
581.14	30532.29
581.30	30106.31
581.46	30279.51
581.62	30064.18
581.78	30164.82
581.94	30422.28
582.10	29823.11
582.26	30295.89
582.42	30586.12
582.58	30796.77
582.74	30415.26
582.90	30394.20
583.06	30457.39
583.22	30419.94
583.38	30410.58
583.54	30553.35
583.70	30169.51
583.86	30611.87
584.02	30143.76
584.18	30183.55
584.34	30553.35
584.50	30698.47
584.66	30361.43
584.82	29837.15
584.98	30340.36
585.14	30593.14
585.30	30314.62
585.46	30520.59
585.62	30553.35
585.78	30244.40
585.94	29888.64
586.10	30382.49
586.26	30281.85
586.42	30274.83
586.58	30534.63
586.74	30073.54
586.90	30717.19
587.06	30258.45
587.22	30342.70
587.38	30373.13
587.54	30635.27
587.70	30766.34
587.86	30525.27
588.02	30979.33
588.18	30567.40
588.34	30661.02
588.49	30576.76
588.65	30389.52
588.81	30345.05
588.97	30457.39
589.13	30630.59
589.29	30679.74
589.45	30813.15
589.61	30927.84
589.77	30696.13
589.93	30696.13
590.08	30628.25
590.24	30644.63
590.40	31061.25
590.56	30934.86
590.72	30513.56
590.88	30478.46
591.04	30946.56
591.20	30981.67
591.35	30857.62
591.51	30871.67
591.67	31117.42
591.83	31117.42
591.99	31014.44
592.15	31019.12
592.31	30590.80
592.46	30644.63
592.62	30703.15
592.78	30600.16
592.94	30560.37
593.10	30401.22
593.26	30651.66
593.41	31325.73
593.57	30799.11
593.73	30600.16
593.89	30986.35
594.05	30820.17
594.20	30923.16
594.36	30771.02
594.52	30728.89
594.68	30625.91
594.84	30764.00
594.99	30906.77
595.15	31175.94
595.31	30878.69
595.47	30890.39
595.62	31173.60
595.78	30909.11
595.94	30604.84
596.10	30560.37
596.25	30691.44
596.41	30590.80
596.57	30738.26
596.73	31037.84
596.88	30771.02
597.04	31129.12
597.20	31129.12
597.36	30960.61
597.51	31208.70
597.67	30735.92
597.83	31171.25
597.99	30775.70
598.14	30586.12
598.30	30981.67
598.46	30927.84
598.61	30838.90
598.77	31007.42
598.93	31037.84
599.09	31299.98
599.24	31323.39
599.40	31250.83
599.56	31115.08
599.71	31456.80
599.87	30808.47
600.03	30642.29
600.18	30986.35
600.34	30927.84
600.50	30904.43
600.65	30951.24
600.81	31108.06
600.97	30981.67
601.12	30899.75
601.28	31274.24
601.44	31126.78
601.59	31115.08
601.75	31218.07
601.91	30904.43
602.06	31110.40
602.22	30986.35
602.37	30323.98
602.53	31002.74
602.69	31417.01
602.84	31016.78
603.00	31285.94
603.16	31037.84
603.31	31091.68
603.47	30972.31
603.62	31068.27
603.78	30939.54
603.94	30480.80
604.09	30642.29
604.25	30824.86
604.40	31218.07
604.56	30984.01
604.71	31576.17
604.87	31325.73
605.03	31283.60
605.18	30792.09
605.34	31033.16
605.49	30771.02
605.65	30850.60
605.80	30665.70
605.96	30766.34
606.12	30745.28
606.27	31271.90
606.43	30841.24
606.58	31154.87
606.74	30916.14
606.89	30738.26
607.05	30930.18
607.20	31126.78
607.36	30735.92
607.51	31126.78
607.67	30637.61
607.82	30576.76
607.98	30724.21
608.13	30904.43
608.29	30799.11
608.44	30522.93
608.60	30780.39
608.75	30796.77
608.91	31159.55
609.06	30658.68
609.22	31063.59
609.37	30071.20
609.53	30735.92
609.68	30426.96
609.84	30892.73
609.99	30719.53
610.15	30347.39
610.30	30562.72
610.46	30316.96
610.61	30756.98
610.76	30583.78
610.92	30834.22
611.07	30614.21
611.23	30813.15
611.38	30808.47
611.54	30436.33
611.69	30284.19
611.84	30391.86
612.00	30433.99
612.15	30661.02
612.31	30831.88
612.46	30064.18
612.62	30951.24
612.77	30738.26
612.92	30586.12
613.08	30824.86
613.23	30333.34
613.39	30836.56
613.54	30518.25
613.69	30501.86
613.85	30258.45
614.00	30464.41
614.15	30532.29
614.31	30455.05
614.46	30735.92
614.62	30164.82
614.77	30527.61
614.92	30548.67
615.08	30539.31
615.23	30139.08
615.38	30719.53
615.54	30354.41
615.69	30043.12
615.84	30370.79
616.00	30349.73
616.15	30368.45
616.30	30569.74
616.46	30199.93
616.61	30050.14
616.76	30766.34
616.92	30244.40
617.07	30747.62
617.22	30096.95
617.37	29926.09
617.53	30096.95
617.68	30202.27
617.83	29549.26
617.99	30405.90
618.14	29792.68
618.29	30134.40
618.45	30146.10
618.60	30253.76
618.75	30115.67
618.90	29802.04
619.06	30113.33
619.21	29879.28
619.36	30075.88
619.51	29942.47
619.67	29696.72
619.82	29530.54
619.97	30113.33
620.12	29518.84
620.28	29380.74
620.43	29706.08
620.58	29839.49
620.73	30005.67
620.89	29982.26
621.04	30015.03
621.19	30277.17
621.34	29837.15
621.49	29809.06
621.65	29610.12
621.80	29865.24
621.95	29926.09
622.10	29429.90
622.25	29413.51
622.41	29406.49
622.56	29535.22
622.71	29869.92
622.86	29827.79
623.01	29970.56
623.16	29736.51
623.32	29507.13
623.47	29500.11
623.62	29411.17
623.77	29626.50
623.92	29752.89
624.07	29511.81
624.23	29586.71
624.38	29713.10
624.53	29804.38
624.68	29638.20
624.83	29387.77
624.98	29867.58
625.13	29553.94
625.29	29991.62
625.44	29490.75
625.59	29495.43
625.74	29530.54
625.89	28987.53
626.04	29221.59
626.19	28699.65
626.34	29088.18
626.49	29041.37
626.65	29132.65
626.80	29343.30
626.95	29556.28
627.10	29034.35
627.25	29500.11
627.40	29305.85
627.55	28877.53
627.70	28664.54
627.85	28802.63
628.00	28800.29
628.15	28678.58
628.30	28811.99
628.45	28760.50
628.60	29055.41
628.76	28975.83
628.91	28896.25
629.06	28699.65
629.21	29062.43
629.36	28877.53
629.51	28734.76
629.66	28652.84
629.81	28699.65
629.96	28673.90
630.11	28404.74
630.26	28634.11
630.41	28409.42
630.56	28776.89
630.71	28439.85
630.86	28463.25
631.01	28673.90
631.16	28971.15
631.31	28205.80
631.46	28376.66
631.61	28510.07
631.76	28641.14
631.91	28790.93
632.06	28437.51
632.21	28519.43
632.36	28147.28
632.51	28308.78
632.66	28343.89
632.81	28364.95
632.96	28437.51
633.10	28226.86
633.25	28505.38
633.40	28304.10
633.55	28582.62
633.70	28100.47
633.85	27899.19
634.00	28128.56
634.15	28175.37
634.30	28229.20
634.45	28006.85
634.60	28058.34
634.75	27943.66
634.90	28477.30
635.05	28341.55
635.19	28367.29
635.34	28311.12
635.49	28292.40
635.64	28573.26
635.79	28180.05
635.94	28212.82
636.09	28070.04
636.24	27742.37
636.39	27913.23
636.53	28149.62
636.68	27871.10
636.83	27906.21
636.98	28013.87
637.13	27740.03
637.28	28018.55
637.43	28046.64
637.57	27946.00
637.72	27838.33
637.87	27995.15
638.02	27690.88
638.17	27840.67
638.32	27960.04
638.46	27419.38
638.61	27749.39
638.76	27407.67
638.91	27882.80
639.06	27606.62
639.20	27805.56
639.35	27592.58
639.50	27583.21
639.65	27779.82
639.80	27702.58
639.94	27669.81
640.09	27866.42
640.24	27873.44
640.39	27269.58
640.54	27091.70
640.68	27297.67
640.83	27576.19
640.98	27702.58
641.13	27246.18
641.27	27402.99
641.42	27204.05
641.57	27311.71
641.72	27503.64
641.86	27461.51
642.01	27426.40
642.16	27131.49
642.31	27126.81
642.45	27482.57
642.60	27023.83
642.75	26948.93
642.90	26977.01
643.04	27311.71
643.19	27030.85
643.34	27150.21
643.48	26927.86
643.63	27307.03
643.78	27117.45
643.93	27234.47
644.07	26759.34
644.22	27332.78
644.37	26813.18
644.51	27019.14
644.66	27145.53
644.81	27023.83
644.95	27084.68
645.10	26867.01
645.25	26614.23
645.39	27321.07
645.54	27089.36
645.69	26700.83
645.83	26932.54
645.98	26782.75
646.13	27072.98
646.27	26962.97
646.42	27152.55
646.57	26988.72
646.71	26611.89
646.86	26878.71
647.00	26675.09
647.15	26768.71
647.30	26731.26
647.44	26541.68
647.59	26558.06
647.74	26955.95
647.88	26815.52
648.03	26899.78
648.17	26801.47
648.32	26703.17
648.47	26988.72
648.61	27061.27
648.76	26691.47
648.90	26637.64
649.05	26473.80
649.20	26576.78
649.34	26546.36
649.49	26281.88
649.63	26099.31
649.78	26066.55
649.92	26103.99
650.07	26789.77
650.21	26267.83
650.36	26448.05
650.51	25975.27
650.65	26370.82
650.80	26628.27
650.94	26251.45
651.09	26536.99
651.23	26342.73
651.38	26398.90
651.52	26188.25
651.67	25879.30
651.81	26047.82
651.96	26047.82
652.10	26155.49
652.25	26216.34
652.39	26197.62
652.54	26382.52
652.68	26005.69
652.83	26361.45
652.97	26178.89
653.12	26073.57
653.26	25979.95
653.41	26010.37
653.55	26064.21
653.70	26122.72
653.84	26127.40
653.99	25652.27
654.13	25963.56
654.27	25867.60
654.42	25979.95
654.56	25769.30
654.71	25944.84
654.85	26197.62
655.00	25902.71
655.14	26015.05
655.29	25736.53
655.43	25907.39
655.57	25539.93
655.72	25706.10
655.86	25902.71
656.01	25802.07
656.15	25703.76
656.30	25788.02
656.44	25666.31
656.58	25593.76
656.73	25261.40
656.87	25841.85
657.01	25834.83
657.16	25762.28
657.30	25874.62
657.45	25624.18
657.59	25483.75
657.73	25371.41
657.88	25418.22
658.02	25539.93
658.16	25582.06
658.31	25446.30
658.45	25591.42
658.60	25319.92
658.74	25165.44
658.88	25523.54
659.03	25336.30
659.17	25469.71
659.31	25479.07
659.46	25223.95
659.60	25469.71
659.74	25441.62
659.89	24999.26
660.03	25331.62
660.17	25507.16
660.32	24870.53
660.46	24905.64
660.60	24961.81
660.74	25127.99
660.89	25060.12
661.03	24973.52
661.17	24517.11
661.32	24734.78
661.46	24765.21
661.60	24842.45
661.74	24835.42
661.89	25151.40
662.03	24968.84
662.17	24725.42
662.31	24596.69
662.46	24664.57
662.60	24767.55
662.74	24655.20
662.88	24479.66
663.03	24367.32
663.17	24526.47
663.31	24666.91
663.45	24109.86
663.60	24306.46
663.74	24208.16
663.88	24030.28
664.02	24353.27
664.17	24535.84
664.31	24142.63
664.45	24416.47
664.59	24465.62
664.73	24329.87
664.88	23957.72
665.02	23882.83
665.16	23924.96
665.30	23948.36
665.44	24166.03
665.59	23608.98
665.73	24032.62
665.87	23571.54
666.01	23714.31
666.15	23667.50
666.29	23828.99
666.44	24058.37
666.58	23653.45
666.72	23534.09
666.86	23660.48
667.00	23948.36
667.14	23590.26
667.28	23470.89
667.43	23534.09
667.57	23913.25
667.71	23290.67
667.85	23234.50
667.99	23159.60
668.13	23190.03
668.27	23346.84
668.41	23335.14
668.56	23180.67
668.70	23435.78
668.84	23374.93
668.98	23110.45
669.12	23452.17
669.26	23084.70
669.40	23091.73
669.54	22920.87
669.68	23183.01
669.82	23019.17
669.96	22750.01
670.10	22785.12
670.25	23129.17
670.39	23007.47
670.53	22848.31
670.67	22745.33
670.81	22553.40
670.95	22632.98
671.09	22569.79
671.23	22462.12
671.37	22335.73
671.51	22441.06
671.65	22239.77
671.79	22429.35
671.93	22731.28
672.07	22324.03
672.21	22424.67
672.35	21998.70
672.49	21884.01
672.63	22335.73
672.77	22101.68
672.91	21937.84
673.05	21975.29
673.19	21984.65
673.33	21757.62
673.47	21923.80
673.61	22267.86
673.75	22068.91
673.89	21701.45
674.03	21902.73
674.17	21418.24
674.31	21710.81
674.45	21647.61
674.59	21811.45
674.73	21504.84
674.87	21350.37
675.01	21436.97
675.15	21649.96
675.29	21270.79
675.43	21425.26
675.56	21163.12
675.70	21451.01
675.84	21369.09
675.98	20844.81
676.12	21282.49
676.26	21455.69
676.40	20828.43
676.54	20744.17
676.68	20975.88
676.82	20425.86
676.96	20753.53
677.10	20697.36
677.23	20730.12
677.37	20671.61
677.51	20704.38
677.65	20601.40
677.79	20072.43
677.93	20322.87
678.07	20414.15
678.21	20273.72
678.34	20034.99
678.48	20135.63
678.62	20056.05
678.76	20046.69
678.90	20004.56
679.04	19885.19
679.18	19929.66
679.31	19573.90
679.45	19426.45
679.59	19625.39
679.73	19494.32
679.87	19473.26
680.00	19639.44
680.14	19316.44
680.28	19314.10
680.42	19267.29
680.56	19470.92
680.70	19197.07
680.83	19176.01
680.97	19236.86
681.11	19164.31
681.25	18918.55
681.39	19154.94
681.52	19089.41
681.66	18796.84
681.80	18775.78
681.94	18696.20
682.07	18586.19
682.21	18686.84
682.35	18263.20
682.49	18490.23
682.62	18412.99
682.76	18370.86
682.90	18398.95
683.04	18293.63
683.17	18523.00
683.31	18331.08
683.45	18551.09
683.59	17956.59
683.72	18366.18
683.86	18225.75
684.00	18082.98
684.13	18066.60
684.27	17497.84
684.41	17738.92
684.55	17731.90
684.68	17483.80
684.82	17294.22
684.96	17586.79
685.09	17528.27
685.23	17294.22
685.37	17345.71
685.50	17516.57
685.64	17247.41
685.78	17654.66
685.91	17298.90
686.05	17216.98
686.19	17074.21
686.32	17266.13
686.46	17022.72
686.60	16774.62
686.73	17020.38
686.87	16655.25
687.01	16879.94
687.14	16910.37
687.28	16746.53
687.42	16334.60
687.55	16404.81
687.69	16575.67
687.82	16170.76
687.96	16187.14
688.10	16460.99
688.23	16383.75
688.37	16465.67
688.50	16437.58
688.64	16390.77
688.78	16049.05
688.91	16065.44
689.05	15950.75
689.18	15852.45
689.32	15676.91
689.46	15726.06
689.59	15534.14
689.73	15728.40
689.86	15627.76
690.00	15499.03
690.13	15763.51
690.27	15321.15
690.41	15733.08
690.54	15550.52
690.68	15356.25
690.81	15431.15
690.95	15342.21
691.08	15363.28
691.22	15073.05
691.35	15140.93
691.49	15066.03
691.62	15239.23
691.76	15028.58
691.89	14916.23
692.03	14391.95
692.16	14644.73
692.30	14663.46
692.43	14668.14
692.57	14516.00
692.70	14754.74
692.84	14586.22
692.97	14097.05
693.11	14497.28
693.24	14539.41
693.38	14485.58
693.51	13905.12
693.65	14349.82
693.78	14235.14
693.92	13991.72
694.05	14099.39
694.19	14260.88
694.32	13991.72
694.45	13984.70
694.59	13650.00
694.72	13783.41
694.86	13752.99
694.99	13369.14
695.13	13408.93
695.26	13568.09
695.39	13334.03
695.53	13448.72
695.66	13343.39
695.80	13327.01
695.93	13364.46
696.07	13324.67
696.20	13289.56
696.33	13099.98
696.47	13018.06
696.60	13172.54
696.73	13226.37
696.87	12978.27
697.00	12903.37
697.14	12648.26
697.27	12774.64
697.40	12638.89
697.54	12496.12
697.67	12238.66
697.80	12465.69
697.94	12320.58
698.07	12311.22
698.21	12196.53
698.34	12238.66
698.47	12397.82
698.61	12201.21
698.74	12091.21
698.87	12287.81
699.01	12362.71
699.14	11999.93
699.27	11960.14
699.40	11995.25
699.54	11868.86
699.67	11854.81
699.80	11683.95
699.94	11702.68
700.07	11730.76
700.20	11489.69
700.34	11557.57
700.47	11527.14
700.60	11566.93
700.73	11405.43
700.87	11569.27
701.00	11358.62
701.13	11257.98
701.26	11377.34
701.40	11522.46
701.53	11349.26
701.66	11328.19
701.79	11208.83
701.93	10993.50
702.06	11002.86
702.19	10757.10
702.32	10881.15
702.46	10663.48
702.59	10621.35
702.72	10841.36
702.85	10492.62
702.99	10738.38
703.12	10401.34
703.25	10354.53
703.38	10476.24
703.51	10413.04
703.65	10324.10
703.78	10581.56
703.91	10438.79
704.04	10441.13
704.17	10331.12
704.31	10258.57
704.44	10127.50
704.57	10122.82
704.70	10148.56
704.83	9996.43
704.96	9886.42
705.10	9851.31
705.23	9788.12
>>>>>End Processed Spectral Data<<<<<
