SpectraSuite Data File
++++++++++++++++++++++++++++++++++++
Date: Fri Oct 18 13:58:33 GMT-05:00 2013
User: bianchi
Dark Spectrum Present: No
Reference Spectrum Present: No
Number of Sampled Component Spectra: 1
Spectrometers: USB2+H05261
Integration Time (usec): 50000 (USB2+H05261)
Spectra Averaged: 1 (USB2+H05261)
Boxcar Smoothing: 0 (USB2+H05261)
Correct for Electrical Dark: No (USB2+H05261)
Strobe/Lamp Enabled: No (USB2+H05261)
Correct for Detector Non-linearity: No (USB2+H05261)
Correct for Stray Light: No (USB2+H05261)
Number of Pixels in Processed Spectrum: 2048
>>>>>Begin Processed Spectral Data<<<<<
365.73	0.00
365.92	0.00
366.12	0.00
366.32	0.00
366.52	0.00
366.72	0.00
366.91	0.00
367.11	0.00
367.31	0.00
367.51	0.00
367.70	0.00
367.90	0.00
368.10	0.00
368.30	0.00
368.49	0.00
368.69	0.00
368.89	0.00
369.09	0.00
369.28	0.00
369.48	0.00
369.68	0.00
369.87	0.00
370.07	0.00
370.27	0.00
370.47	0.00
370.66	112.35
370.86	131.07
371.06	161.50
371.25	112.35
371.45	147.45
371.65	147.45
371.84	77.24
372.04	140.43
372.24	194.26
372.44	145.11
372.63	149.79
372.83	210.65
373.03	203.63
373.22	152.13
373.42	224.69
373.62	152.13
373.81	194.26
374.01	299.59
374.21	320.65
374.40	243.42
374.60	248.10
374.79	280.86
374.99	241.08
375.19	280.86
375.38	222.35
375.58	243.42
375.78	238.73
375.97	301.93
376.17	315.97
376.37	184.90
376.56	362.78
376.76	208.31
376.95	243.42
377.15	245.76
377.35	262.14
377.54	292.57
377.74	194.26
377.93	245.76
378.13	276.18
378.33	241.08
378.52	217.67
378.72	259.80
378.91	285.55
379.11	259.80
379.31	215.33
379.50	285.55
379.70	304.27
379.89	285.55
380.09	273.84
380.28	322.99
380.48	231.71
380.68	273.84
380.87	278.52
381.07	271.50
381.26	301.93
381.46	327.68
381.65	358.10
381.85	301.93
382.04	313.63
382.24	395.55
382.43	299.59
382.63	301.93
382.83	320.65
383.02	337.04
383.22	428.32
383.41	402.57
383.61	304.27
383.80	334.70
384.00	346.40
384.19	376.83
384.39	393.21
384.58	367.46
384.78	402.57
384.97	395.55
385.17	379.17
385.36	379.17
385.56	360.44
385.75	409.59
385.95	388.53
386.14	425.98
386.34	306.61
386.53	418.96
386.72	360.44
386.92	482.15
387.11	369.80
387.31	383.85
387.50	425.98
387.70	463.43
387.89	351.08
388.09	397.89
388.28	416.62
388.48	360.44
388.67	463.43
388.86	442.36
389.06	454.06
389.25	451.72
389.45	472.79
389.64	449.38
389.84	463.43
390.03	425.98
390.22	491.51
390.42	517.26
390.61	395.55
390.81	440.02
391.00	486.83
391.19	472.79
391.39	528.96
391.58	472.79
391.78	500.87
391.97	524.28
392.16	535.98
392.36	573.43
392.55	505.56
392.75	564.07
392.94	486.83
393.13	416.62
393.33	559.39
393.52	507.90
393.71	540.66
393.91	578.11
394.10	533.64
394.29	540.66
394.49	526.62
394.68	599.18
394.88	603.86
395.07	638.97
395.26	624.92
395.46	645.99
395.65	512.58
395.84	638.97
396.04	688.12
396.23	634.29
396.42	627.26
396.62	671.73
396.81	660.03
397.00	589.82
397.19	629.60
397.39	662.37
397.58	599.18
397.77	550.03
397.97	664.71
398.16	713.86
398.35	697.48
398.55	718.54
398.74	650.67
398.93	732.59
399.12	734.93
399.32	653.01
399.51	664.71
399.70	763.01
399.90	685.78
400.09	725.57
400.28	765.36
400.47	809.83
400.67	718.54
400.86	788.76
401.05	713.86
401.24	723.23
401.44	784.08
401.63	786.42
401.82	723.23
402.01	800.46
402.21	856.64
402.40	830.89
402.59	786.42
402.78	905.79
402.97	826.21
403.17	858.98
403.36	875.36
403.55	861.32
403.74	985.37
403.93	915.15
404.13	936.21
404.32	840.25
404.51	854.30
404.70	971.32
404.89	870.68
405.09	891.74
405.28	903.45
405.47	931.53
405.66	973.66
405.85	959.62
406.05	926.85
406.24	936.21
406.43	947.92
406.62	976.00
406.81	926.85
407.00	903.45
407.20	1046.22
407.39	1029.84
407.58	1006.43
407.77	1020.47
407.96	1135.16
408.15	1156.22
408.34	1139.84
408.54	1142.18
408.73	1081.33
408.92	1043.88
409.11	1111.75
409.30	1146.86
409.49	1109.41
409.68	1139.84
409.87	1151.54
410.07	1149.20
410.26	1226.44
410.45	1228.78
410.64	1203.04
410.83	1214.74
411.02	1188.99
411.21	1137.50
411.40	1174.95
411.59	1291.98
411.78	1219.42
411.98	1287.29
412.17	1359.85
412.36	1350.49
412.55	1439.43
412.74	1392.62
412.93	1383.26
413.12	1430.07
413.31	1481.56
413.50	1404.32
413.69	1327.08
413.88	1352.83
414.07	1401.98
414.26	1399.64
414.45	1399.64
414.64	1364.53
414.83	1448.79
415.02	1561.14
415.22	1500.28
415.41	1500.28
415.60	1427.73
415.79	1481.56
415.98	1507.30
416.17	1589.22
416.36	1621.99
416.55	1647.74
416.74	1629.01
416.93	1650.08
417.12	1612.63
417.31	1671.14
417.50	1666.46
417.69	1769.44
417.88	1713.27
418.07	1715.61
418.26	1753.06
418.45	1706.25
418.64	1813.92
418.83	1769.44
419.02	1750.72
419.21	1863.07
419.39	1923.92
419.58	1818.60
419.77	1867.75
419.96	1879.45
420.15	1874.77
420.34	1870.09
420.53	1952.01
420.72	1849.02
420.91	1949.67
421.10	1912.22
421.29	2008.18
421.48	1804.55
421.67	1870.09
421.86	1865.41
422.05	1902.86
422.24	2017.54
422.43	1930.94
422.61	2017.54
422.80	2101.80
422.99	2026.90
423.18	2019.88
423.37	2064.35
423.56	1982.43
423.75	1994.14
423.94	1842.00
424.13	1870.09
424.32	1874.77
424.50	1984.77
424.69	2069.03
424.88	2024.56
425.07	1952.01
425.26	1998.82
425.45	2071.37
425.64	1984.77
425.83	2097.12
426.01	2083.08
426.20	2071.37
426.39	2031.58
426.58	2005.84
426.77	2022.22
426.96	2157.97
427.15	2076.06
427.33	2099.46
427.52	2139.25
427.71	2125.21
427.90	2207.13
428.09	2200.10
428.28	2188.40
428.46	2181.38
428.65	2139.25
428.84	2190.74
429.03	2197.76
429.22	2136.91
429.40	2223.51
429.59	2150.95
429.78	2134.57
429.97	2139.25
430.16	2200.10
430.34	2244.57
430.53	2225.85
430.72	2242.23
430.91	2328.83
431.10	2354.58
431.28	2385.01
431.47	2373.30
431.66	2401.39
431.85	2296.07
432.03	2335.85
432.22	2373.30
432.41	2317.13
432.60	2354.58
432.79	2436.50
432.97	2424.80
433.16	2452.88
433.35	2427.14
433.54	2361.60
433.72	2410.75
433.91	2513.74
434.10	2509.05
434.28	2485.65
434.47	2516.08
434.66	2513.74
434.85	2593.31
435.03	2621.40
435.22	2576.93
435.41	2705.66
435.59	2689.28
435.78	2649.49
435.97	2640.12
436.16	2619.06
436.34	2562.89
436.53	2670.55
436.72	2820.35
436.90	2656.51
437.09	2708.00
437.28	2700.98
437.46	2761.83
437.65	2731.41
437.84	2705.66
438.02	2771.19
438.21	2612.04
438.40	2663.53
438.58	2832.05
438.77	2764.17
438.96	2710.34
439.14	2904.60
439.33	2916.31
439.52	2991.20
439.70	2949.08
439.89	3173.77
440.08	3042.70
440.26	3124.62
440.45	2998.23
440.63	3103.55
440.82	3073.12
441.01	3019.29
441.19	3183.13
441.38	3122.27
441.57	3143.34
441.75	3213.56
441.94	3222.92
442.12	3260.37
442.31	3311.86
442.50	3365.69
442.68	3407.82
442.87	3325.90
443.05	3206.53
443.24	3337.60
443.43	3365.69
443.61	3543.57
443.80	3456.97
443.98	3311.86
444.17	3363.35
444.35	3363.35
444.54	3473.36
444.73	3487.40
444.91	3520.17
445.10	3398.46
445.28	3508.46
445.47	3466.33
445.65	3466.33
445.84	3485.06
446.02	3419.52
446.21	3461.65
446.39	3431.23
446.58	3578.68
446.77	3531.87
446.95	3356.33
447.14	3515.48
447.32	3471.01
447.51	3405.48
447.69	3461.65
447.88	3583.36
448.06	3478.04
448.25	3527.19
448.43	3543.57
448.62	3585.70
448.80	3538.89
448.99	3557.61
449.17	3531.87
449.36	3489.74
449.54	3698.05
449.73	3548.25
449.91	3623.15
450.10	3751.88
450.28	3768.26
450.46	3822.09
450.65	3723.79
450.83	3742.52
451.02	3772.94
451.20	3749.54
451.39	3798.69
451.57	3721.45
451.76	3779.97
451.94	3737.84
452.13	3831.46
452.31	3798.69
452.49	3721.45
452.68	3892.31
452.86	3908.69
453.05	3861.88
453.23	3857.20
453.42	3892.31
453.60	3829.12
453.78	3808.05
453.97	3889.97
454.15	3847.84
454.34	3815.07
454.52	4067.85
454.70	3936.78
454.89	4095.94
455.07	4079.55
455.26	4121.68
455.44	4203.60
455.62	4030.40
455.81	3985.93
455.99	4025.72
456.17	4126.36
456.36	4070.19
456.54	4159.13
456.73	4257.43
456.91	4159.13
457.09	4107.64
457.28	4304.25
457.46	4074.87
457.64	4332.33
457.83	4262.12
458.01	4107.64
458.19	4292.54
458.38	4297.22
458.56	4451.70
458.74	4210.62
458.93	4393.19
459.11	4416.59
459.29	4435.32
459.48	4442.34
459.66	4414.25
459.84	4510.21
460.03	4641.28
460.21	4491.49
460.39	4402.55
460.57	4442.34
460.76	4643.62
460.94	4695.11
461.12	4519.57
461.31	4638.94
461.49	4636.60
461.67	4596.81
461.85	4648.30
462.04	4692.77
462.22	4770.01
462.40	4706.82
462.59	4889.38
462.77	4753.63
462.95	4744.27
463.13	4638.94
463.32	4702.14
463.50	4894.06
463.68	4781.71
463.86	4779.37
464.05	4788.74
464.23	4734.90
464.41	5041.51
464.59	4603.83
464.78	4926.83
464.96	5160.88
465.14	4770.01
465.32	5039.17
465.50	5057.90
465.69	4947.89
465.87	4917.47
466.05	4966.62
466.23	5102.37
466.41	5128.11
466.60	5205.35
466.78	4887.04
466.96	4966.62
467.14	5046.20
467.32	5039.17
467.51	5184.29
467.69	4987.68
467.87	5055.56
468.05	5130.45
468.23	5022.79
468.41	5074.28
468.60	5121.09
468.78	5217.05
468.96	5359.83
469.14	5203.01
469.32	5331.74
469.50	5203.01
469.69	5245.14
469.87	5298.97
470.05	5369.19
470.23	5291.95
470.41	5380.89
470.59	5453.45
470.77	5500.26
470.95	5165.56
471.14	5565.79
471.32	5467.49
471.50	5544.73
471.68	5528.35
471.86	5476.85
472.04	5575.16
472.22	5760.06
472.40	5619.63
472.58	5636.01
472.77	5689.84
472.95	5795.17
473.13	6038.58
473.31	5844.32
473.49	5830.27
473.67	5827.93
473.85	5781.12
474.03	6008.16
474.21	5947.30
474.39	6024.54
474.57	5933.26
474.75	6139.23
474.93	6258.59
475.12	6197.74
475.30	6108.80
475.48	6253.91
475.66	6214.12
475.84	6258.59
476.02	6230.51
476.20	6200.08
476.38	6342.85
476.56	6494.99
476.74	6546.48
476.92	6380.30
477.10	6513.71
477.28	6726.70
477.46	6483.28
477.64	6649.46
477.82	6780.53
478.00	6806.28
478.18	6700.95
478.36	6796.92
478.54	6918.62
478.72	7166.72
478.90	7321.20
479.08	7145.66
479.26	7227.57
479.44	7166.72
479.62	7370.35
479.80	7295.45
479.98	7407.80
480.16	7508.44
480.34	7403.11
480.52	7478.01
480.70	7641.85
480.88	7456.95
481.06	7698.02
481.24	7623.12
481.41	7812.71
481.59	8046.76
481.77	8056.12
481.95	8051.44
482.13	8030.38
482.31	7950.80
482.49	8194.22
482.67	8313.58
482.85	8273.79
483.03	8292.52
483.21	8442.31
483.39	8671.68
483.57	8475.08
483.74	8678.71
483.92	8601.47
484.10	8624.87
484.28	8915.10
484.46	8793.39
484.64	9348.10
484.82	8889.35
485.00	9083.62
485.18	9315.33
485.35	9156.18
485.53	9090.64
485.71	9355.12
485.89	9490.87
486.07	9472.15
486.25	9511.94
486.43	9572.79
486.61	9605.56
486.78	9825.57
486.96	9874.72
487.14	10059.62
487.32	10012.81
487.50	10111.11
487.68	10090.05
487.85	10331.12
488.03	10331.12
488.21	10576.88
488.39	10752.42
488.57	10532.41
488.75	10518.37
488.92	10717.31
489.10	10698.59
489.28	10885.83
489.46	11047.33
489.64	10883.49
489.81	11185.42
489.99	11311.81
490.17	11119.89
490.35	11520.12
490.53	11431.18
490.70	11281.38
490.88	11499.05
491.06	11700.34
491.24	11616.08
491.41	11824.39
491.59	11674.59
491.77	11988.22
491.95	11868.86
492.13	11953.12
492.30	12070.14
492.48	12224.62
492.66	12362.71
492.84	12114.61
493.01	12615.49
493.19	12446.97
493.37	12549.95
493.54	12812.09
493.72	12671.66
493.90	12718.47
494.08	12758.26
494.25	12884.65
494.43	12851.88
494.61	13027.42
494.79	13434.68
494.96	13280.20
495.14	13219.35
495.32	13542.34
495.49	13399.57
495.67	13460.42
495.85	13771.71
496.02	13755.33
496.20	13748.31
496.38	13958.96
496.55	13771.71
496.73	14295.99
496.91	14010.45
497.09	14106.41
497.26	14155.56
497.44	14649.41
497.62	14267.91
497.79	14420.04
497.97	14450.47
498.14	14672.82
498.32	14511.32
498.50	14764.10
498.67	14860.06
498.85	14946.66
499.03	14899.85
499.20	15274.34
499.38	15066.03
499.56	15028.58
499.73	15321.15
499.91	15492.01
500.08	15171.35
500.26	15213.48
500.44	15342.21
500.61	15403.07
500.79	15403.07
500.97	15426.47
501.14	15704.99
501.32	15606.69
501.49	15728.40
501.67	15852.45
501.84	15709.68
502.02	16016.29
502.20	16020.97
502.37	16016.29
502.55	16060.76
502.72	15817.34
502.90	16210.55
503.07	16016.29
503.25	16095.86
503.43	16116.93
503.60	16404.81
503.78	16276.09
503.95	16704.40
504.13	16222.25
504.30	16601.42
504.48	16376.73
504.65	16681.00
504.83	16891.65
505.01	16821.43
505.18	17296.56
505.36	16989.95
505.53	16886.97
505.71	17006.33
505.88	17233.36
506.06	16980.59
506.23	17029.74
506.41	17090.59
506.58	17174.85
506.76	17359.75
506.93	17259.11
507.11	17556.36
507.28	17774.03
507.46	17371.46
507.63	17427.63
507.81	17898.08
507.98	17832.54
508.16	17783.39
508.33	17926.16
508.50	17720.20
508.68	17839.56
508.85	18115.75
509.03	17975.31
509.20	17963.61
509.38	18497.25
509.55	18307.67
509.73	18347.46
509.90	18408.31
510.08	18197.67
510.25	18218.73
510.42	18537.04
510.60	18462.15
510.77	18555.77
510.95	18703.22
511.12	18785.14
511.30	18431.72
511.47	18427.04
511.64	18773.44
511.82	18920.89
511.99	18904.51
512.17	19164.31
512.34	18925.57
512.51	18956.00
512.69	18972.38
512.86	19161.97
513.04	19215.80
513.21	19311.76
513.38	19211.12
513.56	19335.17
513.73	19201.76
513.90	19094.09
514.08	19330.48
514.25	19506.02
514.43	19747.10
514.60	19733.06
514.77	19604.33
514.95	19711.99
515.12	19318.78
515.29	19683.91
515.47	19800.93
515.64	19892.21
515.81	19880.51
515.99	20037.33
516.16	19840.72
516.33	20170.74
516.51	20266.70
516.68	20065.41
516.85	20168.40
517.03	20453.94
517.20	20313.51
517.37	20542.88
517.54	20353.30
517.72	20692.68
517.89	20114.56
518.06	20547.56
518.24	20149.67
518.41	20601.40
518.58	20795.66
518.75	20372.02
518.93	20723.10
519.10	20718.42
519.27	20957.16
519.45	20776.94
519.62	21006.31
519.79	20973.54
519.96	20924.39
520.14	21102.27
520.31	21095.25
520.48	21027.37
520.65	20989.92
520.83	21069.50
521.00	21350.37
521.17	21249.72
521.34	21128.02
521.52	21275.47
521.69	21439.31
521.86	21703.79
522.03	21820.81
522.20	21507.18
522.38	21612.51
522.55	21647.61
522.72	21493.14
522.89	21778.68
523.07	22190.62
523.24	21647.61
523.41	22087.64
523.58	21942.52
523.75	21991.67
523.92	21827.84
524.10	21898.05
524.27	22085.30
524.44	22394.25
524.61	22324.03
524.78	22349.78
524.96	22389.56
525.13	22305.31
525.30	22178.92
525.47	22288.92
525.64	22611.92
525.81	22333.39
525.98	22918.53
526.16	22569.79
526.33	22691.49
526.50	22689.15
526.67	22370.84
526.84	22757.03
527.01	22455.10
527.18	22794.48
527.36	22675.11
527.53	23122.15
527.70	23042.57
527.87	23293.01
528.04	23051.94
528.21	23173.64
528.38	23082.36
528.55	23255.56
528.72	23449.83
528.89	23356.21
529.07	23161.94
529.24	23473.23
529.41	23166.62
529.58	23681.54
529.75	23307.05
529.92	23508.34
530.09	23285.99
530.26	23440.47
530.43	23662.82
530.60	23297.69
530.77	23461.53
530.94	23662.82
531.11	23740.05
531.28	23391.31
531.46	23454.51
531.63	23433.44
531.80	23889.85
531.97	23894.53
532.14	23784.52
532.31	24016.24
532.48	23929.64
532.65	24161.35
532.82	23955.38
532.99	24030.28
533.16	23756.44
533.33	24016.24
533.50	24137.94
533.67	24180.07
533.84	23929.64
534.01	24283.06
534.18	23817.29
534.35	24573.28
534.52	24287.74
534.69	24826.06
534.86	24666.91
535.03	24559.24
535.20	24489.03
535.37	24521.79
535.54	24479.66
535.71	24465.62
535.88	24444.56
536.05	24297.10
536.22	24744.14
536.38	24680.95
536.55	24788.61
536.72	24790.95
536.89	24620.10
537.06	24659.88
537.23	25273.10
537.40	24879.89
537.57	24882.24
537.74	24877.55
537.91	25378.43
538.08	25111.61
538.25	24910.32
538.42	25041.39
538.59	25336.30
538.75	25067.14
538.92	25252.04
539.09	25287.15
539.26	25458.01
539.43	25032.03
539.60	25579.71
539.77	25106.93
539.94	25577.37
540.11	25113.95
540.28	25310.55
540.44	25233.32
540.61	25188.85
540.78	25432.26
540.95	25607.80
541.12	25560.99
541.29	25790.36
541.46	25654.61
541.62	25291.83
541.79	25750.57
541.96	25399.49
542.13	25296.51
542.30	25809.09
542.47	25841.85
542.63	25748.23
542.80	25734.19
542.97	25841.85
543.14	26078.25
543.31	26078.25
543.48	26270.17
543.64	26204.64
543.81	26424.65
543.98	26288.90
544.15	26188.25
544.32	26689.13
544.48	26293.58
544.65	26565.08
544.82	26281.88
544.99	26263.15
545.16	26426.99
545.32	26244.43
545.49	26462.10
545.66	26597.85
545.83	26417.63
546.00	26855.31
546.16	26611.89
546.33	26630.62
546.50	26169.53
546.67	26834.24
546.83	26136.76
547.00	26881.05
547.17	26719.56
547.34	26485.50
547.50	26801.47
547.67	26993.40
547.84	27007.44
548.00	27026.17
548.17	27117.45
548.34	26967.65
548.51	27276.60
548.67	27075.32
548.84	27037.87
549.01	27166.60
549.18	26778.07
549.34	26855.31
549.51	27061.27
549.68	27122.13
549.84	27101.06
550.01	27339.80
550.18	26941.91
550.34	27292.99
550.51	27239.15
550.68	27363.20
550.84	27180.64
551.01	27550.45
551.18	27028.51
551.34	27281.28
551.51	27220.43
551.68	27433.42
551.84	27351.50
552.01	27391.29
552.18	27529.38
552.34	27566.83
552.51	27438.10
552.68	27424.06
552.84	27426.40
553.01	27449.80
553.18	27381.93
553.34	27882.80
553.51	27597.26
553.67	28056.00
553.84	27906.21
554.01	27742.37
554.17	27482.57
554.34	27723.65
554.51	27648.75
554.67	28168.35
554.84	27770.46
555.00	27777.48
555.17	27740.03
555.33	28266.65
555.50	27917.91
555.67	27580.87
555.83	27716.62
556.00	27971.74
556.16	28133.24
556.33	27887.48
556.50	27768.12
556.66	28184.73
556.83	27967.06
556.99	27857.06
557.16	28170.69
557.32	28290.06
557.49	28168.35
557.65	28360.27
557.82	27931.95
557.98	28229.20
558.15	28297.08
558.32	28662.20
558.48	28388.36
558.65	28451.55
558.81	28299.42
558.98	28252.61
559.14	28561.56
559.31	28180.05
559.47	28088.77
559.64	28334.53
559.80	28236.22
559.97	28725.39
560.13	28634.11
560.30	28088.77
560.46	28439.85
560.63	28194.09
560.79	28678.58
560.96	29060.09
561.12	28669.22
561.29	28594.32
561.45	28025.57
561.61	28872.85
561.78	28603.69
561.94	28680.92
562.11	28926.68
562.27	28662.20
562.44	28973.49
562.60	28414.10
562.77	28549.85
562.93	28320.48
563.10	28613.05
563.26	28526.45
563.42	28877.53
563.59	28814.34
563.75	28767.52
563.92	28591.98
564.08	28259.63
564.24	28652.84
564.41	28636.45
564.57	28594.32
564.74	28877.53
564.90	28922.00
565.07	29081.16
565.23	29055.41
565.39	29076.48
565.56	29027.32
565.72	28905.62
565.88	28830.72
566.05	28975.83
566.21	28856.46
566.38	28875.19
566.54	28973.49
566.70	29041.37
566.87	29088.18
567.03	29041.37
567.19	29184.14
567.36	29642.88
567.52	29209.89
567.68	29106.90
567.85	29369.04
568.01	29242.65
568.17	29125.63
568.34	29069.45
568.50	29081.16
568.66	29301.17
568.83	29081.16
568.99	29097.54
569.15	29055.41
569.32	29575.01
569.48	28975.83
569.64	29268.40
569.81	28833.06
569.97	29240.31
570.13	29097.54
570.30	28826.04
570.46	29369.04
570.62	29153.71
570.78	29219.25
570.95	29254.36
571.11	29050.73
571.27	29156.05
571.43	28922.00
571.60	29394.79
571.76	29415.85
571.92	29090.52
572.09	29151.37
572.25	29415.85
572.41	29263.72
572.57	29242.65
572.74	29766.93
572.90	29153.71
573.06	29472.03
573.22	28994.56
573.38	29099.88
573.55	29242.65
573.71	29659.27
573.87	29535.22
574.03	29413.51
574.20	29319.89
574.36	29195.84
574.52	29347.98
574.68	29338.62
574.84	29717.78
575.01	29123.29
575.17	29542.24
575.33	29366.70
575.49	29266.06
575.65	29827.79
575.82	29532.88
575.98	29350.32
576.14	29212.23
576.30	29432.24
576.46	29598.41
576.62	29001.58
576.79	29951.84
576.95	29233.29
577.11	29326.91
577.27	29642.88
577.43	29706.08
577.59	29298.83
577.75	29565.65
577.92	29472.03
578.08	29172.44
578.24	28950.09
578.40	29741.19
578.56	29612.46
578.72	29876.94
578.88	29764.59
579.04	29563.31
579.21	29567.99
579.37	29673.31
579.53	29612.46
579.69	29441.60
579.85	29453.30
580.01	29706.08
580.17	29582.03
580.33	29378.40
580.49	29467.34
580.65	29898.00
580.82	29074.13
580.98	29862.90
581.14	29345.64
581.30	29816.08
581.46	29898.00
581.62	29584.37
581.78	29287.12
581.94	29371.38
582.10	29734.17
582.26	29600.76
582.42	29497.77
582.58	29659.27
582.74	29778.64
582.90	29677.99
583.06	29296.49
583.22	29432.24
583.38	29729.48
583.54	29528.20
583.70	29553.94
583.86	29750.55
584.02	29329.25
584.18	29900.34
584.34	29979.92
584.50	29837.15
584.66	29773.95
584.82	29252.02
584.98	29619.48
585.14	29560.97
585.30	29780.98
585.46	29750.55
585.62	29514.16
585.78	29490.75
585.94	29647.57
586.10	29717.78
586.26	29685.01
586.42	29596.07
586.58	29598.41
586.74	29722.46
586.90	29486.07
587.06	29596.07
587.22	29486.07
587.38	29336.27
587.54	29853.53
587.70	29986.94
587.86	29738.85
588.02	30064.18
588.18	29905.02
588.34	29713.10
588.49	29635.86
588.65	29982.26
588.81	29930.77
588.97	29692.04
589.13	29813.74
589.29	29832.47
589.45	29563.31
589.61	29958.86
589.77	30183.55
589.93	30209.29
590.08	30293.55
590.24	30047.80
590.40	29982.26
590.56	30298.23
590.72	30094.61
590.88	30043.12
591.04	30071.20
591.20	30103.97
591.35	29696.72
591.51	30209.29
591.67	30478.46
591.83	29862.90
591.99	30260.79
592.15	30204.61
592.31	30000.99
592.46	29696.72
592.62	30038.44
592.78	29874.60
592.94	30143.76
593.10	30043.12
593.26	29972.90
593.41	30632.93
593.57	30115.67
593.73	30438.67
593.89	30375.47
594.05	30045.46
594.20	30230.36
594.36	30319.30
594.52	30110.99
594.68	30206.95
594.84	30057.16
594.99	30333.34
595.15	30136.74
595.31	29972.90
595.47	29879.28
595.62	30125.04
595.78	30244.40
595.94	29905.02
596.10	30223.34
596.25	30019.71
596.41	29970.56
596.57	29846.51
596.73	30281.85
596.88	30448.03
597.04	30487.82
597.20	30279.51
597.36	30478.46
597.51	30167.16
597.67	30314.62
597.83	29926.09
597.99	30209.29
598.14	30033.75
598.30	30071.20
598.46	29759.91
598.61	29757.57
598.77	29755.23
598.93	30270.15
599.09	30426.96
599.24	30209.29
599.40	30401.22
599.56	30272.49
599.71	30508.88
599.87	30242.06
600.03	30216.32
600.18	30164.82
600.34	30113.33
600.50	30518.25
600.65	29905.02
600.81	30298.23
600.97	30354.41
601.12	30082.91
601.28	29930.77
601.44	30155.46
601.59	30677.40
601.75	30768.68
601.91	30373.13
602.06	30157.80
602.22	30153.12
602.37	30199.93
602.53	29907.37
602.69	30450.37
602.84	30466.75
603.00	30209.29
603.16	30356.75
603.31	30366.11
603.47	30101.63
603.62	29855.87
603.78	30382.49
603.94	29947.15
604.09	30129.72
604.25	30242.06
604.40	30115.67
604.56	30195.25
604.71	30380.15
604.87	30258.45
605.03	30462.07
605.18	30354.41
605.34	29874.60
605.49	29701.40
605.65	30462.07
605.80	29844.17
605.96	30005.67
606.12	30082.91
606.27	30565.06
606.43	30078.22
606.58	30307.60
606.74	30377.81
606.89	29968.22
607.05	30363.77
607.20	30150.78
607.36	30143.76
607.51	29982.26
607.67	29923.75
607.82	29963.54
607.98	29844.17
608.13	30127.38
608.29	29876.94
608.44	30232.70
608.60	29909.71
608.75	30213.98
608.91	30139.08
609.06	29907.37
609.22	30075.88
609.37	30008.01
609.53	29607.78
609.68	30115.67
609.84	29869.92
609.99	29780.98
610.15	29940.13
610.30	29647.57
610.46	29853.53
610.61	30125.04
610.76	30267.81
610.92	29759.91
611.07	30092.27
611.23	29935.45
611.38	29827.79
611.54	29376.06
611.69	29809.06
611.84	29640.54
612.00	29816.08
612.15	29638.20
612.31	29921.41
612.46	29776.30
612.62	29766.93
612.77	29766.93
612.92	30237.38
613.08	30085.25
613.23	29699.06
613.39	29738.85
613.54	29366.70
613.69	29542.24
613.85	29804.38
614.00	29640.54
614.15	29663.95
614.31	29268.40
614.46	30052.48
614.62	29724.80
614.77	29804.38
614.92	29890.98
615.08	29809.06
615.23	29448.62
615.38	29633.52
615.54	29252.02
615.69	29289.46
615.84	29404.15
616.00	29722.46
616.15	29663.95
616.30	29923.75
616.46	28929.02
616.61	29624.16
616.76	29759.91
616.92	29631.18
617.07	29553.94
617.22	28912.64
617.37	29191.16
617.53	29441.60
617.68	29113.92
617.83	29137.33
617.99	29095.20
618.14	29113.92
618.29	29263.72
618.45	29589.05
618.60	29270.74
618.75	29591.39
618.90	29455.64
619.06	29727.14
619.21	29509.47
619.36	29401.81
619.51	28814.34
619.67	28973.49
619.82	28833.06
619.97	29324.57
620.12	29263.72
620.28	29369.04
620.43	29343.30
620.58	29235.63
620.73	29207.55
620.89	28964.13
621.04	29125.63
621.19	29340.96
621.34	28931.36
621.49	29013.28
621.65	28814.34
621.80	28863.49
621.95	29022.64
622.10	29184.14
622.25	29156.05
622.41	28790.93
622.56	28884.55
622.71	29404.15
622.86	29071.79
623.01	28760.50
623.16	28711.35
623.32	28809.65
623.47	28718.37
623.62	28676.24
623.77	28524.11
623.92	29020.30
624.07	28507.72
624.23	28582.62
624.38	28844.76
624.53	28790.93
624.68	28795.61
624.83	29048.39
624.98	28573.26
625.13	28549.85
625.29	28762.84
625.44	28701.99
625.59	28606.03
625.74	28374.31
625.89	28308.78
626.04	28243.24
626.19	28629.43
626.34	28233.88
626.49	28456.23
626.65	28278.35
626.80	28587.30
626.95	28386.02
627.10	28875.19
627.25	28299.42
627.40	28048.98
627.55	28386.02
627.70	27857.06
627.85	28168.35
628.00	28233.88
628.15	28114.52
628.30	28046.64
628.45	28407.08
628.60	28240.90
628.76	28325.16
628.91	28210.48
629.06	28280.69
629.21	28151.96
629.36	28287.71
629.51	28112.17
629.66	27875.78
629.81	27840.67
629.96	27779.82
630.11	27983.44
630.26	28098.13
630.41	28039.62
630.56	27826.63
630.71	28128.56
630.86	27931.95
631.01	28156.64
631.16	28030.26
631.31	27967.06
631.46	27744.71
631.61	27824.29
631.76	27810.25
631.91	27623.00
632.06	27475.55
632.21	27744.71
632.36	27569.17
632.51	27091.70
632.66	28051.32
632.81	27695.56
632.96	27681.52
633.10	27625.34
633.25	28032.60
633.40	27728.33
633.55	27330.44
633.70	27070.64
633.85	27182.98
634.00	27456.82
634.15	27676.83
634.30	27405.33
634.45	27374.91
634.60	27260.22
634.75	27379.59
634.90	27445.12
635.05	27346.82
635.19	27445.12
635.34	27763.43
635.49	27707.26
635.64	27417.04
635.79	27288.31
635.94	27522.36
636.09	27646.41
636.24	26991.06
636.39	27583.21
636.53	27365.54
636.68	27323.41
636.83	27051.91
636.98	27220.43
637.13	27206.39
637.28	27304.69
637.43	27276.60
637.57	27094.04
637.72	27234.47
637.87	27040.21
638.02	27185.32
638.17	27140.85
638.32	26981.70
638.46	27028.51
638.61	26859.99
638.76	26733.60
638.91	26960.63
639.06	27194.68
639.20	27129.15
639.35	27115.11
639.50	27131.49
639.65	26986.38
639.80	27061.27
639.94	27033.19
640.09	26766.37
640.24	27211.07
640.39	26698.49
640.54	26501.89
640.68	26651.68
640.83	26609.55
640.98	26218.68
641.13	26576.78
641.27	26836.58
641.42	26628.27
641.57	26319.32
641.72	26710.19
641.86	26644.66
642.01	26614.23
642.16	26132.08
642.31	26361.45
642.45	26452.73
642.60	26274.85
642.75	26251.45
642.90	26199.96
643.04	26555.72
643.19	26059.52
643.34	26757.00
643.48	26050.16
643.63	26239.75
643.78	26436.35
643.93	26485.50
644.07	26471.46
644.22	26382.52
644.37	26541.68
644.51	26602.53
644.66	26284.22
644.81	26167.19
644.95	26188.25
645.10	26202.30
645.25	25851.22
645.39	26279.54
645.54	26567.42
645.69	26274.85
645.83	26239.75
645.98	26195.28
646.13	26153.15
646.27	26373.16
646.42	26380.18
646.57	26087.61
646.71	26419.97
646.86	26111.02
647.00	26017.40
647.15	25813.77
647.30	25717.81
647.44	25488.43
647.59	26059.52
647.74	25790.36
647.88	25965.90
648.03	26232.72
648.17	26061.87
648.32	26347.41
648.47	26031.44
648.61	25846.54
648.76	25827.81
648.90	26108.68
649.05	25720.15
649.20	25862.92
649.34	25532.90
649.49	25783.34
649.63	25879.30
649.78	25891.01
649.92	25593.76
650.07	26064.21
650.21	25649.93
650.36	25647.59
650.51	25509.50
650.65	25809.09
650.80	25694.40
650.94	25645.25
651.09	25509.50
651.23	25425.24
651.38	25687.38
651.52	25654.61
651.67	25729.51
651.81	25560.99
651.96	25401.83
652.10	25596.10
652.25	25399.49
652.39	25469.71
652.54	25443.96
652.68	25509.50
652.83	25617.16
652.97	25558.65
653.12	25399.49
653.26	25411.20
653.41	25663.97
653.55	25245.02
653.70	24999.26
653.84	25413.54
653.99	25310.55
654.13	25055.43
654.27	25228.63
654.42	24968.84
654.56	25345.66
654.71	25441.62
654.85	25563.33
655.00	25366.73
655.14	25027.35
655.29	25284.81
655.43	25263.74
655.57	25254.38
655.72	25003.94
655.86	24917.34
656.01	25071.82
656.15	24741.80
656.30	24985.22
656.44	25025.01
656.58	24814.36
656.73	25212.25
656.87	25219.27
657.01	24879.89
657.16	24517.11
657.30	24985.22
657.45	25282.47
657.59	25081.18
657.73	24788.61
657.88	24723.08
658.02	24755.85
658.16	24580.31
658.31	24666.91
658.45	24643.50
658.60	24386.04
658.74	24594.35
658.88	24622.44
659.03	24414.13
659.17	24903.30
659.31	24900.96
659.46	24765.21
659.60	24489.03
659.74	24713.72
659.89	24624.78
660.03	24276.04
660.17	24259.65
660.32	24147.31
660.46	24280.72
660.60	23957.72
660.74	24023.26
660.89	24194.12
661.03	23934.32
661.17	24254.97
661.32	24159.01
661.46	24257.31
661.60	24027.94
661.74	24156.67
661.89	24142.63
662.03	24381.36
662.17	23887.51
662.31	23786.86
662.46	23969.43
662.60	24247.95
662.74	23711.97
662.88	24063.05
663.03	23789.20
663.17	23653.45
663.31	23388.97
663.45	23709.63
663.60	23775.16
663.74	23398.34
663.88	23707.29
664.02	23651.11
664.17	23821.97
664.31	23639.41
664.45	23824.31
664.59	23601.96
664.73	23648.77
664.88	23506.00
665.02	23255.56
665.16	23197.05
665.30	23379.61
665.44	23101.09
665.59	23421.74
665.73	23440.47
665.87	22808.52
666.01	23122.15
666.15	22981.72
666.29	22946.61
666.44	23285.99
666.58	22885.76
666.72	22883.42
666.86	22663.41
667.00	23206.41
667.14	23129.17
667.28	22808.52
667.43	22766.39
667.57	22672.77
667.71	22843.63
667.85	22780.43
667.99	22621.28
668.13	22775.75
668.27	22621.28
668.41	22658.73
668.56	22742.99
668.70	22754.69
668.84	22530.00
668.98	22600.21
669.12	22881.08
669.26	22541.70
669.40	22366.16
669.54	22307.65
669.68	22745.33
669.82	22148.49
669.96	22150.83
670.10	21823.16
670.25	22171.89
670.39	22279.56
670.53	22141.47
670.67	21984.65
670.81	22071.25
670.95	22265.52
671.09	22419.99
671.23	21837.20
671.37	21755.28
671.51	22033.80
671.65	22214.02
671.79	22099.34
671.93	22073.59
672.07	22036.14
672.21	21858.26
672.35	21352.71
672.49	21537.61
672.63	21731.87
672.77	21301.22
672.91	21551.65
673.05	21429.94
673.19	21420.58
673.33	21223.98
673.47	21348.03
673.61	21352.71
673.75	21348.03
673.89	21544.63
674.03	21317.60
674.17	21305.90
674.31	21298.88
674.45	21067.16
674.59	20812.04
674.73	20790.98
674.87	20938.43
675.01	20767.57
675.15	20893.96
675.29	20601.40
675.43	20812.04
675.56	20570.97
675.70	20577.99
675.84	20802.68
675.98	20112.22
676.12	20498.41
676.26	20753.53
676.40	20889.28
676.54	20568.63
676.68	20369.68
676.82	20049.03
676.96	20156.69
677.10	20430.54
677.23	19889.87
677.37	20123.93
677.51	20027.96
677.65	19758.80
677.79	19730.72
677.93	19728.38
678.07	19892.21
678.21	19487.30
678.34	19800.93
678.48	19459.21
678.62	19669.86
678.76	19278.99
678.90	19274.31
679.04	19379.64
679.18	19157.28
679.31	19080.05
679.45	19115.16
679.59	18817.91
679.73	19042.60
679.87	18897.49
680.00	18960.68
680.14	18871.74
680.28	18558.11
680.42	18677.48
680.56	18827.27
680.70	18724.29
680.83	18745.35
680.97	18738.33
681.11	18691.52
681.25	18525.34
681.39	18625.98
681.52	18665.77
681.66	18417.68
681.80	18225.75
681.94	18291.29
682.07	18068.94
682.21	18134.47
682.35	18139.15
682.49	17865.31
682.62	17881.69
682.76	17865.31
682.90	18024.47
683.04	17982.34
683.17	17708.49
683.31	17713.17
683.45	18132.13
683.59	17769.35
683.72	17635.94
683.86	17914.46
684.00	17542.32
684.13	17348.05
684.27	17341.03
684.41	17432.31
684.55	16943.14
684.68	17219.32
684.82	17083.57
684.96	17057.82
685.09	17032.08
685.23	16524.18
685.37	16793.34
685.50	16791.00
685.64	16809.73
685.78	16568.65
685.91	16901.01
686.05	16793.34
686.19	16617.80
686.32	16744.19
686.46	16662.27
686.60	16358.00
686.73	16432.90
686.87	16154.38
687.01	16313.53
687.14	16035.01
687.28	16168.42
687.42	16100.55
687.55	15840.75
687.69	15962.45
687.82	15894.58
687.96	15875.85
688.10	15861.81
688.23	15740.10
688.37	15644.14
688.50	15749.46
688.64	16004.58
688.78	15688.61
688.91	15669.89
689.05	15480.30
689.18	15592.65
689.32	14958.36
689.46	15400.72
689.59	15225.18
689.73	15091.77
689.86	15176.03
690.00	15115.18
690.13	14918.57
690.27	14813.25
690.41	14941.98
690.54	14862.40
690.68	15105.82
690.81	14878.79
690.95	14876.44
691.08	14904.53
691.22	14668.14
691.35	14789.85
691.49	14810.91
691.62	14565.15
691.76	14523.02
691.89	14640.05
692.03	14092.37
692.16	14256.20
692.30	14157.90
692.43	14146.20
692.57	14120.45
692.70	14045.55
692.84	14230.46
692.97	13958.96
693.11	13965.98
693.24	13762.35
693.38	13900.44
693.51	13982.36
693.65	13654.69
693.78	13813.84
693.92	13537.66
694.05	13645.32
694.19	13668.73
694.32	13458.08
694.45	13338.71
694.59	13242.75
694.72	13245.09
694.86	13252.11
694.99	12961.89
695.13	13160.83
695.26	13008.70
695.39	13015.72
695.53	12901.03
695.66	12882.31
695.80	13008.70
695.93	12737.20
696.07	12978.27
696.20	13078.91
696.33	12931.46
696.47	12779.32
696.60	12589.74
696.73	12582.72
696.87	12858.90
697.00	12325.26
697.14	12149.72
697.27	12468.03
697.40	12231.64
697.54	12273.77
697.67	12060.78
697.80	12306.54
697.94	11885.24
698.07	11740.13
698.21	11864.18
698.34	12004.61
698.47	11990.56
698.61	12018.65
698.74	11941.41
698.87	11999.93
699.01	11529.48
699.14	11777.58
699.27	11686.29
699.40	11693.32
699.54	11606.72
699.67	11426.50
699.80	11440.54
699.94	11503.73
700.07	11442.88
700.20	11082.44
700.34	10974.77
700.47	11166.70
700.60	11272.02
700.73	11112.86
700.87	11098.82
701.00	10984.13
701.13	10899.87
701.26	10979.45
701.40	10991.16
701.53	11129.25
701.66	10857.75
701.79	10878.81
701.93	10714.97
702.06	10640.08
702.19	10633.05
702.32	10759.44
702.46	10448.15
702.59	10235.16
702.72	10284.31
702.85	10167.29
702.99	10204.74
703.12	10022.17
703.25	10347.51
703.38	10209.42
703.51	10296.02
703.65	10181.33
703.78	10054.94
703.91	10022.17
704.04	10174.31
704.17	9865.36
704.31	9994.09
704.44	9905.15
704.57	9895.78
704.70	9741.31
704.83	9893.44
704.96	9628.96
705.10	9692.16
705.23	9696.84
>>>>>End Processed Spectral Data<<<<<
