SpectraSuite Data File
++++++++++++++++++++++++++++++++++++
Date: Fri Oct 18 13:58:13 GMT-05:00 2013
User: bianchi
Dark Spectrum Present: No
Reference Spectrum Present: No
Number of Sampled Component Spectra: 1
Spectrometers: USB2+H05261
Integration Time (usec): 50000 (USB2+H05261)
Spectra Averaged: 1 (USB2+H05261)
Boxcar Smoothing: 0 (USB2+H05261)
Correct for Electrical Dark: No (USB2+H05261)
Strobe/Lamp Enabled: No (USB2+H05261)
Correct for Detector Non-linearity: No (USB2+H05261)
Correct for Stray Light: No (USB2+H05261)
Number of Pixels in Processed Spectrum: 2048
>>>>>Begin Processed Spectral Data<<<<<
365.73	0.00
365.92	0.00
366.12	0.00
366.32	0.00
366.52	0.00
366.72	0.00
366.91	0.00
367.11	0.00
367.31	0.00
367.51	0.00
367.70	0.00
367.90	0.00
368.10	0.00
368.30	0.00
368.49	0.00
368.69	0.00
368.89	0.00
369.09	0.00
369.28	0.00
369.48	0.00
369.68	0.00
369.87	0.00
370.07	0.00
370.27	0.00
370.47	18.72
370.66	105.32
370.86	91.28
371.06	145.11
371.25	105.32
371.45	95.96
371.65	156.82
371.84	173.20
372.04	159.16
372.24	231.71
372.44	241.08
372.63	163.84
372.83	248.10
373.03	229.37
373.22	259.80
373.42	224.69
373.62	173.20
373.81	227.03
374.01	243.42
374.21	271.50
374.40	269.16
374.60	177.88
374.79	241.08
374.99	252.78
375.19	255.12
375.38	229.37
375.58	266.82
375.78	259.80
375.97	325.33
376.17	315.97
376.37	304.27
376.56	238.73
376.76	339.38
376.95	262.14
377.15	180.22
377.35	264.48
377.54	271.50
377.74	278.52
377.93	238.73
378.13	248.10
378.33	318.31
378.52	304.27
378.72	283.20
378.91	278.52
379.11	290.23
379.31	292.57
379.50	287.89
379.70	365.12
379.89	220.01
380.09	238.73
380.28	276.18
380.48	376.83
380.68	341.72
380.87	294.91
381.07	322.99
381.26	358.10
381.46	301.93
381.65	393.21
381.85	285.55
382.04	299.59
382.24	339.38
382.43	341.72
382.63	407.25
382.83	388.53
383.02	304.27
383.22	372.15
383.41	334.70
383.61	395.55
383.80	402.57
384.00	339.38
384.19	475.13
384.39	374.49
384.58	318.31
384.78	325.33
384.97	402.57
385.17	440.02
385.36	376.83
385.56	428.32
385.75	374.49
385.95	486.83
386.14	365.12
386.34	418.96
386.53	449.38
386.72	411.93
386.92	416.62
387.11	386.19
387.31	330.02
387.50	418.96
387.70	468.11
387.89	451.72
388.09	444.70
388.28	503.22
388.48	440.02
388.67	486.83
388.86	435.34
389.06	360.44
389.25	493.85
389.45	500.87
389.64	512.58
389.84	472.79
390.03	428.32
390.22	552.37
390.42	493.85
390.61	503.22
390.81	486.83
391.00	538.32
391.19	559.39
391.39	533.64
391.58	442.36
391.78	475.13
391.97	571.09
392.16	475.13
392.36	521.94
392.55	547.69
392.75	498.53
392.94	543.00
393.13	575.77
393.33	535.98
393.52	521.94
393.71	547.69
393.91	594.50
394.10	615.56
394.29	624.92
394.49	636.63
394.68	636.63
394.88	617.90
395.07	645.99
395.26	601.52
395.46	636.63
395.65	660.03
395.84	631.94
396.04	667.05
396.23	702.16
396.42	655.35
396.62	622.58
396.81	601.52
397.00	638.97
397.19	695.14
397.39	704.50
397.58	716.20
397.77	692.80
397.97	662.37
398.16	657.69
398.35	732.59
398.55	676.41
398.74	739.61
398.93	732.59
399.12	709.18
399.32	690.46
399.51	704.50
399.70	695.14
399.90	807.48
400.09	821.53
400.28	753.65
400.47	758.33
400.67	830.89
400.86	844.93
401.05	856.64
401.24	847.27
401.44	833.23
401.63	819.19
401.82	779.40
402.01	763.01
402.21	786.42
402.40	833.23
402.59	849.61
402.78	880.04
402.97	842.59
403.17	884.72
403.36	863.66
403.55	894.08
403.74	908.13
403.93	1001.75
404.13	851.96
404.32	898.77
404.51	823.87
404.70	922.17
404.89	959.62
405.09	1006.43
405.28	947.92
405.47	917.49
405.66	1069.62
405.85	1043.88
406.05	983.02
406.24	1060.26
406.43	1020.47
406.62	952.60
406.81	985.37
407.00	1001.75
407.20	1013.45
407.39	1095.37
407.58	1128.14
407.77	1132.82
407.96	1050.90
408.15	1100.05
408.34	1029.84
408.54	997.07
408.73	1151.54
408.92	1235.80
409.11	1137.50
409.30	1270.91
409.49	1130.48
409.68	1233.46
409.87	1177.29
410.07	1263.89
410.26	1214.74
410.45	1268.57
410.64	1144.52
410.83	1240.48
411.02	1144.52
411.21	1242.82
411.40	1249.85
411.59	1303.68
411.78	1313.04
411.98	1362.19
412.17	1352.83
412.36	1317.72
412.55	1266.23
412.74	1392.62
412.93	1338.79
413.12	1284.95
413.31	1432.41
413.50	1411.34
413.69	1411.34
413.88	1437.09
414.07	1439.43
414.26	1495.60
414.45	1544.75
414.64	1483.90
414.83	1533.05
415.02	1479.22
415.22	1633.69
415.41	1533.05
415.60	1469.86
415.79	1596.25
415.98	1682.85
416.17	1621.99
416.36	1657.10
416.55	1727.32
416.74	1701.57
416.93	1757.74
417.12	1624.33
417.31	1736.68
417.50	1703.91
417.69	1734.34
417.88	1694.55
418.07	1746.04
418.26	1722.63
418.45	1776.47
418.64	1834.98
418.83	1886.47
419.02	1760.08
419.21	1926.26
419.39	1832.64
419.58	1760.08
419.77	1755.40
419.96	1720.29
420.15	1809.23
420.34	1942.64
420.53	2036.27
420.72	1928.60
420.91	1891.15
421.10	1954.35
421.29	2029.24
421.48	1928.60
421.67	2024.56
421.86	2029.24
422.05	1991.80
422.24	2026.90
422.43	2071.37
422.61	2033.93
422.80	2108.82
422.99	2094.78
423.18	2022.22
423.37	2115.84
423.56	2092.44
423.75	2033.93
423.94	1998.82
424.13	1923.92
424.32	1952.01
424.50	2132.23
424.69	2153.29
424.88	2090.10
425.07	1991.80
425.26	1991.80
425.45	2064.35
425.64	2092.44
425.83	2080.74
426.01	2139.25
426.20	2078.40
426.39	2218.83
426.58	2069.03
426.77	2186.06
426.96	2118.18
427.15	2057.33
427.33	2120.53
427.52	2195.42
427.71	2167.34
427.90	2239.89
428.09	2228.19
428.28	2179.04
428.46	2235.21
428.65	2331.17
428.84	2319.47
429.03	2415.43
429.22	2232.87
429.40	2282.02
429.59	2396.71
429.78	2298.41
429.97	2251.60
430.16	2321.81
430.34	2307.77
430.53	2345.22
430.72	2305.43
430.91	2413.09
431.10	2317.13
431.28	2429.48
431.47	2506.71
431.66	2518.42
431.85	2413.09
432.03	2511.39
432.22	2588.63
432.41	2506.71
432.60	2548.84
432.79	2406.07
432.97	2532.46
433.16	2420.11
433.35	2455.22
433.54	2546.50
433.72	2555.86
433.91	2623.74
434.10	2534.80
434.28	2471.61
434.47	2569.91
434.66	2553.52
434.85	2548.84
435.03	2597.99
435.22	2637.78
435.41	2696.30
435.59	2663.53
435.78	2719.70
435.97	2705.66
436.16	2715.02
436.34	2658.85
436.53	2724.38
436.72	2757.15
436.90	2717.36
437.09	2747.79
437.28	2654.17
437.46	2806.30
437.65	2736.09
437.84	2813.32
438.02	2871.84
438.21	2820.35
438.40	2878.86
438.58	2853.11
438.77	2918.65
438.96	2867.16
439.14	2991.20
439.33	3028.65
439.52	2988.86
439.70	2965.46
439.89	3028.65
440.08	3030.99
440.26	3133.98
440.45	3002.91
440.63	3152.70
440.82	3047.38
441.01	3023.97
441.19	3152.70
441.38	3262.71
441.57	3251.00
441.75	3227.60
441.94	3396.12
442.12	3262.71
442.31	3393.78
442.50	3356.33
442.68	3365.69
442.87	3403.14
443.05	3405.48
443.24	3379.73
443.43	3351.65
443.61	3405.48
443.80	3396.12
443.98	3382.07
444.17	3265.05
444.35	3419.52
444.54	3562.30
444.73	3475.70
444.91	3463.99
445.10	3438.25
445.28	3578.68
445.47	3499.10
445.65	3550.59
445.84	3583.36
446.02	3574.00
446.21	3564.64
446.39	3538.89
446.58	3440.59
446.77	3531.87
446.95	3555.27
447.14	3538.89
447.32	3648.90
447.51	3588.04
447.69	3726.13
447.88	3522.51
448.06	3653.58
448.25	3574.00
448.43	3728.47
448.62	3496.76
448.80	3684.00
448.99	3688.68
449.17	3801.03
449.36	3644.21
449.54	3761.24
449.73	3735.50
449.91	3901.67
450.10	3801.03
450.28	3782.31
450.46	3730.81
450.65	3786.99
450.83	3824.44
451.02	3791.67
451.20	3833.80
451.39	3906.35
451.57	3892.31
451.76	3702.73
451.94	3901.67
452.13	4021.04
452.31	3939.12
452.49	3955.51
452.68	3861.88
452.86	3969.55
453.05	4086.58
453.23	4131.05
453.42	3981.25
453.60	4004.66
453.78	4002.32
453.97	3824.44
454.15	4009.34
454.34	3932.10
454.52	4079.55
454.70	4037.42
454.89	4088.92
455.07	4271.48
455.26	4208.28
455.44	4184.88
455.62	4124.02
455.81	4198.92
455.99	4304.25
456.17	4215.30
456.36	4430.63
456.54	4224.67
456.73	4294.88
456.91	4425.95
457.09	4292.54
457.28	4360.42
457.46	4325.31
457.64	4517.23
457.83	4325.31
458.01	4367.44
458.19	4503.19
458.38	4470.42
458.56	4447.02
458.74	4447.02
458.93	4458.72
459.11	4491.49
459.29	4514.89
459.48	4540.64
459.66	4500.85
459.84	4594.47
460.03	4638.94
460.21	4559.36
460.39	4627.24
460.57	4650.64
460.76	4760.65
460.94	4683.41
461.12	4713.84
461.31	4599.15
461.49	4688.09
461.67	4685.75
461.85	4861.29
462.04	4732.56
462.22	5008.75
462.40	5013.43
462.59	5020.45
462.77	4746.61
462.95	4894.06
463.13	4835.55
463.32	4950.23
463.50	5074.28
463.68	4985.34
463.86	4922.15
464.05	4901.08
464.23	4966.62
464.41	5027.47
464.59	4931.51
464.78	5039.17
464.96	4929.17
465.14	4877.68
465.32	5020.45
465.50	4987.68
465.69	5064.92
465.87	5013.43
466.05	5104.71
466.23	5055.56
466.41	5217.05
466.60	5380.89
466.78	5165.56
466.96	5156.20
467.14	5231.10
467.32	5198.33
467.51	5191.31
467.69	5046.20
467.87	5217.05
468.05	5357.49
468.23	5240.46
468.41	5310.68
468.60	5334.08
468.78	5387.91
468.96	5357.49
469.14	5186.63
469.32	5504.94
469.50	5193.65
469.69	5511.96
469.87	5556.43
470.05	5584.52
470.23	5472.17
470.41	5558.77
470.59	5486.22
470.77	5476.85
470.95	5682.82
471.14	5792.83
471.32	5659.42
471.50	5853.68
471.68	5731.97
471.86	5778.78
472.04	5778.78
472.22	5966.03
472.40	5764.74
472.58	5797.51
472.77	5846.66
472.95	5975.39
473.13	6003.47
473.31	6061.99
473.49	6047.94
473.67	6047.94
473.85	5944.96
474.03	6167.31
474.21	6047.94
474.39	6293.70
474.57	6176.67
474.75	6272.64
474.93	6492.65
475.12	6157.95
475.30	6291.36
475.48	6347.53
475.66	6363.92
475.84	6497.33
476.02	6462.22
476.20	6424.77
476.38	6619.04
476.56	6679.89
476.74	6796.92
476.92	6558.18
477.10	6651.80
477.28	6712.66
477.46	6803.94
477.64	6925.65
477.82	6642.44
478.00	7192.47
478.18	7056.72
478.36	7077.78
478.54	7073.10
478.72	7110.55
478.90	7204.17
479.08	7485.03
479.26	7440.56
479.44	7358.64
479.62	7489.71
479.80	7557.59
479.98	7555.25
480.16	7674.62
480.34	7606.74
480.52	7920.37
480.70	7726.11
480.88	7588.02
481.06	7793.98
481.24	7749.51
481.41	8023.36
481.59	7992.93
481.77	8262.09
481.95	8016.33
482.13	8229.32
482.31	8198.90
482.49	8430.61
482.67	8484.44
482.85	8451.67
483.03	8681.05
483.21	8587.43
483.39	8762.97
483.57	8711.47
483.74	8854.25
483.92	8994.68
484.10	8997.02
484.28	8980.64
484.46	9181.92
484.64	9371.50
484.82	9053.19
485.00	9273.20
485.18	9441.72
485.35	9502.58
485.53	9465.13
485.71	9788.12
485.89	10005.79
486.07	9951.96
486.25	9717.90
486.43	10092.39
486.61	9820.89
486.78	10017.49
486.96	9982.38
487.14	10373.25
487.32	10347.51
487.50	10305.38
487.68	10363.89
487.85	10391.98
488.03	10586.24
488.21	10782.85
488.39	10979.45
488.57	11089.46
488.75	11028.60
488.92	11094.14
489.10	11222.87
489.28	11220.53
489.46	11351.60
489.64	11293.08
489.81	11513.10
489.99	11602.04
490.17	11482.67
490.35	11775.24
490.53	11562.25
490.70	11910.99
490.88	11913.33
491.06	11967.16
491.24	12044.40
491.41	12177.81
491.59	12248.02
491.77	12308.88
491.95	12542.93
492.13	12524.21
492.30	12500.80
492.48	12643.57
492.66	12629.53
492.84	12641.23
493.01	12835.50
493.19	12814.43
493.37	13104.66
493.54	12753.58
493.72	13273.18
493.90	13219.35
494.08	13327.01
494.25	13575.11
494.43	13437.02
494.61	13652.34
494.79	13563.40
494.96	13570.43
495.14	13755.33
495.32	13956.61
495.49	13940.23
495.67	14019.81
495.85	14207.05
496.02	14295.99
496.20	14265.57
496.38	14115.77
496.55	14420.04
496.73	14572.18
496.91	14534.73
497.09	14630.69
497.26	14523.02
497.44	14635.37
497.62	14579.20
497.79	14703.25
497.97	15173.69
498.14	14820.27
498.32	14984.11
498.50	15066.03
498.67	15133.90
498.85	15367.96
499.03	14986.45
499.20	15325.83
499.38	15557.54
499.56	15555.20
499.73	15496.69
499.91	15763.51
500.08	15840.75
500.26	15620.74
500.44	15625.42
500.61	15831.38
500.79	15779.89
500.97	15882.88
501.14	16145.02
501.32	16271.40
501.49	16212.89
501.67	16149.70
501.84	16219.91
502.02	16372.05
502.20	16423.54
502.37	16327.58
502.55	16505.46
502.72	16570.99
502.90	16458.65
503.07	16601.42
503.25	16933.78
503.43	16535.88
503.60	16910.37
503.78	16975.91
503.95	17003.99
504.13	16765.26
504.30	17088.25
504.48	16905.69
504.65	17242.73
504.83	17209.96
505.01	17289.54
505.18	17350.39
505.36	17406.56
505.53	17455.72
505.71	17652.32
505.88	17420.61
506.06	17418.27
506.23	17680.41
506.41	17778.71
506.58	17741.26
506.76	18085.32
506.93	17921.48
507.11	17781.05
507.28	17820.84
507.46	18017.44
507.63	18377.89
507.81	18038.51
507.98	18087.66
508.16	18260.86
508.33	18429.38
508.50	18216.39
508.68	18450.44
508.85	18391.93
509.03	18579.17
509.20	18698.54
509.38	18906.85
509.55	18621.30
509.73	18684.50
509.90	18609.60
510.08	18640.03
510.25	19016.85
510.42	19023.87
510.60	19131.54
510.77	18970.04
510.95	19138.56
511.12	19023.87
511.30	19381.98
511.47	19246.23
511.64	19194.73
511.82	19445.17
511.99	19555.18
512.17	19559.86
512.34	19637.09
512.51	19543.47
512.69	19627.73
512.86	19730.72
513.04	19939.02
513.21	19840.72
513.38	19868.81
513.56	19866.47
513.73	19810.29
513.90	19915.62
514.08	19908.60
514.25	20107.54
514.43	20081.80
514.60	20390.75
514.77	20187.12
514.95	20493.73
515.12	20299.47
515.29	20475.01
515.47	20231.59
515.64	20620.12
515.81	20493.73
515.99	20964.18
516.16	20751.19
516.33	20779.28
516.51	20716.08
516.68	20636.50
516.85	20538.20
517.03	20945.45
517.20	20762.89
517.37	21165.46
517.54	21156.10
517.72	20978.22
517.89	21212.28
518.06	21240.36
518.24	21207.59
518.41	21081.21
518.58	21071.84
518.75	21385.47
518.93	21429.94
519.10	21603.14
519.27	21563.36
519.45	21563.36
519.62	21685.06
519.79	21467.39
519.96	21174.83
520.14	21837.20
520.31	21603.14
520.48	21963.59
520.65	21935.50
520.83	21888.69
521.00	21874.65
521.17	22176.58
521.34	22043.17
521.52	22171.89
521.69	22382.54
521.86	22223.39
522.03	22307.65
522.20	22256.15
522.38	22209.34
522.55	22221.05
522.72	22228.07
522.89	22309.99
523.07	22579.15
523.24	22494.89
523.41	22876.40
523.58	22684.47
523.75	22525.32
523.92	22333.39
524.10	22546.38
524.27	22672.77
524.44	22822.56
524.61	22890.44
524.78	22932.57
524.96	22902.14
525.13	23005.13
525.30	23171.30
525.47	23108.11
525.64	22951.29
525.81	23449.83
525.98	23323.44
526.16	23506.00
526.33	23559.83
526.50	23276.63
526.67	23175.98
526.84	23367.91
527.01	23314.08
527.18	23637.07
527.36	23370.25
527.53	23812.61
527.70	23674.52
527.87	23737.71
528.04	23922.62
528.21	23515.36
528.38	23672.18
528.55	23730.69
528.72	23730.69
528.89	24044.32
529.07	23971.77
529.24	23707.29
529.41	24191.78
529.58	23880.49
529.75	24156.67
529.92	23920.28
530.09	23772.82
530.26	24376.68
530.43	24144.97
530.60	24276.04
530.77	24243.27
530.94	24676.27
531.11	24372.00
531.28	24198.80
531.46	24547.54
531.63	24589.67
531.80	24662.22
531.97	24606.05
532.14	24283.06
532.31	24627.12
532.48	24615.41
532.65	24652.86
532.82	24428.17
532.99	24821.38
533.16	24877.55
533.33	24776.91
533.50	25252.04
533.67	25085.86
533.84	24919.68
534.01	25106.93
534.18	24805.00
534.35	25221.61
534.52	25111.61
534.69	25455.67
534.86	25123.31
535.03	25081.18
535.20	25228.63
535.37	25315.23
535.54	25348.00
535.71	24994.58
535.88	25572.69
536.05	25610.14
536.22	25551.63
536.38	25560.99
536.55	25549.29
536.72	25411.20
536.89	25614.82
537.06	25532.90
537.23	25710.78
537.40	25675.68
537.57	25584.40
537.74	25738.87
537.91	25781.00
538.08	25947.18
538.25	25848.88
538.42	25834.83
538.59	25748.23
538.75	25989.31
538.92	25989.31
539.09	26157.83
539.26	26183.57
539.43	26066.55
539.60	25951.86
539.77	26263.15
539.94	26356.77
540.11	26195.28
540.28	26324.01
540.44	26054.84
540.61	26019.74
540.78	26078.25
540.95	26412.95
541.12	26244.43
541.29	25998.67
541.46	26719.56
541.62	26352.09
541.79	26309.96
541.96	26237.41
542.13	26410.60
542.30	26515.93
542.47	27103.40
542.63	26787.43
542.80	26675.09
542.97	27201.71
543.14	27009.78
543.31	27016.80
543.48	26876.37
543.64	27496.61
543.81	27002.76
543.98	27243.84
544.15	26998.08
544.32	27229.79
544.48	27250.86
544.65	27075.32
544.82	27040.21
544.99	26815.52
545.16	27225.11
545.32	27550.45
545.49	27475.55
545.66	27307.03
545.83	27318.73
546.00	27414.69
546.16	27683.86
546.33	27101.06
546.50	27473.21
546.67	27517.68
546.83	27236.81
547.00	27253.20
547.17	27835.99
547.34	27491.93
547.50	27843.01
547.67	27971.74
547.84	27454.48
548.00	28180.05
548.17	27875.78
548.34	27962.38
548.51	27761.09
548.67	28041.96
548.84	27707.26
549.01	28009.19
549.18	27847.69
549.34	27931.95
549.51	28205.80
549.68	27669.81
549.84	27716.62
550.01	27833.65
550.18	27936.63
550.34	27948.34
550.51	28065.36
550.68	28294.74
550.84	28034.94
551.01	28278.35
551.18	28259.63
551.34	27978.76
551.51	28233.88
551.68	28414.10
551.84	28545.17
552.01	28058.34
552.18	28383.68
552.34	28276.01
552.51	28339.21
552.68	28142.60
552.84	28664.54
553.01	28589.64
553.18	28381.34
553.34	28760.50
553.51	28589.64
553.67	28486.66
553.84	28561.56
554.01	28624.75
554.17	28582.62
554.34	28542.83
554.51	28411.76
554.67	28741.78
554.84	28943.06
555.00	28804.97
555.17	29085.84
555.33	28786.25
555.50	28673.90
555.67	29001.58
555.83	29170.10
556.00	29034.35
556.16	29008.60
556.33	28744.12
556.50	29191.16
556.66	28900.94
556.83	28687.95
556.99	29460.32
557.16	29127.97
557.32	29156.05
557.49	29252.02
557.65	28847.10
557.82	28680.92
557.98	29261.38
558.15	29223.93
558.32	29043.71
558.48	29277.76
558.65	29565.65
558.81	29469.69
558.98	29277.76
559.14	29453.30
559.31	29474.37
559.47	29376.06
559.64	29766.93
559.80	29989.28
559.97	29383.09
560.13	29284.78
560.30	29633.52
560.46	29654.59
560.63	29474.37
560.79	29432.24
560.96	29453.30
561.12	29343.30
561.29	29315.21
561.45	29703.74
561.61	29500.11
561.78	29490.75
561.94	29759.91
562.11	30127.38
562.27	29780.98
562.44	29530.54
562.60	29689.70
562.77	29563.31
562.93	29453.30
563.10	30033.75
563.26	29514.16
563.42	29699.06
563.59	29790.34
563.75	30075.88
563.92	29975.24
564.08	29654.59
564.24	29687.36
564.41	29879.28
564.57	29965.88
564.74	29780.98
564.90	29930.77
565.07	30199.93
565.23	29788.00
565.39	29940.13
565.56	29888.64
565.72	30068.86
565.88	30024.39
566.05	30059.50
566.21	29446.28
566.38	30026.73
566.54	29881.62
566.70	30274.83
566.87	30532.29
567.03	29820.77
567.19	30321.64
567.36	30368.45
567.52	30436.33
567.68	30118.01
567.85	29703.74
568.01	30010.35
568.17	29823.11
568.34	30129.72
568.50	30455.05
568.66	29928.43
568.83	30281.85
568.99	29984.60
569.15	30162.48
569.32	29912.05
569.48	29855.87
569.64	30209.29
569.81	30096.95
569.97	29975.24
570.13	30686.76
570.30	30057.16
570.46	30593.14
570.62	30068.86
570.78	30572.08
570.95	29680.33
571.11	30286.53
571.27	30213.98
571.43	30127.38
571.60	30445.69
571.76	30347.39
571.92	30487.82
572.09	30157.80
572.25	30551.01
572.41	30401.22
572.57	29963.54
572.74	30492.50
572.90	30216.32
573.06	30361.43
573.22	30359.09
573.38	30354.41
573.55	30359.09
573.71	30426.96
573.87	30520.59
574.03	30567.40
574.20	30267.81
574.36	30347.39
574.52	30656.34
574.68	30162.48
574.84	30148.44
575.01	30396.54
575.17	30689.10
575.33	30452.71
575.49	30249.08
575.65	30338.02
575.82	30841.24
575.98	30398.88
576.14	30855.28
576.30	30551.01
576.46	30466.75
576.62	30314.62
576.79	30878.69
576.95	30520.59
577.11	30415.26
577.27	30845.92
577.43	30836.56
577.59	30288.87
577.75	30401.22
577.92	30504.20
578.08	30469.09
578.24	30206.95
578.40	30094.61
578.56	30600.16
578.72	30726.55
578.88	31005.08
579.04	30696.13
579.21	30473.78
579.37	30745.28
579.53	30665.70
579.69	30555.69
579.85	30555.69
580.01	30616.55
580.17	30595.48
580.33	30857.62
580.49	30644.63
580.65	30501.86
580.82	30820.17
580.98	30525.27
581.14	30331.00
581.30	31126.78
581.46	30651.66
581.62	30761.66
581.78	30382.49
581.94	30593.14
582.10	30609.53
582.26	30726.55
582.42	30586.12
582.58	30787.41
582.74	30780.39
582.90	30841.24
583.06	30639.95
583.22	30761.66
583.38	30864.64
583.54	30412.92
583.70	30349.73
583.86	30871.67
584.02	30515.90
584.18	31077.63
584.34	30705.49
584.50	31061.25
584.66	30689.10
584.82	30532.29
584.98	30703.15
585.14	30696.13
585.30	30405.90
585.46	30499.52
585.62	30684.42
585.78	30712.51
585.94	30787.41
586.10	31002.74
586.26	30941.88
586.42	30850.60
586.58	30642.29
586.74	30941.88
586.90	30719.53
587.06	30698.47
587.22	30803.79
587.38	30560.37
587.54	30831.88
587.70	31398.29
587.86	31033.16
588.02	31379.56
588.18	30768.68
588.34	30960.61
588.49	30911.46
588.65	31101.04
588.81	31248.49
588.97	30930.18
589.13	30939.54
589.29	30878.69
589.45	31138.49
589.61	31065.93
589.77	30934.86
589.93	31653.40
590.08	31442.76
590.24	31468.50
590.40	30925.50
590.56	31424.03
590.72	30855.28
590.88	30904.43
591.04	31185.30
591.20	30909.11
591.35	31344.45
591.51	31578.51
591.67	31384.24
591.83	31161.89
591.99	30981.67
592.15	31218.07
592.31	31421.69
592.46	31054.23
592.62	31136.15
592.78	31239.13
592.94	31302.32
593.10	31129.12
593.26	31391.26
593.41	31379.56
593.57	30962.95
593.73	31302.32
593.89	31501.27
594.05	31342.11
594.20	31208.70
594.36	30644.63
594.52	31117.42
594.68	30799.11
594.84	31089.34
594.99	31040.18
595.15	31262.54
595.31	31625.32
595.47	31292.96
595.62	31798.52
595.78	31374.88
595.94	31189.98
596.10	31625.32
596.25	31220.41
596.41	31161.89
596.57	31140.83
596.73	30927.84
596.88	31330.41
597.04	31393.61
597.20	31218.07
597.36	31442.76
597.51	31686.17
597.67	31658.09
597.83	31417.01
597.99	31775.11
598.14	31234.45
598.30	31393.61
598.46	31508.29
598.61	31501.27
598.77	30960.61
598.93	31381.90
599.09	31665.11
599.24	31768.09
599.40	31676.81
599.56	31496.59
599.71	31508.29
599.87	31285.94
600.03	31433.39
600.18	31365.52
600.34	30679.74
600.50	31515.31
600.65	31475.52
600.81	31512.97
600.97	31690.85
601.12	31054.23
601.28	31393.61
601.44	31611.28
601.59	31569.15
601.75	31091.68
601.91	31281.26
602.06	31295.30
602.22	31847.67
602.37	31274.24
602.53	31105.72
602.69	31522.34
602.84	31297.64
603.00	31704.90
603.16	31573.83
603.31	31505.95
603.47	31534.04
603.62	31400.63
603.78	31297.64
603.94	30845.92
604.09	31269.56
604.25	31311.69
604.40	31124.44
604.56	31353.82
604.71	31590.21
604.87	31608.93
605.03	31391.26
605.18	31115.08
605.34	31501.27
605.49	31267.22
605.65	31381.90
605.80	31098.70
605.96	31393.61
606.12	30988.69
606.27	31276.58
606.43	30845.92
606.58	31482.55
606.74	31494.25
606.89	31737.66
607.05	31555.10
607.20	31660.43
607.36	31379.56
607.51	31377.22
607.67	30890.39
607.82	31077.63
607.98	31033.16
608.13	31241.47
608.29	30918.48
608.44	31283.60
608.60	31543.40
608.75	31438.08
608.91	31119.76
609.06	31143.17
609.22	31538.72
609.37	30948.90
609.53	31248.49
609.68	30689.10
609.84	31386.58
609.99	31487.23
610.15	31056.57
610.30	30534.63
610.46	31094.02
610.61	31225.09
610.76	31367.86
610.92	30890.39
611.07	31175.94
611.23	30799.11
611.38	30962.95
611.54	30897.41
611.69	31005.08
611.84	30984.01
612.00	30974.65
612.15	30888.05
612.31	31335.09
612.46	31304.67
612.62	31077.63
612.77	31281.26
612.92	31145.51
613.08	30705.49
613.23	31269.56
613.39	30639.95
613.54	30639.95
613.69	30717.19
613.85	31159.55
614.00	30590.80
614.15	31164.23
614.31	30691.44
614.46	31101.04
614.62	31047.21
614.77	30941.88
614.92	31126.78
615.08	30499.52
615.23	30696.13
615.38	30834.22
615.54	30286.53
615.69	30370.79
615.84	30305.26
616.00	30632.93
616.15	30597.82
616.30	30738.26
616.46	30518.25
616.61	30256.11
616.76	30677.40
616.92	30803.79
617.07	30721.87
617.22	30476.12
617.37	30288.87
617.53	30553.35
617.68	30668.04
617.83	30525.27
617.99	29937.79
618.14	30429.30
618.29	30354.41
618.45	30745.28
618.60	30485.48
618.75	30462.07
618.90	30305.26
619.06	30635.27
619.21	30455.05
619.36	30799.11
619.51	30239.72
619.67	30331.00
619.82	29876.94
619.97	30160.14
620.12	30176.53
620.28	30057.16
620.43	30338.02
620.58	30419.94
620.73	30464.41
620.89	30071.20
621.04	30551.01
621.19	30188.23
621.34	29888.64
621.49	30181.21
621.65	30272.49
621.80	29766.93
621.95	30012.69
622.10	29907.37
622.25	29685.01
622.41	29933.11
622.56	29919.07
622.71	29610.12
622.86	30380.15
623.01	29846.51
623.16	29450.96
623.32	29813.74
623.47	29741.19
623.62	29926.09
623.77	29895.66
623.92	29682.67
624.07	29759.91
624.23	30038.44
624.38	29687.36
624.53	29848.85
624.68	29928.43
624.83	29514.16
624.98	30005.67
625.13	29755.23
625.29	29769.27
625.44	29692.04
625.59	29813.74
625.74	29670.97
625.89	29972.90
626.04	29685.01
626.19	29170.10
626.34	29633.52
626.49	29675.65
626.65	29240.31
626.80	29619.48
626.95	29385.43
627.10	29408.83
627.25	29675.65
627.40	29324.57
627.55	29727.14
627.70	28720.71
627.85	29441.60
628.00	29233.29
628.15	29301.17
628.30	29200.52
628.45	29362.02
628.60	29156.05
628.76	29385.43
628.91	29544.58
629.06	29362.02
629.21	29137.33
629.36	29359.68
629.51	28936.04
629.66	28987.53
629.81	29104.56
629.96	29132.65
630.11	29142.01
630.26	28840.08
630.41	28790.93
630.56	28912.64
630.71	29249.67
630.86	28680.92
631.01	28500.70
631.16	29088.18
631.31	28809.65
631.46	28877.53
631.61	28835.40
631.76	29223.93
631.91	28893.91
632.06	28755.82
632.21	28793.27
632.36	28772.21
632.51	28374.31
632.66	28870.51
632.81	28397.72
632.96	28980.51
633.10	28692.63
633.25	29001.58
633.40	29181.80
633.55	28568.58
633.70	28692.63
633.85	28533.47
634.00	28556.88
634.15	28397.72
634.30	28753.48
634.45	28723.05
634.60	28201.11
634.75	28624.75
634.90	28526.45
635.05	28973.49
635.19	28811.99
635.34	29125.63
635.49	28498.36
635.64	28493.68
635.79	28432.83
635.94	28542.83
636.09	28264.31
636.24	28196.43
636.39	28140.26
636.53	28608.37
636.68	28421.13
636.83	28093.45
636.98	28409.42
637.13	28121.54
637.28	28519.43
637.43	28575.60
637.57	28245.58
637.72	28694.97
637.87	27651.09
638.02	28346.23
638.17	28063.02
638.32	28278.35
638.46	27800.88
638.61	27852.38
638.76	28114.52
638.91	27821.95
639.06	27718.96
639.20	28231.54
639.35	28205.80
639.50	28023.23
639.65	28360.27
639.80	28425.81
639.94	28128.56
640.09	27955.36
640.24	28004.51
640.39	28032.60
640.54	27527.04
640.68	27599.60
640.83	28163.67
640.98	27840.67
641.13	27508.32
641.27	27733.01
641.42	27800.88
641.57	27906.21
641.72	27915.57
641.86	27569.17
642.01	27398.31
642.16	27534.06
642.31	27253.20
642.45	27402.99
642.60	27215.75
642.75	27440.44
642.90	27590.24
643.04	27552.79
643.19	27051.91
643.34	27672.15
643.48	27428.74
643.63	27402.99
643.78	27620.66
643.93	27934.29
644.07	27480.23
644.22	27625.34
644.37	27412.35
644.51	27454.48
644.66	27402.99
644.81	27246.18
644.95	27440.44
645.10	27239.15
645.25	27360.86
645.39	27145.53
645.54	27534.06
645.69	27466.19
645.83	27405.33
645.98	27342.14
646.13	27520.02
646.27	27168.94
646.42	27281.28
646.57	27321.07
646.71	27236.81
646.86	27328.10
647.00	27133.83
647.15	26902.12
647.30	26939.57
647.44	26904.46
647.59	27080.00
647.74	26967.65
647.88	26881.05
648.03	27159.58
648.17	27515.34
648.32	27131.49
648.47	27372.57
648.61	26630.62
648.76	27051.91
648.90	27421.72
649.05	27150.21
649.20	26764.03
649.34	26768.71
649.49	26522.95
649.63	26494.86
649.78	26759.34
649.92	26527.63
650.07	26991.06
650.21	26707.85
650.36	26649.34
650.51	26749.98
650.65	26693.81
650.80	26892.76
650.94	26838.92
651.09	26705.51
651.23	26883.39
651.38	26675.09
651.52	26740.62
651.67	26698.49
651.81	26672.74
651.96	26541.68
652.10	26749.98
652.25	26274.85
652.39	26745.30
652.54	26429.33
652.68	26740.62
652.83	26555.72
652.97	26794.45
653.12	26616.57
653.26	26572.10
653.41	26672.74
653.55	26419.97
653.70	26127.40
653.84	26312.30
653.99	26647.00
654.13	26541.68
654.27	26101.65
654.42	26347.41
654.56	26382.52
654.71	26134.42
654.85	26326.35
655.00	26253.79
655.14	26370.82
655.29	26192.94
655.43	26436.35
655.57	26146.12
655.72	26005.69
655.86	26284.22
656.01	26258.47
656.15	25977.61
656.30	26008.03
656.44	25912.07
656.58	26157.83
656.73	26075.91
656.87	26169.53
657.01	26389.54
657.16	26127.40
657.30	26462.10
657.45	26181.23
657.59	26221.02
657.73	25656.95
657.88	25912.07
658.02	25893.35
658.16	25816.11
658.31	25729.51
658.45	25888.67
658.60	25238.00
658.74	25710.78
658.88	25802.07
659.03	25626.53
659.17	25661.63
659.31	25240.34
659.46	25619.50
659.60	25792.70
659.74	25916.75
659.89	25371.41
660.03	25394.81
660.17	25500.14
660.32	25338.64
660.46	25003.94
660.60	24973.52
660.74	25109.27
660.89	25399.49
661.03	24781.59
661.17	25029.69
661.32	25666.31
661.46	25497.80
661.60	25383.11
661.74	25551.63
661.89	25221.61
662.03	25303.53
662.17	24929.05
662.31	24751.17
662.46	25202.89
662.60	25125.65
662.74	24744.14
662.88	24753.51
663.03	24823.72
663.17	24821.38
663.31	24610.73
663.45	24786.27
663.60	24596.69
663.74	24372.00
663.88	24697.33
664.02	24446.90
664.17	24774.57
664.31	24460.94
664.45	24538.18
664.59	24704.35
664.73	24568.60
664.88	24367.32
665.02	24205.82
665.16	24250.29
665.30	24463.28
665.44	24348.59
665.59	23887.51
665.73	23953.04
665.87	24123.90
666.01	23934.32
666.15	24140.29
666.29	24266.67
666.44	24383.70
666.58	24023.26
666.72	24079.43
666.86	23910.91
667.00	24372.00
667.14	23789.20
667.28	23927.30
667.43	23702.61
667.57	23892.19
667.71	23723.67
667.85	23442.81
667.99	23449.83
668.13	23681.54
668.27	23278.97
668.41	23718.99
668.56	23405.36
668.70	23634.73
668.84	23449.83
668.98	23473.23
669.12	23735.37
669.26	23122.15
669.40	23435.78
669.54	23260.24
669.68	23379.61
669.82	23035.55
669.96	23344.50
670.10	23161.94
670.25	23145.56
670.39	22906.82
670.53	23115.13
670.67	23021.51
670.81	22991.08
670.95	22986.40
671.09	23178.33
671.23	23082.36
671.37	23140.88
671.51	23033.21
671.65	23098.75
671.79	22834.27
671.93	22761.71
672.07	22874.06
672.21	22604.89
672.35	22810.86
672.49	22188.28
672.63	22410.63
672.77	22377.86
672.91	22242.11
673.05	22295.94
673.19	22389.56
673.33	22291.26
673.47	22085.30
673.61	22504.25
673.75	22171.89
673.89	22277.22
674.03	22164.87
674.17	22391.91
674.31	21720.17
674.45	21561.02
674.59	21982.31
674.73	21961.25
674.87	21671.02
675.01	21827.84
675.15	21528.25
675.29	21685.06
675.43	21338.66
675.56	21404.20
675.70	21338.66
675.84	21322.28
675.98	20882.26
676.12	21256.75
676.26	21544.63
676.40	21341.00
676.54	21490.80
676.68	21191.21
676.82	20858.85
676.96	20943.11
677.10	20938.43
677.23	20861.19
677.37	20809.70
677.51	20830.77
677.65	20666.93
677.79	20414.15
677.93	20620.12
678.07	20624.80
678.21	20421.17
678.34	20091.16
678.48	20320.53
678.62	20477.35
678.76	20372.02
678.90	20030.30
679.04	20355.64
679.18	20121.59
679.31	20034.99
679.45	19763.48
679.59	19885.19
679.73	19667.52
679.87	19618.37
680.00	19360.91
680.14	19562.20
680.28	19449.85
680.42	19817.32
680.56	19679.22
680.70	19765.82
680.83	19515.39
680.97	19674.54
681.11	19665.18
681.25	19140.90
681.39	19351.55
681.52	19232.18
681.66	19000.47
681.80	18956.00
681.94	19049.62
682.07	19063.66
682.21	18974.72
682.35	18590.88
682.49	18876.42
682.62	18675.13
682.76	18668.11
682.90	18960.68
683.04	18551.09
683.17	18506.62
683.31	18368.52
683.45	18633.00
683.59	18185.96
683.72	18141.49
683.86	18534.70
684.00	18363.84
684.13	18377.89
684.27	18249.16
684.41	18050.21
684.55	17783.39
684.68	17771.69
684.82	17736.58
684.96	17554.02
685.09	17603.17
685.23	17523.59
685.37	17561.04
685.50	17921.48
685.64	17626.57
685.78	17769.35
685.91	17542.32
686.05	17341.03
686.19	17378.48
686.32	17235.70
686.46	17029.74
686.60	17132.72
686.73	17088.25
686.87	16681.00
687.01	16882.28
687.14	17015.69
687.28	16837.81
687.42	16594.40
687.55	16547.59
687.69	16561.63
687.82	16641.21
687.96	16676.32
688.10	16767.60
688.23	16638.87
688.37	16542.91
688.50	16561.63
688.64	16561.63
688.78	16336.94
688.91	16191.83
689.05	16252.68
689.18	15819.68
689.32	15843.09
689.46	15990.54
689.59	15829.04
689.73	16027.99
689.86	15557.54
690.00	15894.58
690.13	15913.30
690.27	15941.39
690.41	15604.35
690.54	15597.33
690.68	15545.84
690.81	15468.60
690.95	15658.18
691.08	15714.36
691.22	15215.82
691.35	15426.47
691.49	15236.89
691.62	15246.25
691.76	15119.86
691.89	15185.40
692.03	14911.55
692.16	15110.50
692.30	14949.00
692.43	14899.85
692.57	14661.12
692.70	14583.88
692.84	14588.56
692.97	14635.37
693.11	14728.99
693.24	14789.85
693.38	14562.81
693.51	14736.01
693.65	14342.80
693.78	14052.58
693.92	14473.87
694.05	14279.61
694.19	13961.30
694.32	14129.81
694.45	14045.55
694.59	13858.31
694.72	13846.61
694.86	13839.59
694.99	13654.69
695.13	13839.59
695.26	13612.56
695.39	13813.84
695.53	13383.18
695.66	13631.28
695.80	13685.11
695.93	13605.53
696.07	13275.52
696.20	13420.63
696.33	13366.80
696.47	13193.60
696.60	13317.65
696.73	13343.39
696.87	13048.49
697.00	12973.59
697.14	12940.82
697.27	12622.51
697.40	12758.26
697.54	12599.10
697.67	12849.54
697.80	12683.36
697.94	12568.68
698.07	12444.63
698.21	12355.69
698.34	12706.77
698.47	12510.16
698.61	12400.16
698.74	12657.62
698.87	12702.09
699.01	12154.40
699.14	12390.80
699.27	12266.75
699.40	12210.57
699.54	12018.65
699.67	12065.46
699.80	11679.27
699.94	12053.76
700.07	11971.84
700.20	11559.91
700.34	11639.48
700.47	11658.21
700.60	11843.11
700.73	11747.15
700.87	11609.06
701.00	11541.18
701.13	11330.53
701.26	11379.68
701.40	11417.13
701.53	11199.46
701.66	11201.80
701.79	11309.47
701.93	11391.39
702.06	10927.96
702.19	11033.29
702.32	11346.92
702.46	10925.62
702.59	10794.55
702.72	10916.26
702.85	10729.02
702.99	10686.89
703.12	10520.71
703.25	10799.23
703.38	10752.42
703.51	10626.03
703.65	10450.49
703.78	10534.75
703.91	10534.75
704.04	10574.54
704.17	10473.90
704.31	10317.08
704.44	10319.42
704.57	10399.00
704.70	10146.22
704.83	9982.38
704.96	9949.62
705.10	10029.20
705.23	10115.80
>>>>>End Processed Spectral Data<<<<<
