SpectraSuite Data File
++++++++++++++++++++++++++++++++++++
Date: Fri Oct 18 13:58:00 GMT-05:00 2013
User: bianchi
Dark Spectrum Present: No
Reference Spectrum Present: No
Number of Sampled Component Spectra: 1
Spectrometers: USB2+H05261
Integration Time (usec): 50000 (USB2+H05261)
Spectra Averaged: 1 (USB2+H05261)
Boxcar Smoothing: 0 (USB2+H05261)
Correct for Electrical Dark: No (USB2+H05261)
Strobe/Lamp Enabled: No (USB2+H05261)
Correct for Detector Non-linearity: No (USB2+H05261)
Correct for Stray Light: No (USB2+H05261)
Number of Pixels in Processed Spectrum: 2048
>>>>>Begin Processed Spectral Data<<<<<
365.73	0.00
365.92	0.00
366.12	0.00
366.32	0.00
366.52	0.00
366.72	0.00
366.91	0.00
367.11	0.00
367.31	0.00
367.51	0.00
367.70	0.00
367.90	0.00
368.10	0.00
368.30	0.00
368.49	0.00
368.69	0.00
368.89	0.00
369.09	0.00
369.28	0.00
369.48	0.00
369.68	0.00
369.87	0.00
370.07	0.00
370.27	0.00
370.47	0.00
370.66	44.47
370.86	114.69
371.06	107.66
371.25	128.73
371.45	177.88
371.65	135.75
371.84	91.28
372.04	175.54
372.24	269.16
372.44	168.52
372.63	187.24
372.83	224.69
373.03	252.78
373.22	175.54
373.42	203.63
373.62	177.88
373.81	184.90
374.01	250.44
374.21	236.39
374.40	191.92
374.60	203.63
374.79	271.50
374.99	248.10
375.19	276.18
375.38	250.44
375.58	257.46
375.78	248.10
375.97	322.99
376.17	252.78
376.37	315.97
376.56	266.82
376.76	229.37
376.95	236.39
377.15	266.82
377.35	311.29
377.54	236.39
377.74	287.89
377.93	252.78
378.13	292.57
378.33	287.89
378.52	220.01
378.72	280.86
378.91	184.90
379.11	308.95
379.31	224.69
379.50	236.39
379.70	245.76
379.89	311.29
380.09	266.82
380.28	301.93
380.48	262.14
380.68	308.95
380.87	304.27
381.07	304.27
381.26	344.06
381.46	227.03
381.65	353.42
381.85	339.38
382.04	360.44
382.24	306.61
382.43	313.63
382.63	334.70
382.83	362.78
383.02	351.08
383.22	407.25
383.41	362.78
383.61	332.36
383.80	414.27
384.00	496.19
384.19	381.51
384.39	444.70
384.58	320.65
384.78	381.51
384.97	372.15
385.17	428.32
385.36	393.21
385.56	367.46
385.75	367.46
385.95	418.96
386.14	435.34
386.34	402.57
386.53	433.00
386.72	404.91
386.92	416.62
387.11	397.89
387.31	337.04
387.50	411.93
387.70	400.23
387.89	449.38
388.09	376.83
388.28	409.59
388.48	411.93
388.67	430.66
388.86	458.74
389.06	358.10
389.25	493.85
389.45	411.93
389.64	407.25
389.84	528.96
390.03	388.53
390.22	505.56
390.42	468.11
390.61	449.38
390.81	505.56
391.00	557.05
391.19	589.82
391.39	496.19
391.58	524.28
391.78	489.17
391.97	557.05
392.16	514.92
392.36	540.66
392.55	538.32
392.75	526.62
392.94	498.53
393.13	580.45
393.33	554.71
393.52	528.96
393.71	585.13
393.91	517.26
394.10	521.94
394.29	589.82
394.49	564.07
394.68	617.90
394.88	603.86
395.07	582.79
395.26	575.77
395.46	622.58
395.65	613.22
395.84	662.37
396.04	669.39
396.23	631.94
396.42	627.26
396.62	657.69
396.81	615.56
397.00	568.75
397.19	704.50
397.39	685.78
397.58	683.44
397.77	674.07
397.97	711.52
398.16	704.50
398.35	653.01
398.55	603.86
398.74	589.82
398.93	662.37
399.12	718.54
399.32	723.23
399.51	716.20
399.70	711.52
399.90	713.86
400.09	751.31
400.28	842.59
400.47	697.48
400.67	723.23
400.86	695.14
401.05	718.54
401.24	662.37
401.44	772.38
401.63	798.12
401.82	840.25
402.01	851.96
402.21	844.93
402.40	788.76
402.59	777.06
402.78	823.87
402.97	802.80
403.17	896.43
403.36	924.51
403.55	894.08
403.74	851.96
403.93	896.43
404.13	837.91
404.32	882.38
404.51	854.30
404.70	915.15
404.89	922.17
405.09	968.98
405.28	983.02
405.47	922.17
405.66	866.00
405.85	1025.15
406.05	933.87
406.24	929.19
406.43	901.11
406.62	1020.47
406.81	1107.07
407.00	1006.43
407.20	987.71
407.39	1046.22
407.58	999.41
407.77	1172.61
407.96	1086.01
408.15	1118.78
408.34	1036.86
408.54	1107.07
408.73	1062.60
408.92	1114.10
409.11	1083.67
409.30	1083.67
409.49	1139.84
409.68	1179.63
409.87	1128.14
410.07	1142.18
410.26	1179.63
410.45	1219.42
410.64	1142.18
410.83	1203.04
411.02	1203.04
411.21	1184.31
411.40	1263.89
411.59	1324.74
411.78	1198.35
411.98	1270.91
412.17	1167.93
412.36	1245.16
412.55	1324.74
412.74	1345.81
412.93	1366.87
413.12	1324.74
413.31	1446.45
413.50	1409.00
413.69	1341.13
413.88	1439.43
414.07	1472.20
414.26	1488.58
414.45	1397.30
414.64	1490.92
414.83	1514.33
415.02	1591.56
415.22	1589.22
415.41	1514.33
415.60	1584.54
415.79	1521.35
415.98	1551.78
416.17	1629.01
416.36	1540.07
416.55	1579.86
416.74	1547.09
416.93	1577.52
417.12	1652.42
417.31	1650.08
417.50	1598.59
417.69	1732.00
417.88	1652.42
418.07	1636.03
418.26	1734.34
418.45	1736.68
418.64	1795.19
418.83	1795.19
419.02	1865.41
419.21	1783.49
419.39	1710.93
419.58	1827.96
419.77	1755.40
419.96	1769.44
420.15	1858.39
420.34	1851.36
420.53	1750.72
420.72	1802.21
420.91	1944.99
421.10	1921.58
421.29	1954.35
421.48	1877.11
421.67	1842.00
421.86	1926.26
422.05	1966.05
422.24	1942.64
422.43	1977.75
422.61	1996.48
422.80	1973.07
422.99	1989.46
423.18	2050.31
423.37	2033.93
423.56	1928.60
423.75	1966.05
423.94	1989.46
424.13	1888.81
424.32	1923.92
424.50	1944.99
424.69	2033.93
424.88	2062.01
425.07	2054.99
425.26	1933.28
425.45	1933.28
425.64	1867.75
425.83	2052.65
426.01	2097.12
426.20	2019.88
426.39	2160.31
426.58	2057.33
426.77	2139.25
426.96	2029.24
427.15	2012.86
427.33	2118.18
427.52	2019.88
427.71	2099.46
427.90	2160.31
428.09	2211.81
428.28	2092.44
428.46	2260.96
428.65	2179.04
428.84	2150.95
429.03	2174.36
429.22	2085.42
429.40	2157.97
429.59	2113.50
429.78	2228.19
429.97	2181.38
430.16	2340.54
430.34	2347.56
430.53	2328.83
430.72	2345.22
430.91	2207.13
431.10	2167.34
431.28	2373.30
431.47	2349.90
431.66	2455.22
431.85	2415.43
432.03	2525.44
432.22	2471.61
432.41	2373.30
432.60	2420.11
432.79	2399.05
432.97	2530.12
433.16	2408.41
433.35	2347.56
433.54	2520.76
433.72	2471.61
433.91	2574.59
434.10	2487.99
434.28	2588.63
434.47	2427.14
434.66	2551.18
434.85	2558.21
435.03	2633.10
435.22	2527.78
435.41	2705.66
435.59	2647.15
435.78	2647.15
435.97	2553.52
436.16	2621.40
436.34	2548.84
436.53	2736.09
436.72	2726.72
436.90	2710.34
437.09	2775.88
437.28	2696.30
437.46	2628.42
437.65	2750.13
437.84	2736.09
438.02	2754.81
438.21	2792.26
438.40	2700.98
438.58	2803.96
438.77	2789.92
438.96	2869.50
439.14	2937.37
439.33	2972.48
439.52	2892.90
439.70	3000.57
439.89	2913.97
440.08	2876.52
440.26	3014.61
440.45	2960.78
440.63	3045.04
440.82	3187.81
441.01	3073.12
441.19	3075.46
441.38	3192.49
441.57	3141.00
441.75	3279.09
441.94	3239.30
442.12	3239.30
442.31	3232.28
442.50	3290.79
442.68	3311.86
442.87	3332.92
443.05	3302.50
443.24	3290.79
443.43	3419.52
443.61	3335.26
443.80	3384.41
443.98	3332.92
444.17	3229.94
444.35	3337.60
444.54	3562.30
444.73	3428.88
444.91	3407.82
445.10	3466.33
445.28	3461.65
445.47	3393.78
445.65	3398.46
445.84	3405.48
446.02	3435.91
446.21	3368.03
446.39	3468.67
446.58	3508.46
446.77	3463.99
446.95	3417.18
447.14	3478.04
447.32	3574.00
447.51	3515.48
447.69	3412.50
447.88	3520.17
448.06	3667.62
448.25	3485.06
448.43	3468.67
448.62	3585.70
448.80	3513.14
448.99	3569.32
449.17	3454.63
449.36	3344.63
449.54	3613.79
449.73	3721.45
449.91	3716.77
450.10	3754.22
450.28	3630.17
450.46	3763.58
450.65	3723.79
450.83	3627.83
451.02	3772.94
451.20	3758.90
451.39	3747.20
451.57	3721.45
451.76	3609.11
451.94	3782.31
452.13	3850.18
452.31	3786.99
452.49	3864.22
452.68	3749.54
452.86	3716.77
453.05	3906.35
453.23	3815.07
453.42	3784.65
453.60	3749.54
453.78	3899.33
453.97	3953.16
454.15	4046.79
454.34	3847.84
454.52	4032.74
454.70	3918.06
454.89	4067.85
455.07	4074.87
455.26	4051.47
455.44	4077.21
455.62	4063.17
455.81	4039.76
455.99	4049.13
456.17	4058.49
456.36	4189.56
456.54	4154.45
456.73	4306.59
456.91	4264.46
457.09	4273.82
457.28	4430.63
457.46	4304.25
457.64	4351.06
457.83	4351.06
458.01	4264.46
458.19	4262.12
458.38	4423.61
458.56	4463.40
458.74	4252.75
458.93	4299.56
459.11	4348.72
459.29	4425.95
459.48	4353.40
459.66	4482.13
459.84	4545.32
460.03	4622.56
460.21	4571.07
460.39	4599.15
460.57	4557.02
460.76	4524.26
460.94	4603.83
461.12	4564.04
461.31	4683.41
461.49	4617.88
461.67	4432.97
461.85	4571.07
462.04	4692.77
462.22	4823.84
462.40	4798.10
462.59	4713.84
462.77	4697.46
462.95	4688.09
463.13	4809.80
463.32	4589.79
463.50	4844.91
463.68	4770.01
463.86	4999.38
464.05	4844.91
464.23	4791.08
464.41	4922.15
464.59	4765.33
464.78	4842.57
464.96	4926.83
465.14	4774.69
465.32	5001.72
465.50	4947.89
465.69	5013.43
465.87	4840.23
466.05	4964.28
466.23	4940.87
466.41	4985.34
466.60	5074.28
466.78	4968.96
466.96	5048.54
467.14	4999.38
467.32	5011.09
467.51	5284.93
467.69	4961.94
467.87	5076.62
468.05	5158.54
468.23	5107.05
468.41	5128.11
468.60	5240.46
468.78	5174.92
468.96	5170.24
469.14	5224.08
469.32	5474.51
469.50	5224.08
469.69	5371.53
469.87	5350.46
470.05	5296.63
470.23	5376.21
470.41	5437.06
470.59	5533.03
470.77	5549.41
470.95	5305.99
471.14	5577.50
471.32	5378.55
471.50	5547.07
471.68	5568.13
471.86	5577.50
472.04	5722.61
472.22	5680.48
472.40	5472.17
472.58	5533.03
472.77	5692.18
472.95	5778.78
473.13	5743.67
473.31	5832.62
473.49	5769.42
473.67	5921.56
473.85	5809.21
474.03	6029.22
474.21	5874.74
474.39	5930.92
474.57	6036.24
474.75	5982.41
474.93	6153.27
475.12	6200.08
475.30	6195.40
475.48	6019.86
475.66	6237.53
475.84	6031.56
476.02	6141.57
476.20	6445.84
476.38	6317.11
476.56	6569.88
476.74	6485.62
476.92	6502.01
477.10	6471.58
477.28	6518.39
477.46	6651.80
477.64	6834.36
477.82	6712.66
478.00	6832.02
478.18	6927.99
478.36	6981.82
478.54	7098.84
478.72	6937.35
478.90	7089.48
479.08	7005.22
479.26	7227.57
479.44	7419.50
479.62	7253.32
479.80	7211.19
479.98	7379.71
480.16	7480.35
480.34	7368.01
480.52	7487.37
480.70	7576.31
480.88	7391.41
481.06	7595.04
481.24	7590.36
481.41	7997.61
481.59	7829.09
481.77	8051.44
481.95	7969.52
482.13	8039.74
482.31	8119.32
482.49	8039.74
482.67	8372.10
482.85	8416.57
483.03	8512.53
483.21	8421.25
483.39	8566.36
483.57	8610.83
483.74	8592.11
483.92	8709.13
484.10	8557.00
484.28	8753.60
484.46	8915.10
484.64	9050.85
484.82	8821.48
485.00	9153.84
485.18	9474.49
485.35	9303.63
485.53	9394.91
485.71	9493.21
485.89	9593.86
486.07	9408.95
486.25	9511.94
486.43	9717.90
486.61	9778.76
486.78	9823.23
486.96	9961.32
487.14	10012.81
487.32	10008.13
487.50	9909.83
487.68	10134.52
487.85	10310.06
488.03	10476.24
488.21	10448.15
488.39	10410.70
488.57	10663.48
488.75	10714.97
488.92	10827.32
489.10	10843.70
489.28	10909.24
489.46	11054.35
489.64	10970.09
489.81	11110.52
489.99	11274.36
490.17	11243.93
490.35	11370.32
490.53	11454.58
490.70	11669.91
490.88	11566.93
491.06	11658.21
491.24	11726.08
491.41	11763.53
491.59	11962.48
491.77	11915.67
491.95	11843.11
492.13	12018.65
492.30	12381.43
492.48	12301.86
492.66	12393.14
492.84	12262.07
493.01	12362.71
493.19	12573.36
493.37	12652.94
493.54	12514.84
493.72	12711.45
493.90	12545.27
494.08	12716.13
494.25	12879.97
494.43	13139.77
494.61	13135.09
494.79	13270.84
494.96	13099.98
495.14	13202.96
495.32	13563.40
495.49	13561.06
495.67	13635.96
495.85	13717.88
496.02	13661.71
496.20	13715.54
496.38	13935.55
496.55	14094.71
496.73	14118.11
496.91	14200.03
497.09	14010.45
497.26	14326.42
497.44	14066.62
497.62	14328.76
497.79	14745.38
497.97	14396.64
498.14	14415.36
498.32	14686.86
498.50	14831.97
498.67	14876.44
498.85	14822.61
499.03	14696.22
499.20	15019.22
499.38	14920.92
499.56	15227.53
499.73	15349.23
499.91	15414.77
500.08	15379.66
500.26	15180.71
500.44	15152.63
500.61	15604.35
500.79	15473.28
500.97	15456.90
501.14	15768.19
501.32	15765.85
501.49	15831.38
501.67	15751.81
501.84	15896.92
502.02	15852.45
502.20	16084.16
502.37	15859.47
502.55	16369.71
502.72	16077.14
502.90	16116.93
503.07	16100.55
503.25	16084.16
503.43	16173.10
503.60	16350.98
503.78	16421.20
503.95	16662.27
504.13	16643.55
504.30	16358.00
504.48	16645.89
504.65	16758.24
504.83	16840.15
505.01	16908.03
505.18	16877.60
505.36	16968.88
505.53	16774.62
505.71	17067.19
505.88	17067.19
506.06	17039.10
506.23	17378.48
506.41	17224.00
506.58	17322.30
506.76	17228.68
506.93	17261.45
507.11	17242.73
507.28	17397.20
507.46	17436.99
507.63	17802.11
507.81	17682.75
507.98	17558.70
508.16	17816.16
508.33	17809.14
508.50	17970.63
508.68	17661.68
508.85	18033.83
509.03	17778.71
509.20	18192.98
509.38	18244.48
509.55	18162.56
509.73	18202.35
509.90	18274.90
510.08	18143.83
510.25	18532.36
510.42	18590.88
510.60	18609.60
510.77	18689.18
510.95	18731.31
511.12	18970.04
511.30	18544.06
511.47	18658.75
511.64	18883.44
511.82	18890.46
511.99	18932.59
512.17	19112.81
512.34	18815.57
512.51	18864.72
512.69	19117.50
512.86	19077.71
513.04	19070.68
513.21	19353.89
513.38	19330.48
513.56	19351.55
513.73	19501.34
513.90	19267.29
514.08	19297.72
514.25	19754.12
514.43	19679.22
514.60	19536.45
514.77	19859.45
514.95	19878.17
515.12	20121.59
515.29	19775.19
515.47	20208.19
515.64	20013.92
515.81	20224.57
515.99	20166.06
516.16	20081.80
516.33	20025.62
516.51	20453.94
516.68	20163.72
516.85	20114.56
517.03	20189.46
517.20	20446.92
517.37	20512.46
517.54	20320.53
517.72	20589.69
517.89	20421.17
518.06	20482.03
518.24	20521.82
518.41	20446.92
518.58	20526.50
518.75	20699.70
518.93	20760.55
519.10	21111.63
519.27	21425.26
519.45	20765.23
519.62	21022.69
519.79	21179.51
519.96	21102.27
520.14	20987.58
520.31	21170.15
520.48	21474.42
520.65	21149.08
520.83	21310.58
521.00	21345.69
521.17	21034.39
521.34	21284.83
521.52	21333.98
521.69	21490.80
521.86	21439.31
522.03	21696.77
522.20	21565.70
522.38	21640.59
522.55	21783.37
522.72	21837.20
522.89	21752.94
523.07	21867.63
523.24	22169.55
523.41	22375.52
523.58	21907.41
523.75	21731.87
523.92	21909.75
524.10	21734.21
524.27	22150.83
524.44	22558.08
524.61	22345.09
524.78	22499.57
524.96	22537.02
525.13	22506.59
525.30	22902.14
525.47	22558.08
525.64	22380.20
525.81	22726.60
525.98	22562.76
526.16	22520.63
526.33	22668.09
526.50	22745.33
526.67	22593.19
526.84	22937.25
527.01	22967.68
527.18	22855.33
527.36	22965.34
527.53	23101.09
527.70	23435.78
527.87	23185.35
528.04	22934.91
528.21	23183.01
528.38	22803.84
528.55	23466.21
528.72	23321.10
528.89	23000.44
529.07	23262.58
529.24	23374.93
529.41	23674.52
529.58	23665.16
529.75	23323.44
529.92	23365.57
530.09	23220.45
530.26	23784.52
530.43	23887.51
530.60	23613.66
530.77	23484.94
530.94	23791.55
531.11	23573.88
531.28	23695.58
531.46	23793.89
531.63	23702.61
531.80	23632.39
531.97	24046.66
532.14	24002.19
532.31	24039.64
532.48	24081.77
532.65	23913.25
532.82	23997.51
532.99	24063.05
533.16	24039.64
533.33	24147.31
533.50	24367.32
533.67	24465.62
533.84	24250.29
534.01	24292.42
534.18	24341.57
534.35	24409.45
534.52	24514.77
534.69	24561.58
534.86	24664.57
535.03	24379.02
535.20	24561.58
535.37	24334.55
535.54	24842.45
535.71	24491.37
535.88	24446.90
536.05	24641.16
536.22	24535.84
536.38	25120.97
536.55	24900.96
536.72	24781.59
536.89	24460.94
537.06	24929.05
537.23	24966.49
537.40	24769.89
537.57	24919.68
537.74	25118.63
537.91	25846.54
538.08	25338.64
538.25	24879.89
538.42	24898.62
538.59	25275.45
538.75	25137.35
538.92	25261.40
539.09	25500.14
539.26	25277.79
539.43	25357.36
539.60	25228.63
539.77	25366.73
539.94	25429.92
540.11	25549.29
540.28	25193.53
540.44	25284.81
540.61	25436.94
540.78	25296.51
540.95	25553.97
541.12	25479.07
541.29	25724.83
541.46	25633.55
541.62	25476.73
541.79	25809.09
541.96	25539.93
542.13	25713.13
542.30	25453.33
542.47	25935.48
542.63	26052.50
542.80	26096.97
542.97	26057.18
543.14	26426.99
543.31	26417.63
543.48	26096.97
543.64	26225.70
543.81	26232.72
543.98	26424.65
544.15	26452.73
544.32	26396.56
544.48	26630.62
544.65	26265.49
544.82	26597.85
544.99	26129.74
545.16	26497.20
545.32	26331.03
545.49	26794.45
545.66	26773.39
545.83	26764.03
546.00	26642.32
546.16	26703.17
546.33	26586.15
546.50	26157.83
546.67	27037.87
546.83	26244.43
547.00	26934.88
547.17	26340.39
547.34	26824.88
547.50	27061.27
547.67	26892.76
547.84	27030.85
548.00	26995.74
548.17	27407.67
548.34	27122.13
548.51	27374.91
548.67	27117.45
548.84	27215.75
549.01	27342.14
549.18	27407.67
549.34	27058.93
549.51	26960.63
549.68	27168.94
549.84	27136.17
550.01	27473.21
550.18	27040.21
550.34	27129.15
550.51	27321.07
550.68	27365.54
550.84	27178.30
551.01	27962.38
551.18	27625.34
551.34	27405.33
551.51	27206.39
551.68	27445.12
551.84	27131.49
552.01	27522.36
552.18	27721.30
552.34	27536.40
552.51	27690.88
552.68	27686.20
552.84	27522.36
553.01	27613.64
553.18	27573.85
553.34	27924.93
553.51	27772.80
553.67	28196.43
553.84	28114.52
554.01	27655.77
554.17	27964.72
554.34	27714.28
554.51	27807.90
554.67	28428.15
554.84	27957.70
555.00	27859.40
555.17	28018.55
555.33	28350.91
555.50	28156.64
555.67	27936.63
555.83	27814.93
556.00	28222.18
556.16	28493.68
556.33	28063.02
556.50	28205.80
556.66	28486.66
556.83	28191.75
556.99	28332.18
557.16	28219.84
557.32	28538.15
557.49	28343.89
557.65	28126.22
557.82	28357.93
557.98	27924.93
558.15	28100.47
558.32	28538.15
558.48	28240.90
558.65	28809.65
558.81	28580.28
558.98	28472.62
559.14	28428.15
559.31	28549.85
559.47	28542.83
559.64	28240.90
559.80	28514.75
559.97	28840.08
560.13	28428.15
560.30	28797.95
560.46	28793.27
560.63	28744.12
560.79	28929.02
560.96	28575.60
561.12	28676.24
561.29	28325.16
561.45	28975.83
561.61	29099.88
561.78	28652.84
561.94	28837.74
562.11	28905.62
562.27	28989.88
562.44	29244.99
562.60	28966.47
562.77	28636.45
562.93	28613.05
563.10	28952.43
563.26	28776.89
563.42	29476.71
563.59	28879.87
563.75	28907.96
563.92	29043.71
564.08	28643.48
564.24	28900.94
564.41	28570.92
564.57	28823.70
564.74	28835.40
564.90	29048.39
565.07	29331.59
565.23	28996.90
565.39	29235.63
565.56	29294.14
565.72	28790.93
565.88	29010.94
566.05	28994.56
566.21	29017.96
566.38	28851.78
566.54	28826.04
566.70	29736.51
566.87	28922.00
567.03	29123.29
567.19	29436.92
567.36	29551.60
567.52	29427.56
567.68	29549.26
567.85	28926.68
568.01	29113.92
568.17	28973.49
568.34	29333.93
568.50	29132.65
568.66	29319.89
568.83	29860.55
568.99	29340.96
569.15	29074.13
569.32	29095.20
569.48	28992.22
569.64	29422.87
569.81	29415.85
569.97	29560.97
570.13	29731.83
570.30	29432.24
570.46	29376.06
570.62	29244.99
570.78	29397.13
570.95	29287.12
571.11	29397.13
571.27	29223.93
571.43	29039.03
571.60	29287.12
571.76	29261.38
571.92	29090.52
572.09	29713.10
572.25	29811.40
572.41	29305.85
572.57	29373.72
572.74	29633.52
572.90	29373.72
573.06	29326.91
573.22	29415.85
573.38	29420.53
573.55	29495.43
573.71	29773.95
573.87	29912.05
574.03	29586.71
574.20	29912.05
574.36	29413.51
574.52	29703.74
574.68	29486.07
574.84	29603.10
575.01	29614.80
575.17	29827.79
575.33	29549.26
575.49	29832.47
575.65	29853.53
575.82	29673.31
575.98	29570.33
576.14	30024.39
576.30	29460.32
576.46	29539.90
576.62	29577.35
576.79	29514.16
576.95	29507.13
577.11	30043.12
577.27	29811.40
577.43	29902.68
577.59	29549.26
577.75	29685.01
577.92	29441.60
578.08	29689.70
578.24	29717.78
578.40	29724.80
578.56	29579.69
578.72	29820.77
578.88	29614.80
579.04	29792.68
579.21	29701.40
579.37	29567.99
579.53	29748.21
579.69	29570.33
579.85	29673.31
580.01	29745.87
580.17	29610.12
580.33	29741.19
580.49	29560.97
580.65	29937.79
580.82	29933.11
580.98	29717.78
581.14	29680.33
581.30	29865.24
581.46	29420.53
581.62	29687.36
581.78	29472.03
581.94	29942.47
582.10	29626.50
582.26	29567.99
582.42	29663.95
582.58	30054.82
582.74	30029.07
582.90	29551.60
583.06	30197.59
583.22	30029.07
583.38	29965.88
583.54	29799.70
583.70	29668.63
583.86	29675.65
584.02	29518.84
584.18	29951.84
584.34	30087.59
584.50	30155.46
584.66	29734.17
584.82	29333.93
584.98	29701.40
585.14	29724.80
585.30	30012.69
585.46	29717.78
585.62	29879.28
585.78	29778.64
585.94	29722.46
586.10	30029.07
586.26	29881.62
586.42	29968.22
586.58	30338.02
586.74	30176.53
586.90	29734.17
587.06	29853.53
587.22	29773.95
587.38	30054.82
587.54	30148.44
587.70	29876.94
587.86	30120.35
588.02	30040.78
588.18	30462.07
588.34	29778.64
588.49	30061.84
588.65	29748.21
588.81	29600.76
588.97	29773.95
589.13	30139.08
589.29	29619.48
589.45	30356.75
589.61	29907.37
589.77	30092.27
589.93	30529.95
590.08	30230.36
590.24	30478.46
590.40	30527.61
590.56	30504.20
590.72	29886.30
590.88	30228.02
591.04	30075.88
591.20	30277.17
591.35	30457.39
591.51	30438.67
591.67	30078.22
591.83	30176.53
591.99	30178.87
592.15	30146.10
592.31	30052.48
592.46	30249.08
592.62	30256.11
592.78	29993.97
592.94	30213.98
593.10	30300.58
593.26	30672.72
593.41	30270.15
593.57	30459.73
593.73	30286.53
593.89	30415.26
594.05	30242.06
594.20	30125.04
594.36	30260.79
594.52	30221.00
594.68	30382.49
594.84	30319.30
594.99	30309.94
595.15	30429.30
595.31	30625.91
595.47	30724.21
595.62	30635.27
595.78	30326.32
595.94	30253.76
596.10	30211.64
596.25	30646.97
596.41	30263.13
596.57	30569.74
596.73	30651.66
596.88	30230.36
597.04	30272.49
597.20	30429.30
597.36	30426.96
597.51	30473.78
597.67	30684.42
597.83	30558.03
597.99	30398.88
598.14	30209.29
598.30	30565.06
598.46	30197.59
598.61	30216.32
598.77	30441.01
598.93	30609.53
599.09	30286.53
599.24	30398.88
599.40	30356.75
599.56	30607.19
599.71	30382.49
599.87	30548.67
600.03	30368.45
600.18	30078.22
600.34	30412.92
600.50	30354.41
600.65	30572.08
600.81	30426.96
600.97	30885.71
601.12	30588.46
601.28	30448.03
601.44	30232.70
601.59	30588.46
601.75	30417.60
601.91	30656.34
602.06	30663.36
602.22	30735.92
602.37	30405.90
602.53	30466.75
602.69	30522.93
602.84	30497.18
603.00	30738.26
603.16	30462.07
603.31	30719.53
603.47	30710.17
603.62	30424.62
603.78	30590.80
603.94	30391.86
604.09	30747.62
604.25	30541.65
604.40	30298.23
604.56	30291.21
604.71	30780.39
604.87	30441.01
605.03	30817.83
605.18	30642.29
605.34	30623.57
605.49	30244.40
605.65	30455.05
605.80	29991.62
605.96	30136.74
606.12	30312.28
606.27	30494.84
606.43	30389.52
606.58	30501.86
606.74	30693.79
606.89	30541.65
607.05	30328.66
607.20	30450.37
607.36	30370.79
607.51	30368.45
607.67	30113.33
607.82	30059.50
607.98	30349.73
608.13	30405.90
608.29	30110.99
608.44	30424.62
608.60	30551.01
608.75	30398.88
608.91	30558.03
609.06	30534.63
609.22	30522.93
609.37	30075.88
609.53	30174.19
609.68	29876.94
609.84	30008.01
609.99	30068.86
610.15	29949.50
610.30	29848.85
610.46	30125.04
610.61	30398.88
610.76	30288.87
610.92	30539.31
611.07	29958.86
611.23	29961.20
611.38	30249.08
611.54	29867.58
611.69	29666.29
611.84	30085.25
612.00	29734.17
612.15	29755.23
612.31	30260.79
612.46	30110.99
612.62	30115.67
612.77	29764.59
612.92	30288.87
613.08	29844.17
613.23	30293.55
613.39	29727.14
613.54	29303.51
613.69	29813.74
613.85	29909.71
614.00	30047.80
614.15	30188.23
614.31	29673.31
614.46	29860.55
614.62	29890.98
614.77	30160.14
614.92	29670.97
615.08	30103.97
615.23	29584.37
615.38	29797.36
615.54	29647.57
615.69	29191.16
615.84	29420.53
616.00	29895.66
616.15	29713.10
616.30	29809.06
616.46	29692.04
616.61	29649.91
616.76	30012.69
616.92	29509.47
617.07	29809.06
617.22	29558.63
617.37	29027.32
617.53	29862.90
617.68	29539.90
617.83	29551.60
617.99	29560.97
618.14	29331.59
618.29	29383.09
618.45	29364.36
618.60	29696.72
618.75	29649.91
618.90	29455.64
619.06	29263.72
619.21	29472.03
619.36	29359.68
619.51	29362.02
619.67	29191.16
619.82	29132.65
619.97	29333.93
620.12	29149.03
620.28	29315.21
620.43	29287.12
620.58	29542.24
620.73	29160.73
620.89	29333.93
621.04	29277.76
621.19	29481.39
621.34	29282.44
621.49	29193.50
621.65	28933.70
621.80	29195.84
621.95	29219.25
622.10	29263.72
622.25	28858.81
622.41	29387.77
622.56	29240.31
622.71	29570.33
622.86	28685.61
623.01	29324.57
623.16	28573.26
623.32	28912.64
623.47	28753.48
623.62	28893.91
623.77	29142.01
623.92	29214.57
624.07	29277.76
624.23	28947.75
624.38	29193.50
624.53	29008.60
624.68	28917.32
624.83	28964.13
624.98	29165.42
625.13	28767.52
625.29	28786.25
625.44	28589.64
625.59	28620.07
625.74	28603.69
625.89	28716.03
626.04	28549.85
626.19	28421.13
626.34	28821.36
626.49	28166.01
626.65	28709.01
626.80	28929.02
626.95	28187.07
627.10	28149.62
627.25	28720.71
627.40	28259.63
627.55	28034.94
627.70	28463.25
627.85	28130.90
628.00	28437.51
628.15	28086.43
628.30	28547.51
628.45	28292.40
628.60	28538.15
628.76	28339.21
628.91	28423.47
629.06	28357.93
629.21	28463.25
629.36	28383.68
629.51	28453.89
629.66	27761.09
629.81	28135.58
629.96	27985.79
630.11	28144.94
630.26	27981.10
630.41	28161.33
630.56	27889.82
630.71	28070.04
630.86	28271.33
631.01	28240.90
631.16	28009.19
631.31	28088.77
631.46	27934.29
631.61	27894.50
631.76	28219.84
631.91	27700.24
632.06	27967.06
632.21	27772.80
632.36	27960.04
632.51	27981.10
632.66	28161.33
632.81	28030.26
632.96	27599.60
633.10	27903.87
633.25	27892.16
633.40	28095.79
633.55	27604.28
633.70	27676.83
633.85	27658.11
634.00	27353.84
634.15	27824.29
634.30	27587.89
634.45	27538.74
634.60	27737.69
634.75	27665.13
634.90	27452.14
635.05	27672.15
635.19	27868.76
635.34	28032.60
635.49	27910.89
635.64	27541.08
635.79	27807.90
635.94	27686.20
636.09	27566.83
636.24	27615.98
636.39	27515.34
636.53	27541.08
636.68	27234.47
636.83	27255.54
636.98	27634.71
637.13	27267.24
637.28	27669.81
637.43	27206.39
637.57	27337.46
637.72	27491.93
637.87	27381.93
638.02	27517.68
638.17	27197.02
638.32	27211.07
638.46	27204.05
638.61	26988.72
638.76	27047.23
638.91	27037.87
639.06	27269.58
639.20	27290.65
639.35	26871.69
639.50	27133.83
639.65	27667.47
639.80	27349.16
639.94	27159.58
640.09	27297.67
640.24	27288.31
640.39	26759.34
640.54	26848.29
640.68	27014.46
640.83	26923.18
640.98	26817.86
641.13	26806.16
641.27	26918.50
641.42	26995.74
641.57	26604.87
641.72	27105.74
641.86	26665.72
642.01	26548.70
642.16	26773.39
642.31	26911.48
642.45	26890.41
642.60	26551.04
642.75	26679.77
642.90	26448.05
643.04	26693.81
643.19	26719.56
643.34	26799.13
643.48	26733.60
643.63	26696.15
643.78	26820.20
643.93	26654.02
644.07	26611.89
644.22	26429.33
644.37	26485.50
644.51	26754.66
644.66	26761.69
644.81	26040.80
644.95	26103.99
645.10	26103.99
645.25	26450.39
645.39	26565.08
645.54	26242.09
645.69	26382.52
645.83	26525.29
645.98	26225.70
646.13	26611.89
646.27	26328.69
646.42	26506.57
646.57	26267.83
646.71	26073.57
646.86	26480.82
647.00	26394.22
647.15	26057.18
647.30	26228.04
647.44	26061.87
647.59	26185.91
647.74	26192.94
647.88	26347.41
648.03	26129.74
648.17	26558.06
648.32	26532.31
648.47	26295.92
648.61	26288.90
648.76	26157.83
648.90	26204.64
649.05	25954.20
649.20	26183.57
649.34	25841.85
649.49	25680.36
649.63	25544.61
649.78	25752.91
649.92	25940.16
650.07	25905.05
650.21	25642.91
650.36	25916.75
650.51	26129.74
650.65	26103.99
650.80	25947.18
650.94	25788.02
651.09	25649.93
651.23	25443.96
651.38	25727.17
651.52	25678.02
651.67	25362.04
651.81	25738.87
651.96	25837.17
652.10	25708.44
652.25	25790.36
652.39	25947.18
652.54	25811.43
652.68	25701.42
652.83	25947.18
652.97	25881.64
653.12	25514.18
653.26	25577.37
653.41	25671.00
653.55	25493.12
653.70	25373.75
653.84	25371.41
653.99	25340.98
654.13	25722.49
654.27	25528.22
654.42	25123.31
654.56	25507.16
654.71	25689.72
654.85	25308.21
655.00	25319.92
655.14	25434.60
655.29	25053.09
655.43	25329.28
655.57	25230.98
655.72	25338.64
655.86	25193.53
656.01	25261.40
656.15	24978.20
656.30	24933.73
656.44	24957.13
656.58	25439.28
656.73	25202.89
656.87	25242.68
657.01	25287.15
657.16	25025.01
657.30	25357.36
657.45	25214.59
657.59	24987.56
657.73	25127.99
657.88	25092.88
658.02	25078.84
658.16	24615.41
658.31	24978.20
658.45	24680.95
658.60	24954.79
658.74	24584.99
658.88	24959.47
659.03	25036.71
659.17	24676.27
659.31	25039.05
659.46	24891.60
659.60	24793.29
659.74	24922.02
659.89	24500.73
660.03	24308.80
660.17	24851.81
660.32	24608.39
660.46	24238.59
660.60	24432.85
660.74	24652.86
660.89	24123.90
661.03	24102.84
661.17	24278.38
661.32	24308.80
661.46	24472.64
661.60	24533.50
661.74	24154.33
661.89	24512.43
662.03	24166.03
662.17	24519.45
662.31	24463.28
662.46	24168.37
662.60	24287.74
662.74	24107.52
662.88	24046.66
663.03	23674.52
663.17	24156.67
663.31	24060.71
663.45	23618.35
663.60	23751.76
663.74	23915.59
663.88	23803.25
664.02	23812.61
664.17	23920.28
664.31	23545.79
664.45	23672.18
664.59	23737.71
664.73	23632.39
664.88	23618.35
665.02	23386.63
665.16	23241.52
665.30	23442.81
665.44	23405.36
665.59	23290.67
665.73	23302.37
665.87	23400.68
666.01	23084.70
666.15	23199.39
666.29	23599.62
666.44	23119.81
666.58	23075.34
666.72	22813.20
666.86	23295.35
667.00	23543.45
667.14	23089.38
667.28	23309.40
667.43	23494.30
667.57	23250.88
667.71	23257.90
667.85	22909.16
667.99	22998.10
668.13	22787.46
668.27	22679.79
668.41	23129.17
668.56	22874.06
668.70	22897.46
668.84	22752.35
668.98	22792.14
669.12	22719.58
669.26	22679.79
669.40	22831.93
669.54	22551.06
669.68	22759.37
669.82	22396.59
669.96	22494.89
670.10	22309.99
670.25	22487.87
670.39	22417.65
670.53	22237.43
670.67	22263.18
670.81	22326.37
670.95	22125.08
671.09	22398.93
671.23	22003.38
671.37	22199.98
671.51	22059.55
671.65	22249.13
671.79	22148.49
671.93	21926.14
672.07	21790.39
672.21	21869.97
672.35	21813.79
672.49	22029.12
672.63	21546.97
672.77	21717.83
672.91	21514.20
673.05	21839.54
673.19	21734.21
673.33	21628.89
673.47	21949.54
673.61	21579.74
673.75	21546.97
673.89	21429.94
674.03	21795.07
674.17	21132.70
674.31	21532.93
674.45	21282.49
674.59	21289.51
674.73	21034.39
674.87	21446.33
675.01	20992.26
675.15	20896.30
675.29	20844.81
675.43	20823.75
675.56	20882.26
675.70	20980.56
675.84	20507.77
675.98	20161.37
676.12	20826.09
676.26	20936.09
676.40	20734.81
676.54	20533.52
676.68	20744.17
676.82	19946.05
676.96	20585.01
677.10	20329.89
677.23	20137.97
677.37	19910.94
677.51	20320.53
677.65	20016.26
677.79	19735.40
677.93	19660.50
678.07	19978.81
678.21	19822.00
678.34	19920.30
678.48	19756.46
678.62	19372.61
678.76	19536.45
678.90	19700.29
679.04	19531.77
679.18	19529.43
679.31	19297.72
679.45	18998.13
679.59	19335.17
679.73	19103.45
679.87	18932.59
680.00	19124.52
680.14	18869.40
680.28	18766.42
680.42	19136.22
680.56	18920.89
680.70	19384.32
680.83	18579.17
680.97	19021.53
681.11	18731.31
681.25	18731.31
681.39	18766.42
681.52	18728.97
681.66	18642.37
681.80	18721.95
681.94	18331.08
682.07	18214.05
682.21	18305.33
682.35	18085.32
682.49	18221.07
682.62	18136.81
682.76	17869.99
682.90	18075.96
683.04	18244.48
683.17	18155.54
683.31	17895.74
683.45	17907.44
683.59	17972.97
683.72	17877.01
683.86	17708.49
684.00	17687.43
684.13	17717.86
684.27	17493.16
684.41	17177.19
684.55	17315.28
684.68	17062.51
684.82	17254.43
684.96	17362.09
685.09	17179.53
685.23	17029.74
685.37	16924.41
685.50	17254.43
685.64	16688.02
685.78	17041.44
685.91	17118.68
686.05	17039.10
686.19	17025.06
686.32	16898.67
686.46	16479.71
686.60	16716.11
686.73	16397.79
686.87	16547.59
687.01	16418.86
687.14	16266.72
687.28	16463.33
687.42	16152.04
687.55	16402.47
687.69	15861.81
687.82	16025.65
687.96	16210.55
688.10	16376.73
688.23	16053.73
688.37	15754.15
688.50	15686.27
688.64	16065.44
688.78	15686.27
688.91	15693.29
689.05	15133.90
689.18	15616.05
689.32	15243.91
689.46	15398.38
689.59	15255.61
689.73	15456.90
689.86	15353.91
690.00	15449.88
690.13	15225.18
690.27	15211.14
690.41	15190.08
690.54	15117.52
690.68	15089.43
690.81	14974.75
690.95	15063.69
691.08	14839.00
691.22	14967.73
691.35	14911.55
691.49	15173.69
691.62	14782.82
691.76	14506.64
691.89	14586.22
692.03	14394.29
692.16	14300.67
692.30	14370.89
692.43	14352.16
692.57	14429.40
692.70	14258.54
692.84	14071.30
692.97	13989.38
693.11	14083.00
693.24	14148.54
693.38	13900.44
693.51	14071.30
693.65	13867.67
693.78	13790.44
693.92	14087.68
694.05	13862.99
694.19	13844.27
694.32	13624.26
694.45	13577.45
694.59	13366.80
694.72	13385.52
694.86	13467.44
694.99	13055.51
695.13	13114.02
695.26	13429.99
695.39	13305.95
695.53	13107.00
695.66	13020.40
695.80	13034.44
695.93	13076.57
696.07	12947.84
696.20	12954.87
696.33	12865.92
696.47	12891.67
696.60	12730.17
696.73	12940.82
696.87	12531.23
697.00	12599.10
697.14	12484.42
697.27	12369.73
697.40	12491.44
697.54	12477.40
697.67	12304.20
697.80	12257.39
697.94	12170.79
698.07	12058.44
698.21	12430.59
698.34	12004.61
698.47	12306.54
698.61	12161.42
698.74	12065.46
698.87	12219.94
699.01	11824.39
699.14	11798.64
699.27	11679.27
699.40	11702.68
699.54	11609.06
699.67	11552.88
699.80	11557.57
699.94	11726.08
700.07	11297.77
700.20	11112.86
700.34	11131.59
700.47	11248.61
700.60	11166.70
700.73	11257.98
700.87	11246.27
701.00	11082.44
701.13	11295.43
701.26	11054.35
701.40	11201.80
701.53	11169.04
701.66	10970.09
701.79	10981.79
701.93	10904.56
702.06	10883.49
702.19	10853.06
702.32	10328.78
702.46	10565.18
702.59	10593.26
702.72	10382.62
702.85	10626.03
702.99	10455.17
703.12	10265.59
703.25	10349.85
703.38	10347.51
703.51	10310.06
703.65	10417.72
703.78	10167.29
703.91	10284.31
704.04	10370.91
704.17	10445.81
704.31	9928.55
704.44	10097.07
704.57	9757.69
704.70	9834.93
704.83	9905.15
704.96	9790.46
705.10	9753.01
705.23	9710.88
>>>>>End Processed Spectral Data<<<<<
