SpectraSuite Data File
++++++++++++++++++++++++++++++++++++
Date: Fri Oct 18 13:58:09 GMT-05:00 2013
User: bianchi
Dark Spectrum Present: No
Reference Spectrum Present: No
Number of Sampled Component Spectra: 1
Spectrometers: USB2+H05261
Integration Time (usec): 50000 (USB2+H05261)
Spectra Averaged: 1 (USB2+H05261)
Boxcar Smoothing: 0 (USB2+H05261)
Correct for Electrical Dark: No (USB2+H05261)
Strobe/Lamp Enabled: No (USB2+H05261)
Correct for Detector Non-linearity: No (USB2+H05261)
Correct for Stray Light: No (USB2+H05261)
Number of Pixels in Processed Spectrum: 2048
>>>>>Begin Processed Spectral Data<<<<<
365.73	0.00
365.92	0.00
366.12	0.00
366.32	0.00
366.52	0.00
366.72	0.00
366.91	0.00
367.11	0.00
367.31	0.00
367.51	0.00
367.70	0.00
367.90	0.00
368.10	0.00
368.30	0.00
368.49	0.00
368.69	0.00
368.89	0.00
369.09	0.00
369.28	0.00
369.48	0.00
369.68	0.00
369.87	0.00
370.07	0.00
370.27	0.00
370.47	0.00
370.66	21.06
370.86	95.96
371.06	140.43
371.25	147.45
371.45	145.11
371.65	77.24
371.84	184.90
372.04	147.45
372.24	128.73
372.44	210.65
372.63	220.01
372.83	152.13
373.03	262.14
373.22	131.07
373.42	189.58
373.62	189.58
373.81	191.92
374.01	299.59
374.21	259.80
374.40	299.59
374.60	220.01
374.79	271.50
374.99	287.89
375.19	259.80
375.38	196.60
375.58	266.82
375.78	355.76
375.97	252.78
376.17	271.50
376.37	264.48
376.56	311.29
376.76	224.69
376.95	238.73
377.15	280.86
377.35	283.20
377.54	241.08
377.74	311.29
377.93	243.42
378.13	397.89
378.33	243.42
378.52	297.25
378.72	315.97
378.91	365.12
379.11	320.65
379.31	184.90
379.50	315.97
379.70	313.63
379.89	386.19
380.09	337.04
380.28	353.42
380.48	369.80
380.68	304.27
380.87	255.12
381.07	325.33
381.26	351.08
381.46	313.63
381.65	320.65
381.85	411.93
382.04	348.74
382.24	306.61
382.43	365.12
382.63	330.02
382.83	390.87
383.02	381.51
383.22	447.04
383.41	411.93
383.61	353.42
383.80	362.78
384.00	437.68
384.19	456.40
384.39	435.34
384.58	437.68
384.78	390.87
384.97	344.06
385.17	393.21
385.36	365.12
385.56	416.62
385.75	395.55
385.95	440.02
386.14	423.64
386.34	407.25
386.53	486.83
386.72	442.36
386.92	423.64
387.11	407.25
387.31	442.36
387.50	381.51
387.70	472.79
387.89	444.70
388.09	493.85
388.28	479.81
388.48	500.87
388.67	430.66
388.86	372.15
389.06	484.49
389.25	423.64
389.45	330.02
389.64	514.92
389.84	568.75
390.03	388.53
390.22	430.66
390.42	477.47
390.61	458.74
390.81	484.49
391.00	489.17
391.19	491.51
391.39	489.17
391.58	568.75
391.78	559.39
391.97	564.07
392.16	510.24
392.36	500.87
392.55	566.41
392.75	526.62
392.94	521.94
393.13	608.54
393.33	510.24
393.52	606.20
393.71	596.84
393.91	599.18
394.10	498.53
394.29	589.82
394.49	601.52
394.68	603.86
394.88	634.29
395.07	697.48
395.26	582.79
395.46	557.05
395.65	653.01
395.84	580.45
396.04	629.60
396.23	603.86
396.42	615.56
396.62	688.12
396.81	716.20
397.00	613.22
397.19	580.45
397.39	678.76
397.58	718.54
397.77	655.35
397.97	760.67
398.16	608.54
398.35	617.90
398.55	734.93
398.74	732.59
398.93	755.99
399.12	767.70
399.32	713.86
399.51	744.29
399.70	814.51
399.90	753.65
400.09	732.59
400.28	718.54
400.47	896.43
400.67	767.70
400.86	763.01
401.05	791.10
401.24	816.85
401.44	844.93
401.63	732.59
401.82	800.46
402.01	781.74
402.21	826.21
402.40	908.13
402.59	819.19
402.78	922.17
402.97	802.80
403.17	915.15
403.36	870.68
403.55	849.61
403.74	814.51
403.93	943.24
404.13	915.15
404.32	938.55
404.51	873.02
404.70	1022.81
404.89	866.00
405.09	863.66
405.28	877.70
405.47	952.60
405.66	1004.09
405.85	947.92
406.05	964.30
406.24	1004.09
406.43	1081.33
406.62	1078.99
406.81	1174.95
407.00	1055.58
407.20	1027.50
407.39	943.24
407.58	1184.31
407.77	1104.73
407.96	1086.01
408.15	1043.88
408.34	1121.12
408.54	1184.31
408.73	1071.97
408.92	1071.97
409.11	1114.10
409.30	1261.55
409.49	1114.10
409.68	1200.69
409.87	1165.59
410.07	1137.50
410.26	1231.12
410.45	1179.63
410.64	1263.89
410.83	1186.65
411.02	1177.29
411.21	1224.10
411.40	1247.51
411.59	1240.48
411.78	1322.40
411.98	1172.61
412.17	1299.00
412.36	1350.49
412.55	1256.87
412.74	1383.26
412.93	1357.51
413.12	1434.75
413.31	1423.05
413.50	1493.26
413.69	1411.34
413.88	1406.66
414.07	1376.24
414.26	1474.54
414.45	1448.79
414.64	1409.00
414.83	1572.84
415.02	1481.56
415.22	1563.48
415.41	1535.39
415.60	1558.80
415.79	1678.16
415.98	1626.67
416.17	1575.18
416.36	1558.80
416.55	1664.12
416.74	1638.38
416.93	1603.27
417.12	1675.82
417.31	1762.42
417.50	1729.66
417.69	1732.00
417.88	1717.95
418.07	1739.02
418.26	1722.63
418.45	1849.02
418.64	1856.04
418.83	1823.28
419.02	1788.17
419.21	1799.87
419.39	1806.89
419.58	1776.47
419.77	1781.15
419.96	1884.13
420.15	1947.33
420.34	1818.60
420.53	1863.07
420.72	1937.96
420.91	1980.09
421.10	1912.22
421.29	1987.11
421.48	1975.41
421.67	1914.56
421.86	1928.60
422.05	1987.11
422.24	1987.11
422.43	1975.41
422.61	1989.46
422.80	1989.46
422.99	2106.48
423.18	2066.69
423.37	2050.31
423.56	2118.18
423.75	2031.58
423.94	1919.24
424.13	1944.99
424.32	1982.43
424.50	2080.74
424.69	2115.84
424.88	2132.23
425.07	1980.09
425.26	2047.97
425.45	1996.48
425.64	2057.33
425.83	1930.94
426.01	2106.48
426.20	2214.15
426.39	2148.61
426.58	2165.00
426.77	1991.80
426.96	2230.53
427.15	2092.44
427.33	2141.59
427.52	2260.96
427.71	2176.70
427.90	2235.21
428.09	2244.57
428.28	2221.17
428.46	2305.43
428.65	2127.55
428.84	2310.11
429.03	2230.53
429.22	2356.92
429.40	2211.81
429.59	2345.22
429.78	2216.49
429.97	2165.00
430.16	2209.47
430.34	2298.41
430.53	2399.05
430.72	2352.24
430.91	2284.36
431.10	2328.83
431.28	2363.94
431.47	2448.20
431.66	2438.84
431.85	2401.39
432.03	2497.35
432.22	2509.05
432.41	2473.95
432.60	2548.84
432.79	2333.51
432.97	2546.50
433.16	2518.42
433.35	2506.71
433.54	2602.68
433.72	2492.67
433.91	2443.52
434.10	2523.10
434.28	2502.03
434.47	2490.33
434.66	2651.83
434.85	2670.55
435.03	2527.78
435.22	2663.53
435.41	2789.92
435.59	2719.70
435.78	2649.49
435.97	2740.77
436.16	2782.90
436.34	2698.64
436.53	2654.17
436.72	2888.22
436.90	2665.87
437.09	2829.71
437.28	2686.94
437.46	2712.68
437.65	2747.79
437.84	2773.53
438.02	2827.37
438.21	2951.42
438.40	2860.13
438.58	2942.05
438.77	2876.52
438.96	2984.18
439.14	2995.89
439.33	2883.54
439.52	3030.99
439.70	2883.54
439.89	2960.78
440.08	3225.26
440.26	2991.20
440.45	3056.74
440.63	3148.02
440.82	3159.72
441.01	3164.40
441.19	3171.43
441.38	3361.01
441.57	3236.96
441.75	3332.92
441.94	3382.07
442.12	3276.75
442.31	3440.59
442.50	3358.67
442.68	3276.75
442.87	3269.73
443.05	3358.67
443.24	3468.67
443.43	3456.97
443.61	3513.14
443.80	3515.48
443.98	3344.63
444.17	3300.16
444.35	3358.67
444.54	3478.04
444.73	3543.57
444.91	3449.95
445.10	3501.44
445.28	3473.36
445.47	3445.27
445.65	3538.89
445.84	3391.44
446.02	3562.30
446.21	3501.44
446.39	3574.00
446.58	3653.58
446.77	3552.93
446.95	3475.70
447.14	3641.87
447.32	3590.38
447.51	3604.42
447.69	3606.77
447.88	3613.79
448.06	3655.92
448.25	3461.65
448.43	3552.93
448.62	3541.23
448.80	3618.47
448.99	3611.45
449.17	3665.28
449.36	3655.92
449.54	3908.69
449.73	3763.58
449.91	3918.06
450.10	3707.41
450.28	3772.94
450.46	3742.52
450.65	3775.28
450.83	3873.59
451.02	3765.92
451.20	3885.29
451.39	3847.84
451.57	3801.03
451.76	3840.82
451.94	3847.84
452.13	3775.28
452.31	3878.27
452.49	3714.43
452.68	3852.52
452.86	3922.74
453.05	4030.40
453.23	3960.19
453.42	3894.65
453.60	3882.95
453.78	4044.45
453.97	4021.04
454.15	4002.32
454.34	3911.04
454.52	4135.73
454.70	4084.23
454.89	4018.70
455.07	4030.40
455.26	4081.89
455.44	4196.58
455.62	4212.96
455.81	4100.62
455.99	4271.48
456.17	4269.14
456.36	4215.30
456.54	4355.74
456.73	4243.39
456.91	4250.41
457.09	4425.95
457.28	4428.29
457.46	4325.31
457.64	4414.25
457.83	4283.18
458.01	4283.18
458.19	4409.57
458.38	4198.92
458.56	4545.32
458.74	4524.26
458.93	4493.83
459.11	4528.94
459.29	4442.34
459.48	4608.51
459.66	4458.72
459.84	4601.49
460.03	4695.11
460.21	4652.98
460.39	4734.90
460.57	4622.56
460.76	4685.75
460.94	4774.69
461.12	4681.07
461.31	4723.20
461.49	4669.37
461.67	4636.60
461.85	4807.46
462.04	4875.34
462.22	5144.50
462.40	4814.48
462.59	4887.04
462.77	4887.04
462.95	4851.93
463.13	4833.21
463.32	4816.82
463.50	4980.66
463.68	4887.04
463.86	4940.87
464.05	4851.93
464.23	5036.83
464.41	5093.01
464.59	4816.82
464.78	5078.96
464.96	4971.30
465.14	4854.27
465.32	5046.20
465.50	4978.32
465.69	5163.22
465.87	5078.96
466.05	5039.17
466.23	5046.20
466.41	5128.11
466.60	5301.31
466.78	5153.86
466.96	4992.36
467.14	4999.38
467.32	5088.32
467.51	5212.37
467.69	5123.43
467.87	5135.14
468.05	5298.97
468.23	5301.31
468.41	5242.80
468.60	5210.03
468.78	5390.25
468.96	5181.95
469.14	5418.34
469.32	5378.55
469.50	5350.46
469.69	5434.72
469.87	5558.77
470.05	5582.18
470.23	5495.58
470.41	5469.83
470.59	5678.14
470.77	5458.13
470.95	5577.50
471.14	5572.82
471.32	5453.45
471.50	5701.54
471.68	5593.88
471.86	5771.76
472.04	5834.96
472.22	5823.25
472.40	5701.54
472.58	5795.17
472.77	5771.76
472.95	5912.19
473.13	6045.60
473.31	5930.92
473.49	5959.00
473.67	5785.80
473.85	5994.11
474.03	6087.73
474.21	6181.35
474.39	6284.34
474.57	6050.28
474.75	6186.04
474.93	6321.79
475.12	6282.00
475.30	6284.34
475.48	6380.30
475.66	6338.17
475.84	6403.71
476.02	6576.91
476.20	6246.89
476.38	6429.45
476.56	6841.39
476.74	6630.74
476.92	6693.93
477.10	6782.87
477.28	6752.45
477.46	6691.59
477.64	6895.22
477.82	6775.85
478.00	7148.00
478.18	7082.46
478.36	7171.40
478.54	7157.36
478.72	7353.96
478.90	7295.45
479.08	7250.98
479.26	7405.46
479.44	7442.90
479.62	7442.90
479.80	7524.82
479.98	7506.10
480.16	7674.62
480.34	7576.31
480.52	7796.32
480.70	7735.47
480.88	7637.17
481.06	7875.90
481.24	7943.78
481.41	8032.72
481.59	7911.01
481.77	8264.43
481.95	8138.04
482.13	8194.22
482.31	8191.88
482.49	8297.20
482.67	8395.50
482.85	8542.96
483.03	8664.66
483.21	8781.69
483.39	8575.72
483.57	8739.56
483.74	8936.17
483.92	8910.42
484.10	8851.91
484.28	9067.24
484.46	9195.96
484.64	9322.35
484.82	9298.95
485.00	9322.35
485.18	9603.22
485.35	9607.90
485.53	9568.11
485.71	9427.68
485.89	9851.31
486.07	9717.90
486.25	9788.12
486.43	9647.69
486.61	9853.66
486.78	10071.33
486.96	10040.90
487.14	10155.58
487.32	10071.33
487.50	10338.15
487.68	10445.81
487.85	10525.39
488.03	10640.08
488.21	10705.61
488.39	10588.58
488.57	10843.70
488.75	10965.41
488.92	11080.10
489.10	11159.67
489.28	11234.57
489.46	11236.91
489.64	11405.43
489.81	11496.71
489.99	11335.21
490.17	11515.44
490.35	11695.66
490.53	11669.91
490.70	11936.73
490.88	11545.86
491.06	11887.58
491.24	11978.86
491.41	11995.25
491.59	11946.09
491.77	12353.35
491.95	12250.36
492.13	12484.42
492.30	12322.92
492.48	12498.46
492.66	12329.94
492.84	12531.23
493.01	12699.75
493.19	12978.27
493.37	12973.59
493.54	12922.10
493.72	12826.14
493.90	13128.06
494.08	13296.58
494.25	13348.08
494.43	13193.60
494.61	13558.72
494.79	13507.23
494.96	13521.27
495.14	13516.59
495.32	13862.99
495.49	13900.44
495.67	13767.03
495.85	14097.05
496.02	13940.23
496.20	14068.96
496.38	13898.10
496.55	14427.06
496.73	14675.16
496.91	14546.43
497.09	14429.40
497.26	14686.86
497.44	14501.96
497.62	14810.91
497.79	14944.32
497.97	14871.76
498.14	14906.87
498.32	15171.35
498.50	15330.51
498.67	15124.54
498.85	15302.42
499.03	15154.97
499.20	15229.87
499.38	15227.53
499.56	15400.72
499.73	15384.34
499.91	15382.00
500.08	15960.11
500.26	15548.18
500.44	15454.56
500.61	15857.13
500.79	15662.86
500.97	16060.76
501.14	16262.04
501.32	15999.90
501.49	15892.24
501.67	15925.00
501.84	16133.31
502.02	16402.47
502.20	16285.45
502.37	16634.19
502.55	16365.03
502.72	16428.22
502.90	16549.93
503.07	16442.26
503.25	16950.16
503.43	16657.59
503.60	16732.49
503.78	16950.16
503.95	16835.47
504.13	17228.68
504.30	17390.18
504.48	16795.68
504.65	17076.55
504.83	17343.37
505.01	17596.15
505.18	17326.99
505.36	17652.32
505.53	17406.56
505.71	17359.75
505.88	17451.03
506.06	17029.74
506.23	17638.28
506.41	17855.95
506.58	17593.81
506.76	17551.68
506.93	17652.32
507.11	17827.86
507.28	18176.60
507.46	17792.75
507.63	17816.16
507.81	17907.44
507.98	18251.50
508.16	18307.67
508.33	18202.35
508.50	18043.19
508.68	18054.89
508.85	18553.43
509.03	18235.11
509.20	18466.83
509.38	18527.68
509.55	18778.12
509.73	18759.39
509.90	18562.79
510.08	18780.46
510.25	18892.80
510.42	18970.04
510.60	19021.53
510.77	18974.72
510.95	19058.98
511.12	19005.15
511.30	18963.02
511.47	19243.88
511.64	19435.81
511.82	19541.13
511.99	19337.51
512.17	19632.41
512.34	19367.93
512.51	19644.12
512.69	19585.60
512.86	19896.89
513.04	19693.27
513.21	19805.61
513.38	19681.56
513.56	19646.46
513.73	19857.10
513.90	19758.80
514.08	19740.08
514.25	20226.91
514.43	20187.12
514.60	20381.38
514.77	20259.68
514.95	20362.66
515.12	20233.93
515.29	20116.90
515.47	20599.05
515.64	20879.92
515.81	20243.29
515.99	20671.61
516.16	20634.16
516.33	20521.82
516.51	20922.05
516.68	20519.48
516.85	20652.89
517.03	20964.18
517.20	20725.44
517.37	20704.38
517.54	20786.30
517.72	20842.47
517.89	21001.63
518.06	20980.56
518.24	21240.36
518.41	21039.08
518.58	21235.68
518.75	21144.40
518.93	21546.97
519.10	21275.47
519.27	21310.58
519.45	21523.57
519.62	21291.85
519.79	21507.18
519.96	21521.23
520.14	21790.39
520.31	21607.83
520.48	21631.23
520.65	21621.87
520.83	21781.03
521.00	21827.84
521.17	21986.99
521.34	22050.19
521.52	22047.85
521.69	22087.64
521.86	22122.74
522.03	22537.02
522.20	22274.88
522.38	22265.52
522.55	22253.81
522.72	22185.94
522.89	22286.58
523.07	22632.98
523.24	22349.78
523.41	22618.94
523.58	22469.14
523.75	22955.97
523.92	22604.89
524.10	22913.84
524.27	22733.62
524.44	22675.11
524.61	22852.99
524.78	23051.94
524.96	22817.88
525.13	22948.95
525.30	23080.02
525.47	22810.86
525.64	23049.60
525.81	23124.49
525.98	22930.23
526.16	23014.49
526.33	23489.62
526.50	23606.64
526.67	23012.15
526.84	22988.74
527.01	23180.67
527.18	23300.03
527.36	23576.22
527.53	23740.05
527.70	23826.65
527.87	23604.30
528.04	23449.83
528.21	23988.15
528.38	23496.64
528.55	23594.94
528.72	23716.65
528.89	23791.55
529.07	23953.04
529.24	23793.89
529.41	24049.00
529.58	24065.39
529.75	23796.23
529.92	23924.96
530.09	23878.15
530.26	24093.47
530.43	24259.65
530.60	24297.10
530.77	24250.29
530.94	24357.96
531.11	24016.24
531.28	23992.83
531.46	24313.48
531.63	24259.65
531.80	24285.40
531.97	24610.73
532.14	24896.28
532.31	24325.19
532.48	24655.20
532.65	24582.65
532.82	24463.28
532.99	24713.72
533.16	24659.88
533.33	24631.80
533.50	24755.85
533.67	24678.61
533.84	24779.25
534.01	24666.91
534.18	24971.18
534.35	24943.09
534.52	25046.07
534.69	25135.01
534.86	25399.49
535.03	24978.20
535.20	25682.70
535.37	25343.32
535.54	25427.58
535.71	25174.80
535.88	25027.35
536.05	25191.19
536.22	25350.34
536.38	25413.54
536.55	25596.10
536.72	25373.75
536.89	25509.50
537.06	25563.33
537.23	25560.99
537.40	25638.23
537.57	25710.78
537.74	25645.25
537.91	25876.96
538.08	25881.64
538.25	25942.50
538.42	25813.77
538.59	25900.37
538.75	25912.07
538.92	25883.98
539.09	26087.61
539.26	26209.32
539.43	26249.11
539.60	26005.69
539.77	26066.55
539.94	26045.48
540.11	26246.77
540.28	26047.82
540.44	26148.46
540.61	25902.71
540.78	25970.58
540.95	26501.89
541.12	26249.11
541.29	26480.82
541.46	26307.62
541.62	26197.62
541.79	25979.95
541.96	25757.60
542.13	26209.32
542.30	26546.36
542.47	26359.11
542.63	26604.87
542.80	26918.50
542.97	27028.51
543.14	26895.10
543.31	27012.12
543.48	27105.74
543.64	26740.62
543.81	27508.32
543.98	27384.27
544.15	27056.59
544.32	27047.23
544.48	27295.33
544.65	27178.30
544.82	27384.27
544.99	26871.69
545.16	26953.61
545.32	26951.27
545.49	27374.91
545.66	27597.26
545.83	27756.41
546.00	27501.29
546.16	27271.92
546.33	27150.21
546.50	27154.90
546.67	27225.11
546.83	27194.68
547.00	27321.07
547.17	27412.35
547.34	27337.46
547.50	27534.06
547.67	27812.59
547.84	27679.18
548.00	27143.19
548.17	27910.89
548.34	27962.38
548.51	27864.08
548.67	27992.81
548.84	28135.58
549.01	27548.11
549.18	27721.30
549.34	27580.87
549.51	27648.75
549.68	27557.47
549.84	27981.10
550.01	27889.82
550.18	28240.90
550.34	27828.97
550.51	28229.20
550.68	28343.89
550.84	27950.68
551.01	28444.53
551.18	28219.84
551.34	28020.89
551.51	28444.53
551.68	28163.67
551.84	28655.18
552.01	28133.24
552.18	28545.17
552.34	27938.97
552.51	28414.10
552.68	28563.90
552.84	28215.16
553.01	28648.16
553.18	28306.44
553.34	28840.08
553.51	28503.04
553.67	28666.88
553.84	28526.45
554.01	28847.10
554.17	28421.13
554.34	28694.97
554.51	28570.92
554.67	28683.27
554.84	28503.04
555.00	28510.07
555.17	28833.06
555.33	28781.57
555.50	28819.02
555.67	28842.42
555.83	28498.36
556.00	28779.23
556.16	29226.27
556.33	28730.08
556.50	28879.87
556.66	28996.90
556.83	28533.47
556.99	29460.32
557.16	29081.16
557.32	29209.89
557.49	29207.55
557.65	29130.31
557.82	29160.73
557.98	29034.35
558.15	29106.90
558.32	29385.43
558.48	29472.03
558.65	29436.92
558.81	28879.87
558.98	29336.27
559.14	28966.47
559.31	29399.47
559.47	29474.37
559.64	29472.03
559.80	29298.83
559.97	29462.66
560.13	29347.98
560.30	29418.19
560.46	29408.83
560.63	29350.32
560.79	29106.90
560.96	29462.66
561.12	29401.81
561.29	29343.30
561.45	29312.87
561.61	29500.11
561.78	29654.59
561.94	29748.21
562.11	29858.21
562.27	29589.05
562.44	29764.59
562.60	29490.75
562.77	29544.58
562.93	29514.16
563.10	29830.13
563.26	29811.40
563.42	29759.91
563.59	29556.28
563.75	29699.06
563.92	29813.74
564.08	29443.94
564.24	29481.39
564.41	29252.02
564.57	29921.41
564.74	29703.74
564.90	29743.53
565.07	29928.43
565.23	29928.43
565.39	30132.06
565.56	29975.24
565.72	29830.13
565.88	30192.91
566.05	29633.52
566.21	29500.11
566.38	29832.47
566.54	30160.14
566.70	29961.20
566.87	30080.56
567.03	29989.28
567.19	30244.40
567.36	30260.79
567.52	29825.45
567.68	30204.61
567.85	29546.92
568.01	30017.37
568.17	29954.18
568.34	30078.22
568.50	29858.21
568.66	29766.93
568.83	30064.18
568.99	30279.51
569.15	30010.35
569.32	29944.81
569.48	29685.01
569.64	30068.86
569.81	29986.94
569.97	30321.64
570.13	30321.64
570.30	30040.78
570.46	30721.87
570.62	30204.61
570.78	30036.09
570.95	29551.60
571.11	30412.92
571.27	30253.76
571.43	29867.58
571.60	30483.14
571.76	30352.07
571.92	30476.12
572.09	30384.83
572.25	30572.08
572.41	30305.26
572.57	30244.40
572.74	30279.51
572.90	30279.51
573.06	30228.02
573.22	30368.45
573.38	30305.26
573.55	30052.48
573.71	30431.65
573.87	30389.52
574.03	30452.71
574.20	30291.21
574.36	30235.04
574.52	30661.02
574.68	30548.67
574.84	30349.73
575.01	30312.28
575.17	30497.18
575.33	30567.40
575.49	30511.22
575.65	30485.48
575.82	30408.24
575.98	30302.92
576.14	30562.72
576.30	30714.85
576.46	30504.20
576.62	30019.71
576.79	30565.06
576.95	30361.43
577.11	30155.46
577.27	30651.66
577.43	30939.54
577.59	30756.98
577.75	30438.67
577.92	30302.92
578.08	30099.29
578.24	30150.78
578.40	30773.36
578.56	30314.62
578.72	30539.31
578.88	30789.75
579.04	30630.59
579.21	30504.20
579.37	30831.88
579.53	30796.77
579.69	30448.03
579.85	30197.59
580.01	30492.50
580.17	30433.99
580.33	30590.80
580.49	30520.59
580.65	30597.82
580.82	30494.84
580.98	30794.43
581.14	29998.65
581.30	30829.54
581.46	30401.22
581.62	30806.13
581.78	30356.75
581.94	30558.03
582.10	30850.60
582.26	30609.53
582.42	31044.87
582.58	30923.16
582.74	30546.33
582.90	30684.42
583.06	30773.36
583.22	30628.25
583.38	30375.47
583.54	30361.43
583.70	30504.20
583.86	30855.28
584.02	30717.19
584.18	31150.19
584.34	30569.74
584.50	30691.44
584.66	30536.97
584.82	30654.00
584.98	30558.03
585.14	30529.95
585.30	30302.92
585.46	30473.78
585.62	30443.35
585.78	30457.39
585.94	30476.12
586.10	30698.47
586.26	30735.92
586.42	31023.80
586.58	30918.48
586.74	30455.05
586.90	30497.18
587.06	30328.66
587.22	30424.62
587.38	30356.75
587.54	30843.58
587.70	30946.56
587.86	30930.18
588.02	30981.67
588.18	31058.91
588.34	31033.16
588.49	30815.49
588.65	30890.39
588.81	30976.99
588.97	30934.86
589.13	30749.96
589.29	30965.29
589.45	30897.41
589.61	31285.94
589.77	31206.36
589.93	30771.02
590.08	30452.71
590.24	31091.68
590.40	30984.01
590.56	31232.11
590.72	31065.93
590.88	30705.49
591.04	30944.22
591.20	30958.27
591.35	31255.51
591.51	31005.08
591.67	31512.97
591.83	31489.57
591.99	31253.17
592.15	31035.50
592.31	31360.84
592.46	30878.69
592.62	30909.11
592.78	31262.54
592.94	31072.95
593.10	30651.66
593.26	31297.64
593.41	31199.34
593.57	31054.23
593.73	30899.75
593.89	31215.72
594.05	31040.18
594.20	31187.64
594.36	31377.22
594.52	31147.85
594.68	30822.51
594.84	30668.04
594.99	30946.56
595.15	31484.89
595.31	31484.89
595.47	31110.40
595.62	31438.08
595.78	31082.31
595.94	30728.89
596.10	31117.42
596.25	31325.73
596.41	31089.34
596.57	30960.61
596.73	31440.42
596.88	31028.48
597.04	31527.02
597.20	31283.60
597.36	31122.10
597.51	31339.77
597.67	31522.34
597.83	31386.58
597.99	31470.84
598.14	31335.09
598.30	31417.01
598.46	31044.87
598.61	30986.35
598.77	31351.48
598.93	31213.38
599.09	31337.43
599.24	31585.53
599.40	31365.52
599.56	31615.96
599.71	31292.96
599.87	31414.67
600.03	31417.01
600.18	30888.05
600.34	31033.16
600.50	31232.11
600.65	31264.88
600.81	31412.33
600.97	31409.99
601.12	31360.84
601.28	31400.63
601.44	31407.65
601.59	31241.47
601.75	31409.99
601.91	31349.14
602.06	31442.76
602.22	30939.54
602.37	31145.51
602.53	31524.68
602.69	31730.64
602.84	31283.60
603.00	31440.42
603.16	31515.31
603.31	31346.79
603.47	31339.77
603.62	30930.18
603.78	31311.69
603.94	31672.13
604.09	31070.61
604.25	31292.96
604.40	31276.58
604.56	31501.27
604.71	31299.98
604.87	31414.67
605.03	31424.03
605.18	31632.34
605.34	31374.88
605.49	31112.74
605.65	31414.67
605.80	31028.48
605.96	31051.89
606.12	30749.96
606.27	31124.44
606.43	31351.48
606.58	31374.88
606.74	31260.20
606.89	31515.31
607.05	31578.51
607.20	31342.11
607.36	30988.69
607.51	31136.15
607.67	30822.51
607.82	31051.89
607.98	31693.19
608.13	31159.55
608.29	31154.87
608.44	31185.30
608.60	31054.23
608.75	31386.58
608.91	31606.59
609.06	31068.27
609.22	30939.54
609.37	31136.15
609.53	31236.79
609.68	30740.60
609.84	30665.70
609.99	31143.17
610.15	30661.02
610.30	30876.35
610.46	30789.75
610.61	31274.24
610.76	30991.03
610.92	31236.79
611.07	31246.15
611.23	30848.26
611.38	31033.16
611.54	30639.95
611.69	30904.43
611.84	31000.40
612.00	30780.39
612.15	30822.51
612.31	31229.77
612.46	30717.19
612.62	30794.43
612.77	30834.22
612.92	30890.39
613.08	31110.40
613.23	31101.04
613.39	30656.34
613.54	30698.47
613.69	30600.16
613.85	30342.70
614.00	30497.18
614.15	30913.80
614.31	30923.16
614.46	31227.43
614.62	30909.11
614.77	30925.50
614.92	30712.51
615.08	30328.66
615.23	30801.45
615.38	30543.99
615.54	30412.92
615.69	30768.68
615.84	30469.09
616.00	30448.03
616.15	30558.03
616.30	30522.93
616.46	30714.85
616.61	30363.77
616.76	30639.95
616.92	30808.47
617.07	30658.68
617.22	30160.14
617.37	30843.58
617.53	30394.20
617.68	30412.92
617.83	30038.44
617.99	29834.81
618.14	30328.66
618.29	30525.27
618.45	30298.23
618.60	30342.70
618.75	30221.00
618.90	29933.11
619.06	30359.09
619.21	29542.24
619.36	30389.52
619.51	30120.35
619.67	30136.74
619.82	29832.47
619.97	30136.74
620.12	30118.01
620.28	30148.44
620.43	30078.22
620.58	30487.82
620.73	30118.01
620.89	30345.05
621.04	30319.30
621.19	30080.56
621.34	30101.63
621.49	29972.90
621.65	30120.35
621.80	29923.75
621.95	29750.55
622.10	29738.85
622.25	29694.38
622.41	29745.87
622.56	29940.13
622.71	29935.45
622.86	29628.84
623.01	29759.91
623.16	29603.10
623.32	29788.00
623.47	29989.28
623.62	29851.19
623.77	29928.43
623.92	30181.21
624.07	29738.85
624.23	29907.37
624.38	29696.72
624.53	29699.06
624.68	29612.46
624.83	29898.00
624.98	29586.71
625.13	29663.95
625.29	29797.36
625.44	29799.70
625.59	29558.63
625.74	29481.39
625.89	29605.44
626.04	29369.04
626.19	29411.17
626.34	29593.73
626.49	29212.23
626.65	29254.36
626.80	29404.15
626.95	29336.27
627.10	29570.33
627.25	29380.74
627.40	29125.63
627.55	29582.03
627.70	29146.69
627.85	28989.88
628.00	29032.00
628.15	29308.19
628.30	28650.50
628.45	28952.43
628.60	28931.36
628.76	29137.33
628.91	29296.49
629.06	29401.81
629.21	28701.99
629.36	29408.83
629.51	29003.92
629.66	28641.14
629.81	28872.85
629.96	28739.44
630.11	28776.89
630.26	28512.41
630.41	28704.33
630.56	28819.02
630.71	28907.96
630.86	29062.43
631.01	28779.23
631.16	29050.73
631.31	29055.41
631.46	28790.93
631.61	29046.05
631.76	29013.28
631.91	28718.37
632.06	28774.55
632.21	28620.07
632.36	28755.82
632.51	28231.54
632.66	28875.19
632.81	28549.85
632.96	28577.94
633.10	28423.47
633.25	28863.49
633.40	28772.21
633.55	28669.22
633.70	28470.28
633.85	28156.64
634.00	28219.84
634.15	28318.14
634.30	28334.53
634.45	28414.10
634.60	28510.07
634.75	28311.12
634.90	28496.02
635.05	28376.66
635.19	28355.59
635.34	28489.00
635.49	28615.39
635.64	28514.75
635.79	28500.70
635.94	28025.57
636.09	28716.03
636.24	27859.40
636.39	28226.86
636.53	28135.58
636.68	27992.81
636.83	28456.23
636.98	28470.28
637.13	28217.50
637.28	28435.17
637.43	28416.44
637.57	28247.93
637.72	28016.21
637.87	28163.67
638.02	27761.09
638.17	27894.50
638.32	27768.12
638.46	27985.79
638.61	28013.87
638.76	27590.24
638.91	28203.46
639.06	27807.90
639.20	28135.58
639.35	27707.26
639.50	28060.68
639.65	28074.73
639.80	28044.30
639.94	27962.38
640.09	27936.63
640.24	28240.90
640.39	27700.24
640.54	27623.00
640.68	27613.64
640.83	27786.84
640.98	27730.67
641.13	27143.19
641.27	27828.97
641.42	27388.95
641.57	27770.46
641.72	27812.59
641.86	27302.35
642.01	27028.51
642.16	27452.14
642.31	27721.30
642.45	27536.40
642.60	27328.10
642.75	27395.97
642.90	27445.12
643.04	27225.11
643.19	27513.00
643.34	27349.16
643.48	27543.42
643.63	27819.61
643.78	27192.34
643.93	27620.66
644.07	27520.02
644.22	27655.77
644.37	27412.35
644.51	27234.47
644.66	27239.15
644.81	27440.44
644.95	27096.38
645.10	27042.55
645.25	27173.62
645.39	27564.49
645.54	26979.36
645.69	27054.25
645.83	27367.88
645.98	27040.21
646.13	27480.23
646.27	27014.46
646.42	27232.13
646.57	27398.31
646.71	27295.33
646.86	27070.64
647.00	27012.12
647.15	26951.27
647.30	27014.46
647.44	27056.59
647.59	27054.25
647.74	26829.56
647.88	26927.86
648.03	27016.80
648.17	27211.07
648.32	26937.23
648.47	27103.40
648.61	26895.10
648.76	26705.51
648.90	27119.79
649.05	27190.00
649.20	27030.85
649.34	26895.10
649.49	26871.69
649.63	26211.66
649.78	26721.90
649.92	26532.31
650.07	27154.90
650.21	26492.52
650.36	26546.36
650.51	26459.76
650.65	26801.47
650.80	26799.13
650.94	26506.57
651.09	26424.65
651.23	26565.08
651.38	26766.37
651.52	26483.16
651.67	27058.93
651.81	26263.15
651.96	26534.65
652.10	26494.86
652.25	26405.92
652.39	26754.66
652.54	26347.41
652.68	26869.35
652.83	26384.86
652.97	26766.37
653.12	26452.73
653.26	26071.23
653.41	26256.13
653.55	26394.22
653.70	26064.21
653.84	26426.99
653.99	26258.47
654.13	26108.68
654.27	26424.65
654.42	26057.18
654.56	26333.37
654.71	26338.05
654.85	26073.57
655.00	26553.38
655.14	26335.71
655.29	26103.99
655.43	26155.49
655.57	26054.84
655.72	26099.31
655.86	25694.40
656.01	25717.81
656.15	26314.64
656.30	26155.49
656.44	25708.44
656.58	25715.47
656.73	25898.03
656.87	25986.97
657.01	25860.58
657.16	26103.99
657.30	25586.74
657.45	25839.51
657.59	25862.92
657.73	25731.85
657.88	25886.32
658.02	25521.20
658.16	25855.90
658.31	26059.52
658.45	25682.70
658.60	25247.36
658.74	25532.90
658.88	25369.07
659.03	25453.33
659.17	25568.01
659.31	25797.38
659.46	25537.59
659.60	25914.41
659.74	25055.43
659.89	25109.27
660.03	25312.89
660.17	25369.07
660.32	25317.57
660.46	25006.28
660.60	24982.88
660.74	25415.88
660.89	25223.95
661.03	25326.94
661.17	24940.75
661.32	25146.72
661.46	25340.98
661.60	25111.61
661.74	25137.35
661.89	25427.58
662.03	25223.95
662.17	24922.02
662.31	24538.18
662.46	24767.55
662.60	24645.84
662.74	24856.49
662.88	24854.15
663.03	24479.66
663.17	24837.76
663.31	24734.78
663.45	24360.30
663.60	24772.23
663.74	24533.50
663.88	24542.86
664.02	24507.75
664.17	24746.48
664.31	24240.93
664.45	24514.77
664.59	24407.11
664.73	24219.86
664.88	24435.19
665.02	24123.90
665.16	24208.16
665.30	23761.12
665.44	24229.23
665.59	23653.45
665.73	23826.65
665.87	23990.49
666.01	23948.36
666.15	24006.87
666.29	24280.72
666.44	23838.36
666.58	23718.99
666.72	24070.07
666.86	23805.59
667.00	24077.09
667.14	23864.10
667.28	23704.95
667.43	23770.48
667.57	23648.77
667.71	23555.15
667.85	23618.35
667.99	23704.95
668.13	23545.79
668.27	23403.02
668.41	23435.78
668.56	23321.10
668.70	23814.95
668.84	23452.17
668.98	23264.92
669.12	23765.80
669.26	23255.56
669.40	23314.08
669.54	23405.36
669.68	23281.31
669.82	23082.36
669.96	22974.70
670.10	22925.55
670.25	23168.96
670.39	23124.49
670.53	23190.03
670.67	22796.82
670.81	23225.14
670.95	23098.75
671.09	22916.19
671.23	22977.04
671.37	22890.44
671.51	22759.37
671.65	22724.26
671.79	22672.77
671.93	22874.06
672.07	22593.19
672.21	22560.42
672.35	22368.50
672.49	22511.27
672.63	22214.02
672.77	22534.68
672.91	22136.79
673.05	22380.20
673.19	22380.20
673.33	22094.66
673.47	22249.13
673.61	22295.94
673.75	22057.21
673.89	22345.09
674.03	21834.86
674.17	21940.18
674.31	21935.50
674.45	21813.79
674.59	21984.65
674.73	22089.98
674.87	21809.11
675.01	21682.72
675.15	21387.82
675.29	21661.66
675.43	21724.85
675.56	21752.94
675.70	21518.89
675.84	21429.94
675.98	20957.16
676.12	21682.72
676.26	21439.31
676.40	21345.69
676.54	21682.72
676.68	21191.21
676.82	20746.51
676.96	20898.64
677.10	21214.62
677.23	20790.98
677.37	20620.12
677.51	20793.32
677.65	20819.07
677.79	20280.74
677.93	20453.94
678.07	20238.61
678.21	20603.74
678.34	20262.02
678.48	20425.86
678.62	20247.97
678.76	20430.54
678.90	20135.63
679.04	20027.96
679.18	20329.89
679.31	19704.97
679.45	19620.71
679.59	19564.54
679.73	19597.31
679.87	19735.40
680.00	19651.14
680.14	19494.32
680.28	19449.85
680.42	19206.44
680.56	19803.27
680.70	19463.90
680.83	19442.83
680.97	19248.57
681.11	19543.47
681.25	19140.90
681.39	19248.57
681.52	19208.78
681.66	19143.24
681.80	19066.00
681.94	18937.27
682.07	18930.25
682.21	18822.59
682.35	18621.30
682.49	18480.87
682.62	18551.09
682.76	18504.28
682.90	18696.20
683.04	18490.23
683.17	18520.66
683.31	18307.67
683.45	18520.66
683.59	18429.38
683.72	18150.85
683.86	18422.36
684.00	18373.21
684.13	18209.37
684.27	17961.27
684.41	17823.18
684.55	17685.09
684.68	17635.94
684.82	17851.27
684.96	17589.13
685.09	17764.67
685.23	17287.20
685.37	17799.77
685.50	17703.81
685.64	17591.47
685.78	17722.54
685.91	17649.98
686.05	17380.82
686.19	17572.74
686.32	17572.74
686.46	16783.98
686.60	17006.33
686.73	17151.45
686.87	16791.00
687.01	16795.68
687.14	16854.20
687.28	16570.99
687.42	16889.31
687.55	16669.30
687.69	16659.93
687.82	16718.45
687.96	16706.74
688.10	16587.38
688.23	16486.73
688.37	16512.48
688.50	16486.73
688.64	16313.53
688.78	16327.58
688.91	15978.84
689.05	16142.67
689.18	15964.79
689.32	15623.08
689.46	16016.29
689.59	15807.98
689.73	15875.85
689.86	15896.92
690.00	15843.09
690.13	15723.72
690.27	15662.86
690.41	15887.56
690.54	15634.78
690.68	15421.79
690.81	15552.86
690.95	15522.43
691.08	15536.48
691.22	15477.96
691.35	15463.92
691.49	15194.76
691.62	15009.86
691.76	15136.24
691.89	15089.43
692.03	14878.79
692.16	14981.77
692.30	14897.51
692.43	14689.20
692.57	14647.07
692.70	14401.32
692.84	14380.25
692.97	14614.30
693.11	14675.16
693.24	14633.03
693.38	14413.02
693.51	14314.72
693.65	14604.94
693.78	14424.72
693.92	14185.99
694.05	14120.45
694.19	14127.47
694.32	14129.81
694.45	13834.91
694.59	13944.91
694.72	13689.79
694.86	13682.77
694.99	13362.12
695.13	13830.23
695.26	13720.22
695.39	13678.09
695.53	13727.24
695.66	13734.26
695.80	13413.61
695.93	13568.09
696.07	13605.53
696.20	13376.16
696.33	13259.13
696.47	13322.33
696.60	13509.57
696.73	13090.62
696.87	13099.98
697.00	12922.10
697.14	12933.80
697.27	12809.75
697.40	12587.40
697.54	12767.62
697.67	12503.14
697.80	12643.57
697.94	12549.95
698.07	12250.36
698.21	12526.55
698.34	12393.14
698.47	12526.55
698.61	12376.75
698.74	12313.56
698.87	12400.16
699.01	12009.29
699.14	12226.96
699.27	11962.48
699.40	12161.42
699.54	12128.66
699.67	11880.56
699.80	11882.90
699.94	11943.75
700.07	11796.30
700.20	11723.74
700.34	11658.21
700.47	11576.29
700.60	11665.23
700.73	11559.91
700.87	11592.67
701.00	11370.32
701.13	11384.37
701.26	11428.84
701.40	11440.54
701.53	11248.61
701.66	11290.74
701.79	11396.07
701.93	11152.65
702.06	10869.45
702.19	10977.11
702.32	10895.19
702.46	10724.33
702.59	10911.58
702.72	10649.44
702.85	10934.98
702.99	10700.93
703.12	10810.93
703.25	10548.79
703.38	10480.92
703.51	10675.18
703.65	10696.25
703.78	10377.94
703.91	10384.96
704.04	10520.71
704.17	10623.69
704.31	10583.90
704.44	10415.38
704.57	10415.38
704.70	10242.18
704.83	10178.99
704.96	10031.54
705.10	9930.89
705.23	10249.21
>>>>>End Processed Spectral Data<<<<<
