SpectraSuite Data File
++++++++++++++++++++++++++++++++++++
Date: Fri Oct 18 13:58:05 GMT-05:00 2013
User: bianchi
Dark Spectrum Present: No
Reference Spectrum Present: No
Number of Sampled Component Spectra: 1
Spectrometers: USB2+H05261
Integration Time (usec): 50000 (USB2+H05261)
Spectra Averaged: 1 (USB2+H05261)
Boxcar Smoothing: 0 (USB2+H05261)
Correct for Electrical Dark: No (USB2+H05261)
Strobe/Lamp Enabled: No (USB2+H05261)
Correct for Detector Non-linearity: No (USB2+H05261)
Correct for Stray Light: No (USB2+H05261)
Number of Pixels in Processed Spectrum: 2048
>>>>>Begin Processed Spectral Data<<<<<
365.73	0.00
365.92	0.00
366.12	0.00
366.32	0.00
366.52	0.00
366.72	0.00
366.91	0.00
367.11	0.00
367.31	0.00
367.51	0.00
367.70	0.00
367.90	0.00
368.10	0.00
368.30	0.00
368.49	0.00
368.69	0.00
368.89	0.00
369.09	0.00
369.28	0.00
369.48	0.00
369.68	0.00
369.87	0.00
370.07	0.00
370.27	0.00
370.47	28.09
370.66	142.77
370.86	142.77
371.06	173.20
371.25	250.44
371.45	56.17
371.65	173.20
371.84	124.05
372.04	189.58
372.24	177.88
372.44	124.05
372.63	196.60
372.83	159.16
373.03	208.31
373.22	210.65
373.42	170.86
373.62	126.39
373.81	220.01
374.01	210.65
374.21	297.25
374.40	128.73
374.60	187.24
374.79	248.10
374.99	287.89
375.19	205.97
375.38	273.84
375.58	224.69
375.78	299.59
375.97	224.69
376.17	306.61
376.37	238.73
376.56	383.85
376.76	215.33
376.95	231.71
377.15	301.93
377.35	327.68
377.54	273.84
377.74	311.29
377.93	337.04
378.13	322.99
378.33	292.57
378.52	177.88
378.72	229.37
378.91	304.27
379.11	283.20
379.31	304.27
379.50	245.76
379.70	362.78
379.89	294.91
380.09	346.40
380.28	330.02
380.48	304.27
380.68	332.36
380.87	330.02
381.07	271.50
381.26	322.99
381.46	360.44
381.65	367.46
381.85	290.23
382.04	285.55
382.24	341.72
382.43	280.86
382.63	411.93
382.83	339.38
383.02	341.72
383.22	381.51
383.41	353.42
383.61	393.21
383.80	383.85
384.00	390.87
384.19	353.42
384.39	404.91
384.58	304.27
384.78	407.25
384.97	390.87
385.17	341.72
385.36	461.09
385.56	355.76
385.75	393.21
385.95	362.78
386.14	409.59
386.34	365.12
386.53	400.23
386.72	407.25
386.92	425.98
387.11	447.04
387.31	437.68
387.50	444.70
387.70	395.55
387.89	447.04
388.09	580.45
388.28	456.40
388.48	458.74
388.67	442.36
388.86	451.72
389.06	470.45
389.25	454.06
389.45	463.43
389.64	449.38
389.84	447.04
390.03	547.69
390.22	425.98
390.42	440.02
390.61	519.60
390.81	519.60
391.00	573.43
391.19	543.00
391.39	470.45
391.58	390.87
391.78	437.68
391.97	564.07
392.16	552.37
392.36	547.69
392.55	540.66
392.75	561.73
392.94	493.85
393.13	540.66
393.33	528.96
393.52	629.60
393.71	475.13
393.91	594.50
394.10	498.53
394.29	594.50
394.49	627.26
394.68	599.18
394.88	587.47
395.07	624.92
395.26	566.41
395.46	664.71
395.65	653.01
395.84	774.72
396.04	662.37
396.23	669.39
396.42	606.20
396.62	627.26
396.81	634.29
397.00	704.50
397.19	664.71
397.39	767.70
397.58	704.50
397.77	657.69
397.97	690.46
398.16	755.99
398.35	823.87
398.55	800.46
398.74	690.46
398.93	781.74
399.12	781.74
399.32	730.25
399.51	711.52
399.70	716.20
399.90	727.91
400.09	819.19
400.28	840.25
400.47	730.25
400.67	842.59
400.86	781.74
401.05	760.67
401.24	765.36
401.44	835.57
401.63	765.36
401.82	861.32
402.01	828.55
402.21	861.32
402.40	931.53
402.59	840.25
402.78	788.76
402.97	863.66
403.17	851.96
403.36	802.80
403.55	755.99
403.74	882.38
403.93	798.12
404.13	961.96
404.32	896.43
404.51	983.02
404.70	884.72
404.89	1011.11
405.09	943.24
405.28	966.64
405.47	919.83
405.66	952.60
405.85	976.00
406.05	985.37
406.24	1006.43
406.43	1027.50
406.62	999.41
406.81	1064.94
407.00	1078.99
407.20	961.96
407.39	1097.71
407.58	976.00
407.77	1151.54
407.96	1174.95
408.15	1104.73
408.34	1121.12
408.54	1163.25
408.73	1188.99
408.92	1086.01
409.11	1118.78
409.30	1198.35
409.49	1139.84
409.68	1146.86
409.87	1203.04
410.07	1174.95
410.26	1235.80
410.45	1219.42
410.64	1132.82
410.83	1203.04
411.02	1329.42
411.21	1299.00
411.40	1313.04
411.59	1240.48
411.78	1224.10
411.98	1334.11
412.17	1327.08
412.36	1299.00
412.55	1397.30
412.74	1390.28
412.93	1327.08
413.12	1383.26
413.31	1416.02
413.50	1366.87
413.69	1460.49
413.88	1404.32
414.07	1483.90
414.26	1479.22
414.45	1629.01
414.64	1544.75
414.83	1521.35
415.02	1500.28
415.22	1530.71
415.41	1561.14
415.60	1586.88
415.79	1556.46
415.98	1610.29
416.17	1561.14
416.36	1708.59
416.55	1640.72
416.74	1666.46
416.93	1668.80
417.12	1692.21
417.31	1767.10
417.50	1666.46
417.69	1764.76
417.88	1724.97
418.07	1703.91
418.26	1755.40
418.45	1902.86
418.64	1783.49
418.83	1771.79
419.02	1816.26
419.21	1795.19
419.39	1865.41
419.58	1867.75
419.77	1891.15
419.96	1900.52
420.15	1987.11
420.34	1856.04
420.53	1886.47
420.72	1926.26
420.91	1923.92
421.10	2024.56
421.29	2092.44
421.48	1961.37
421.67	2005.84
421.86	2052.65
422.05	2045.63
422.24	1987.11
422.43	2010.52
422.61	2059.67
422.80	2022.22
422.99	2005.84
423.18	1998.82
423.37	2246.91
423.56	2043.29
423.75	1947.33
423.94	2073.71
424.13	1732.00
424.32	1982.43
424.50	2132.23
424.69	2120.53
424.88	2167.34
425.07	1989.46
425.26	2080.74
425.45	2073.71
425.64	2148.61
425.83	2050.31
426.01	2122.87
426.20	2157.97
426.39	2106.48
426.58	2031.58
426.77	2193.08
426.96	2052.65
427.15	2076.06
427.33	2230.53
427.52	2186.06
427.71	2200.10
427.90	2090.10
428.09	2174.36
428.28	2157.97
428.46	2340.54
428.65	2253.94
428.84	2282.02
429.03	2368.62
429.22	2125.21
429.40	2319.47
429.59	2244.57
429.78	2118.18
429.97	2153.29
430.16	2298.41
430.34	2328.83
430.53	2366.28
430.72	2389.69
430.91	2331.17
431.10	2422.45
431.28	2434.16
431.47	2455.22
431.66	2436.50
431.85	2420.11
432.03	2466.92
432.22	2553.52
432.41	2539.48
432.60	2478.63
432.79	2450.54
432.97	2581.61
433.16	2499.69
433.35	2415.43
433.54	2572.25
433.72	2511.39
433.91	2574.59
434.10	2635.44
434.28	2527.78
434.47	2647.15
434.66	2630.76
434.85	2619.06
435.03	2619.06
435.22	2731.41
435.41	2682.25
435.59	2754.81
435.78	2569.91
435.97	2745.45
436.16	2640.12
436.34	2729.06
436.53	2677.57
436.72	2836.73
436.90	2752.47
437.09	2768.85
437.28	2642.46
437.46	2796.94
437.65	2789.92
437.84	2757.15
438.02	2785.24
438.21	2909.29
438.40	2689.28
438.58	2963.12
438.77	3063.76
438.96	2979.50
439.14	2979.50
439.33	2998.23
439.52	3033.33
439.70	2981.84
439.89	3148.02
440.08	3199.51
440.26	3026.31
440.45	3056.74
440.63	3133.98
440.82	3283.77
441.01	3094.19
441.19	3206.53
441.38	3281.43
441.57	3337.60
441.75	3304.84
441.94	3337.60
442.12	3262.71
442.31	3445.27
442.50	3220.58
442.68	3391.44
442.87	3358.67
443.05	3391.44
443.24	3396.12
443.43	3339.94
443.61	3396.12
443.80	3585.70
443.98	3449.95
444.17	3222.92
444.35	3545.91
444.54	3440.59
444.73	3534.21
444.91	3442.93
445.10	3538.89
445.28	3531.87
445.47	3445.27
445.65	3597.40
445.84	3428.88
446.02	3452.29
446.21	3522.51
446.39	3529.53
446.58	3569.32
446.77	3592.72
446.95	3522.51
447.14	3492.08
447.32	3646.55
447.51	3405.48
447.69	3541.23
447.88	3625.49
448.06	3602.08
448.25	3435.91
448.43	3492.08
448.62	3562.30
448.80	3611.45
448.99	3543.57
449.17	3655.92
449.36	3463.99
449.54	3768.26
449.73	3747.20
449.91	3857.20
450.10	3840.82
450.28	3684.00
450.46	3831.46
450.65	3791.67
450.83	3927.42
451.02	3812.73
451.20	3920.40
451.39	3911.04
451.57	3843.16
451.76	3684.00
451.94	3784.65
452.13	3997.64
452.31	4051.47
452.49	3819.75
452.68	3875.93
452.86	3885.29
453.05	4009.34
453.23	3946.14
453.42	3901.67
453.60	3957.85
453.78	3906.35
453.97	4002.32
454.15	4028.06
454.34	3960.19
454.52	4049.13
454.70	4032.74
454.89	4201.26
455.07	4170.83
455.26	3997.64
455.44	4173.18
455.62	4154.45
455.81	4173.18
455.99	4107.64
456.17	4320.63
456.36	4217.65
456.54	4248.07
456.73	4372.12
456.91	4379.14
457.09	4379.14
457.28	4184.88
457.46	4217.65
457.64	4337.01
457.83	4411.91
458.01	4540.64
458.19	4468.08
458.38	4404.89
458.56	4500.85
458.74	4585.11
458.93	4514.89
459.11	4456.38
459.29	4540.64
459.48	4552.34
459.66	4622.56
459.84	4690.43
460.03	4781.71
460.21	4568.73
460.39	4596.81
460.57	4690.43
460.76	4676.39
460.94	4833.21
461.12	4629.58
461.31	4821.50
461.49	4676.39
461.67	4592.13
461.85	4964.28
462.04	4798.10
462.22	5071.94
462.40	4877.68
462.59	4910.44
462.77	4807.46
462.95	4873.00
463.13	4917.47
463.32	4858.95
463.50	4863.63
463.68	4805.12
463.86	4837.89
464.05	4770.01
464.23	5004.07
464.41	4971.30
464.59	4894.06
464.78	5097.69
464.96	4945.55
465.14	4929.17
465.32	5130.45
465.50	5261.52
465.69	5081.30
465.87	5195.99
466.05	5011.09
466.23	5001.72
466.41	5149.18
466.60	5329.40
466.78	5132.79
466.96	5118.75
467.14	5029.81
467.32	5261.52
467.51	5416.00
467.69	5081.30
467.87	5357.49
468.05	5303.65
468.23	5254.50
468.41	5238.12
468.60	5275.57
468.78	5341.10
468.96	5369.19
469.14	5610.26
469.32	5439.40
469.50	5266.21
469.69	5348.12
469.87	5486.22
470.05	5486.22
470.23	5355.15
470.41	5394.93
470.59	5678.14
470.77	5533.03
470.95	5607.92
471.14	5645.37
471.32	5495.58
471.50	5631.33
471.68	5680.48
471.86	5717.93
472.04	5827.93
472.22	5799.85
472.40	5809.21
472.58	5792.83
472.77	5944.96
472.95	5926.24
473.13	5947.30
473.31	6022.20
473.49	5951.98
473.67	6008.16
473.85	6031.56
474.03	6026.88
474.21	6094.76
474.39	6195.40
474.57	6228.17
474.75	6434.13
474.93	6277.32
475.12	6277.32
475.30	6307.74
475.48	6333.49
475.66	6499.67
475.84	6319.45
476.02	6384.98
476.20	6469.24
476.38	6682.23
476.56	6635.42
476.74	6616.69
476.92	6707.98
477.10	6579.25
477.28	6853.09
477.46	6682.23
477.64	6927.99
477.82	7073.10
478.00	7140.97
478.18	7000.54
478.36	7183.10
478.54	7323.54
478.72	7370.35
478.90	7276.73
479.08	7417.16
479.26	7360.98
479.44	7466.31
479.62	7494.40
479.80	7501.42
479.98	7508.44
480.16	7868.88
480.34	7531.84
480.52	7721.43
480.70	7683.98
480.88	7817.39
481.06	8006.97
481.24	8016.33
481.41	8077.19
481.59	8037.40
481.77	8194.22
481.95	8140.38
482.13	8486.78
482.31	8505.51
482.49	8489.12
482.67	8318.26
482.85	8372.10
483.03	8580.40
483.21	8809.78
483.39	8711.47
483.57	8758.28
483.74	8968.93
483.92	8987.66
484.10	8805.10
484.28	9057.87
484.46	9277.88
484.64	9228.73
484.82	9163.20
485.00	9357.46
485.18	9495.55
485.35	9689.82
485.53	9554.07
485.71	9767.06
485.89	9874.72
486.07	9706.20
486.25	9853.66
486.43	9792.80
486.61	10015.15
486.78	10225.80
486.96	9975.36
487.14	10354.53
487.32	10354.53
487.50	10431.77
487.68	10296.02
487.85	10249.21
488.03	10787.53
488.21	10686.89
488.39	10754.76
488.57	10953.71
488.75	10829.66
488.92	11082.44
489.10	11117.54
489.28	11253.30
489.46	11269.68
489.64	11393.73
489.81	11309.47
489.99	11524.80
490.17	11566.93
490.35	11566.93
490.53	11960.14
490.70	11758.85
490.88	12189.51
491.06	12091.21
491.24	11742.47
491.41	11992.90
491.59	12072.48
491.77	12156.74
491.95	12456.33
492.13	12699.75
492.30	12334.62
492.48	12489.10
492.66	12259.73
492.84	12802.73
493.01	12821.45
493.19	12781.67
493.37	12978.27
493.54	13046.15
493.72	13069.55
493.90	13158.49
494.08	13247.43
494.25	13329.35
494.43	13511.91
494.61	13472.12
494.79	13579.79
494.96	13696.82
495.14	13860.65
495.32	13987.04
495.49	13879.38
495.67	13951.93
495.85	13865.33
496.02	14265.57
496.20	14134.50
496.38	14420.04
496.55	14492.60
496.73	14441.11
496.91	14710.27
497.09	14736.01
497.26	14705.59
497.44	14614.30
497.62	14951.34
497.79	14827.29
497.97	14991.13
498.14	15365.62
498.32	15288.38
498.50	15442.85
498.67	15473.28
498.85	15302.42
499.03	15349.23
499.20	15267.31
499.38	15400.72
499.56	15737.76
499.73	15653.50
499.91	15733.08
500.08	16009.26
500.26	15779.89
500.44	15873.51
500.61	15735.42
500.79	16116.93
500.97	16016.29
501.14	16196.51
501.32	16077.14
501.49	16154.38
501.67	16203.53
501.84	16070.12
502.02	16425.88
502.20	16643.55
502.37	16554.61
502.55	16435.24
502.72	16460.99
502.90	16526.52
503.07	16603.76
503.25	16753.55
503.43	16648.23
503.60	17097.61
503.78	16816.75
503.95	16961.86
504.13	16938.46
504.30	17336.35
504.48	17081.23
504.65	17275.49
504.83	17097.61
505.01	17390.18
505.18	17291.88
505.36	17444.01
505.53	17263.79
505.71	17593.81
505.88	17490.82
506.06	17460.40
506.23	17816.16
506.41	17685.09
506.58	18075.96
506.76	17909.78
506.93	17844.24
507.11	17935.53
507.28	17848.93
507.46	17867.65
507.63	18263.20
507.81	18314.69
507.98	18082.98
508.16	18347.46
508.33	18384.91
508.50	18256.18
508.68	18223.41
508.85	18534.70
509.03	18410.65
509.20	18569.81
509.38	18740.67
509.55	18916.21
509.73	18808.54
509.90	18785.14
510.08	18733.65
510.25	18216.39
510.42	19278.99
510.60	19009.83
510.77	19274.31
510.95	19318.78
511.12	18792.16
511.30	18780.46
511.47	19300.06
511.64	19295.38
511.82	19433.47
511.99	19566.88
512.17	19784.55
512.34	19641.78
512.51	19491.98
512.69	19978.81
512.86	19763.48
513.04	19875.83
513.21	19829.02
513.38	19833.70
513.56	19899.23
513.73	19711.99
513.90	19997.54
514.08	20016.26
514.25	20077.12
514.43	20425.86
514.60	20318.19
514.77	20262.02
514.95	20465.64
515.12	20264.36
515.29	20472.67
515.47	20411.81
515.64	20475.01
515.81	20446.92
515.99	20589.69
516.16	20931.41
516.33	20788.64
516.51	20844.81
516.68	20664.59
516.85	20669.27
517.03	20688.00
517.20	20746.51
517.37	21057.80
517.54	20982.90
517.72	20879.92
517.89	21268.45
518.06	21132.70
518.24	21174.83
518.41	21228.66
518.58	21163.12
518.75	21081.21
518.93	21446.33
519.10	21446.33
519.27	21673.36
519.45	21469.73
519.62	21692.08
519.79	21338.66
519.96	21928.48
520.14	21759.96
520.31	21757.62
520.48	22043.17
520.65	21956.57
520.83	21956.57
521.00	22263.18
521.17	21771.66
521.34	21958.91
521.52	22125.08
521.69	21944.86
521.86	22001.04
522.03	22441.06
522.20	22242.11
522.38	22185.94
522.55	22333.39
522.72	22326.37
522.89	22335.73
523.07	22771.07
523.24	22883.42
523.41	22602.55
523.58	22672.77
523.75	22611.92
523.92	22548.72
524.10	22569.79
524.27	22869.37
524.44	23014.49
524.61	22775.75
524.78	22995.76
524.96	23211.09
525.13	23005.13
525.30	22951.29
525.47	23246.20
525.64	23222.80
525.81	23501.32
525.98	23405.36
526.16	23243.86
526.33	23297.69
526.50	23728.35
526.67	23496.64
526.84	23367.91
527.01	23241.52
527.18	23335.14
527.36	23653.45
527.53	23318.76
527.70	24084.11
527.87	23751.76
528.04	23510.68
528.21	23798.57
528.38	23716.65
528.55	23793.89
528.72	23655.79
528.89	23997.51
529.07	23992.83
529.24	24006.87
529.41	24060.71
529.58	23843.04
529.75	24390.72
529.92	23896.87
530.09	24084.11
530.26	24421.15
530.43	24542.86
530.60	24442.21
530.77	24395.40
530.94	24353.27
531.11	24489.03
531.28	24271.36
531.46	24503.07
531.63	24336.89
531.80	24439.87
531.97	24418.81
532.14	24318.17
532.31	24404.77
532.48	24863.51
532.65	24540.52
532.82	24552.22
532.99	24489.03
533.16	24538.18
533.33	25296.51
533.50	25083.52
533.67	24900.96
533.84	24783.93
534.01	25095.22
534.18	24919.68
534.35	24961.81
534.52	25034.37
534.69	25142.03
534.86	25310.55
535.03	25109.27
535.20	25338.64
535.37	25160.76
535.54	25317.57
535.71	25287.15
535.88	25528.22
536.05	25184.16
536.22	25790.36
536.38	25565.67
536.55	25600.78
536.72	26059.52
536.89	25544.61
537.06	25685.04
537.23	25551.63
537.40	25486.09
537.57	25762.28
537.74	25600.78
537.91	25858.24
538.08	25944.84
538.25	25769.30
538.42	25944.84
538.59	26167.19
538.75	25577.37
538.92	25900.37
539.09	26155.49
539.26	26441.03
539.43	26206.98
539.60	26012.71
539.77	26148.46
539.94	26412.95
540.11	26031.44
540.28	26031.44
540.44	26204.64
540.61	26260.81
540.78	25998.67
540.95	26288.90
541.12	26272.51
541.29	26604.87
541.46	26188.25
541.62	26347.41
541.79	26529.97
541.96	26352.09
542.13	26670.40
542.30	26197.62
542.47	27030.85
542.63	26642.32
542.80	26724.24
542.97	26754.66
543.14	27044.89
543.31	26724.24
543.48	26951.27
543.64	26885.73
543.81	27124.47
543.98	27370.22
544.15	27246.18
544.32	27087.02
544.48	27754.07
544.65	27351.50
544.82	27049.57
544.99	27225.11
545.16	27300.01
545.32	27173.62
545.49	27562.15
545.66	27742.37
545.83	27442.78
546.00	27590.24
546.16	27206.39
546.33	27391.29
546.50	27260.22
546.67	27417.04
546.83	27267.24
547.00	27868.76
547.17	27440.44
547.34	27779.82
547.50	27779.82
547.67	27974.08
547.84	27775.14
548.00	27812.59
548.17	28046.64
548.34	27620.66
548.51	27690.88
548.67	28063.02
548.84	28116.86
549.01	28039.62
549.18	28004.51
549.34	27882.80
549.51	28034.94
549.68	27810.25
549.84	27772.80
550.01	27934.29
550.18	27805.56
550.34	27730.67
550.51	28327.50
550.68	27981.10
550.84	28067.70
551.01	28402.40
551.18	28224.52
551.34	27744.71
551.51	28191.75
551.68	28245.58
551.84	28533.47
552.01	28453.89
552.18	28306.44
552.34	28311.12
552.51	28596.67
552.68	28020.89
552.84	28489.00
553.01	28524.11
553.18	28484.32
553.34	28615.39
553.51	28741.78
553.67	28886.89
553.84	28503.04
554.01	28898.59
554.17	28800.29
554.34	28603.69
554.51	28404.74
554.67	28835.40
554.84	28657.52
555.00	28987.53
555.17	28737.10
555.33	28903.28
555.50	28943.06
555.67	28634.11
555.83	28709.01
556.00	28854.12
556.16	29352.66
556.33	28690.29
556.50	28804.97
556.66	29127.97
556.83	29071.79
556.99	29111.58
557.16	29413.51
557.32	29235.63
557.49	29457.98
557.65	29104.56
557.82	29085.84
557.98	29032.00
558.15	29076.48
558.32	29118.60
558.48	29633.52
558.65	29631.18
558.81	29799.70
558.98	29462.66
559.14	29493.09
559.31	29509.47
559.47	29160.73
559.64	29411.17
559.80	29244.99
559.97	29956.52
560.13	29324.57
560.30	29345.64
560.46	29497.77
560.63	29635.86
560.79	29565.65
560.96	29649.91
561.12	29649.91
561.29	29603.10
561.45	29610.12
561.61	29741.19
561.78	29834.81
561.94	29523.52
562.11	29699.06
562.27	29757.57
562.44	29968.22
562.60	29703.74
562.77	29378.40
562.93	29759.91
563.10	29851.19
563.26	29755.23
563.42	30003.33
563.59	30033.75
563.75	29701.40
563.92	29898.00
564.08	29582.03
564.24	29518.84
564.41	29642.88
564.57	30188.23
564.74	29516.50
564.90	30129.72
565.07	29944.81
565.23	30080.56
565.39	29883.96
565.56	29879.28
565.72	30003.33
565.88	29727.14
566.05	29575.01
566.21	29771.61
566.38	29914.39
566.54	29951.84
566.70	30150.78
566.87	30429.30
567.03	30176.53
567.19	30167.16
567.36	29975.24
567.52	30132.06
567.68	30150.78
567.85	30206.95
568.01	29930.77
568.17	30295.89
568.34	30457.39
568.50	30410.58
568.66	30108.65
568.83	29771.61
568.99	30171.85
569.15	30230.36
569.32	29947.15
569.48	30068.86
569.64	30567.40
569.81	30333.34
569.97	30160.14
570.13	30644.63
570.30	30197.59
570.46	30628.25
570.62	30237.38
570.78	30253.76
570.95	30558.03
571.11	30052.48
571.27	29972.90
571.43	30513.56
571.60	30551.01
571.76	30125.04
571.92	30515.90
572.09	30747.62
572.25	30546.33
572.41	30506.54
572.57	30410.58
572.74	30609.53
572.90	30485.48
573.06	30300.58
573.22	30181.21
573.38	30604.84
573.55	30665.70
573.71	30712.51
573.87	30588.46
574.03	30539.31
574.20	30953.58
574.36	30274.83
574.52	30731.23
574.68	30202.27
574.84	30611.87
575.01	30740.60
575.17	30382.49
575.33	30331.00
575.49	30270.15
575.65	30665.70
575.82	30698.47
575.98	30267.81
576.14	30663.36
576.30	30422.28
576.46	30543.99
576.62	31108.06
576.79	30717.19
576.95	30230.36
577.11	30771.02
577.27	30628.25
577.43	30677.40
577.59	30541.65
577.75	30810.81
577.92	30225.68
578.08	30405.90
578.24	30731.23
578.40	30747.62
578.56	30602.50
578.72	30670.38
578.88	31084.65
579.04	30911.46
579.21	30792.09
579.37	30756.98
579.53	30808.47
579.69	30129.72
579.85	30558.03
580.01	30604.84
580.17	30480.80
580.33	30859.96
580.49	30438.67
580.65	30906.77
580.82	30731.23
580.98	30752.30
581.14	30661.02
581.30	31042.53
581.46	30712.51
581.62	30483.14
581.78	30188.23
581.94	30948.90
582.10	30918.48
582.26	30932.52
582.42	30801.45
582.58	30913.80
582.74	30773.36
582.90	30841.24
583.06	31012.10
583.22	30925.50
583.38	30529.95
583.54	30705.49
583.70	30644.63
583.86	30649.32
584.02	30448.03
584.18	31087.00
584.34	30787.41
584.50	30548.67
584.66	30979.33
584.82	30668.04
584.98	31016.78
585.14	30658.68
585.30	30728.89
585.46	30965.29
585.62	30424.62
585.78	30756.98
585.94	30539.31
586.10	30862.30
586.26	30506.54
586.42	30890.39
586.58	31063.59
586.74	30464.41
586.90	30920.82
587.06	30363.77
587.22	30611.87
587.38	30937.20
587.54	30728.89
587.70	31204.02
587.86	30806.13
588.02	31084.65
588.18	31117.42
588.34	31049.55
588.49	30857.62
588.65	30661.02
588.81	30895.07
588.97	31019.12
589.13	30714.85
589.29	30829.54
589.45	31058.91
589.61	31129.12
589.77	31049.55
589.93	30827.20
590.08	31180.62
590.24	31124.44
590.40	31316.37
590.56	31105.72
590.72	31005.08
590.88	31201.68
591.04	30953.58
591.20	31112.74
591.35	31412.33
591.51	31267.22
591.67	31264.88
591.83	31339.77
591.99	31583.19
592.15	31192.32
592.31	31267.22
592.46	31283.60
592.62	31030.82
592.78	31164.23
592.94	31159.55
593.10	31236.79
593.26	31161.89
593.41	31346.79
593.57	31461.48
593.73	31292.96
593.89	30911.46
594.05	31452.12
594.20	30871.67
594.36	31307.01
594.52	30984.01
594.68	30855.28
594.84	30955.93
594.99	31648.72
595.15	31522.34
595.31	31840.65
595.47	31487.23
595.62	31417.01
595.78	31377.22
595.94	31302.32
596.10	31728.30
596.25	31311.69
596.41	31328.07
596.57	30988.69
596.73	31421.69
596.88	31201.68
597.04	31468.50
597.20	31571.49
597.36	31468.50
597.51	31534.04
597.67	31325.73
597.83	31218.07
597.99	31557.44
598.14	31386.58
598.30	31199.34
598.46	31220.41
598.61	31147.85
598.77	30881.03
598.93	31449.78
599.09	31686.17
599.24	31618.30
599.40	31672.13
599.56	31515.31
599.71	31381.90
599.87	31681.49
600.03	31498.93
600.18	31641.70
600.34	31297.64
600.50	31260.20
600.65	31571.49
600.81	31775.11
600.97	31536.38
601.12	31653.40
601.28	31431.05
601.44	31557.44
601.59	31517.65
601.75	31683.83
601.91	31641.70
602.06	31578.51
602.22	31215.72
602.37	31302.32
602.53	31461.48
602.69	31566.81
602.84	31377.22
603.00	31871.07
603.16	31541.06
603.31	31590.21
603.47	31718.94
603.62	31412.33
603.78	31543.40
603.94	30981.67
604.09	31250.83
604.25	31407.65
604.40	31342.11
604.56	31402.97
604.71	31498.93
604.87	31583.19
605.03	31529.36
605.18	31519.99
605.34	31557.44
605.49	31253.17
605.65	31463.82
605.80	31323.39
605.96	31580.85
606.12	31365.52
606.27	31695.53
606.43	31346.79
606.58	31260.20
606.74	31742.35
606.89	31519.99
607.05	31498.93
607.20	31480.21
607.36	31421.69
607.51	32236.20
607.67	30974.65
607.82	30881.03
607.98	31182.96
608.13	31185.30
608.29	31208.70
608.44	31119.76
608.60	31257.85
608.75	31627.66
608.91	31337.43
609.06	30988.69
609.22	31405.31
609.37	30548.67
609.53	31133.81
609.68	31131.47
609.84	31274.24
609.99	31346.79
610.15	31236.79
610.30	30518.25
610.46	30911.46
610.61	31206.36
610.76	31131.47
610.92	31435.74
611.07	31304.67
611.23	31318.71
611.38	31056.57
611.54	30731.23
611.69	30850.60
611.84	30562.72
612.00	30995.71
612.15	30525.27
612.31	31323.39
612.46	31269.56
612.62	31260.20
612.77	30796.77
612.92	30925.50
613.08	30820.17
613.23	31173.60
613.39	30661.02
613.54	30377.81
613.69	30976.99
613.85	30895.07
614.00	31255.51
614.15	30771.02
614.31	30593.14
614.46	31044.87
614.62	31260.20
614.77	30888.05
614.92	30984.01
615.08	30735.92
615.23	30946.56
615.38	30904.43
615.54	30536.97
615.69	30574.42
615.84	30696.13
616.00	30639.95
616.15	30632.93
616.30	30834.22
616.46	30169.51
616.61	30368.45
616.76	30932.52
616.92	30747.62
617.07	30654.00
617.22	30663.36
617.37	30356.75
617.53	30661.02
617.68	30366.11
617.83	30199.93
617.99	30305.26
618.14	30628.25
618.29	30560.37
618.45	30230.36
618.60	30403.56
618.75	30183.55
618.90	30333.34
619.06	30618.89
619.21	30094.61
619.36	30836.56
619.51	30270.15
619.67	29874.60
619.82	30335.68
619.97	30225.68
620.12	30361.43
620.28	29888.64
620.43	30230.36
620.58	30396.54
620.73	30394.20
620.89	30539.31
621.04	30541.65
621.19	30141.42
621.34	29998.65
621.49	30293.55
621.65	30029.07
621.80	30162.48
621.95	30204.61
622.10	30033.75
622.25	29853.53
622.41	30146.10
622.56	30036.09
622.71	30302.92
622.86	30230.36
623.01	30185.89
623.16	30010.35
623.32	29928.43
623.47	30363.77
623.62	29567.99
623.77	29886.30
623.92	30326.32
624.07	29558.63
624.23	29645.23
624.38	29673.31
624.53	29818.42
624.68	30106.31
624.83	30335.68
624.98	29811.40
625.13	29916.73
625.29	29898.00
625.44	29614.80
625.59	29783.32
625.74	29565.65
625.89	29387.77
626.04	29333.93
626.19	29560.97
626.34	29535.22
626.49	29565.65
626.65	29312.87
626.80	29614.80
626.95	29635.86
627.10	29586.71
627.25	29528.20
627.40	29450.96
627.55	29418.19
627.70	29209.89
627.85	29504.79
628.00	29294.14
628.15	28903.28
628.30	29235.63
628.45	29890.98
628.60	28882.21
628.76	29219.25
628.91	29247.33
629.06	29179.46
629.21	29242.65
629.36	29493.09
629.51	29083.50
629.66	29181.80
629.81	29184.14
629.96	28858.81
630.11	29319.89
630.26	29008.60
630.41	29046.05
630.56	28907.96
630.71	29001.58
630.86	29003.92
631.01	29132.65
631.16	29462.66
631.31	29261.38
631.46	28828.38
631.61	28858.81
631.76	29216.91
631.91	28870.51
632.06	28800.29
632.21	28814.34
632.36	28746.46
632.51	28376.66
632.66	29373.72
632.81	28929.02
632.96	28599.01
633.10	28914.98
633.25	28779.23
633.40	28584.96
633.55	29151.37
633.70	28713.69
633.85	28386.02
634.00	28584.96
634.15	28517.09
634.30	28683.27
634.45	28098.13
634.60	28706.67
634.75	28584.96
634.90	28727.74
635.05	28790.93
635.19	28662.20
635.34	28837.74
635.49	28720.71
635.64	28690.29
635.79	28704.33
635.94	28577.94
636.09	28498.36
636.24	28491.34
636.39	28395.38
636.53	28266.65
636.68	28350.91
636.83	28203.46
636.98	28634.11
637.13	28439.85
637.28	28481.98
637.43	28297.08
637.57	28112.17
637.72	28285.37
637.87	28011.53
638.02	28053.66
638.17	28250.27
638.32	28140.26
638.46	28229.20
638.61	27992.81
638.76	27894.50
638.91	28259.63
639.06	28353.25
639.20	27903.87
639.35	27964.72
639.50	27983.44
639.65	28353.25
639.80	28479.64
639.94	28081.75
640.09	28102.81
640.24	28020.89
640.39	28180.05
640.54	27817.27
640.68	27824.29
640.83	27922.59
640.98	27456.82
641.13	27938.97
641.27	27882.80
641.42	27887.48
641.57	27875.78
641.72	27803.22
641.86	27894.50
642.01	27580.87
642.16	27688.54
642.31	27634.71
642.45	27847.69
642.60	27672.15
642.75	27508.32
642.90	27417.04
643.04	27527.04
643.19	27236.81
643.34	27800.88
643.48	27604.28
643.63	27440.44
643.78	27723.65
643.93	27615.98
644.07	27417.04
644.22	27955.36
644.37	27615.98
644.51	27964.72
644.66	27585.55
644.81	27367.88
644.95	27262.56
645.10	27604.28
645.25	27393.63
645.39	27297.67
645.54	27300.01
645.69	27297.67
645.83	27065.96
645.98	27573.85
646.13	27515.34
646.27	27204.05
646.42	27300.01
646.57	27316.39
646.71	27152.55
646.86	27033.19
647.00	27250.86
647.15	27304.69
647.30	27211.07
647.44	26986.38
647.59	27276.60
647.74	26897.44
647.88	27325.75
648.03	27087.02
648.17	27271.92
648.32	27208.73
648.47	27295.33
648.61	27199.37
648.76	27484.91
648.90	26981.70
649.05	27154.90
649.20	27363.20
649.34	26780.41
649.49	26607.21
649.63	26536.99
649.78	26740.62
649.92	26705.51
650.07	26951.27
650.21	26773.39
650.36	27194.68
650.51	26810.84
650.65	26789.77
650.80	26764.03
650.94	26511.25
651.09	26658.70
651.23	26663.38
651.38	26562.74
651.52	26031.44
651.67	26312.30
651.81	26586.15
651.96	26424.65
652.10	26441.03
652.25	26745.30
652.39	26850.63
652.54	26768.71
652.68	26682.11
652.83	26710.19
652.97	26679.77
653.12	26693.81
653.26	26546.36
653.41	26621.25
653.55	26410.60
653.70	26206.98
653.84	26452.73
653.99	26583.80
654.13	26249.11
654.27	26595.51
654.42	26197.62
654.56	26270.17
654.71	26436.35
654.85	26415.29
655.00	26356.77
655.14	26211.66
655.29	26431.67
655.43	26450.39
655.57	26178.89
655.72	26539.33
655.86	26164.85
656.01	26150.81
656.15	26164.85
656.30	26340.39
656.44	25895.69
656.58	25865.26
656.73	25940.16
656.87	25956.54
657.01	26235.06
657.16	26061.87
657.30	26302.94
657.45	25982.29
657.59	26242.09
657.73	25759.94
657.88	26120.38
658.02	25895.69
658.16	25834.83
658.31	26106.34
658.45	25827.81
658.60	25411.20
658.74	25937.82
658.88	25659.29
659.03	25741.21
659.17	25483.75
659.31	25699.08
659.46	25455.67
659.60	25792.70
659.74	25406.52
659.89	25741.21
660.03	25546.95
660.17	25577.37
660.32	25214.59
660.46	25174.80
660.60	25373.75
660.74	25357.36
660.89	25914.41
661.03	25233.32
661.17	24861.17
661.32	25305.87
661.46	25570.35
661.60	25436.94
661.74	25420.56
661.89	25429.92
662.03	25181.82
662.17	25034.37
662.31	25109.27
662.46	25209.91
662.60	24903.30
662.74	25095.22
662.88	25050.75
663.03	24849.47
663.17	24725.42
663.31	24594.35
663.45	24423.49
663.60	24751.17
663.74	24727.76
663.88	24395.40
664.02	24577.97
664.17	25167.78
664.31	24489.03
664.45	24503.07
664.59	24531.15
664.73	24582.65
664.88	24402.43
665.02	24044.32
665.16	24315.83
665.30	24313.48
665.44	24367.32
665.59	23906.23
665.73	24297.10
665.87	23777.50
666.01	24425.83
666.15	24266.67
666.29	24070.07
666.44	24130.92
666.58	24273.70
666.72	24009.22
666.86	24149.65
667.00	23950.70
667.14	24140.29
667.28	24046.66
667.43	24224.54
667.57	23850.06
667.71	23690.90
667.85	24006.87
667.99	23573.88
668.13	23573.88
668.27	23538.77
668.41	23756.44
668.56	23599.62
668.70	23541.11
668.84	23405.36
668.98	23447.49
669.12	23367.91
669.26	23726.01
669.40	23358.55
669.54	23536.43
669.68	23295.35
669.82	23204.07
669.96	23529.41
670.10	23150.24
670.25	23129.17
670.39	23358.55
670.53	23000.44
670.67	22735.96
670.81	23087.04
670.95	22857.67
671.09	22998.10
671.23	23110.45
671.37	23358.55
671.51	22974.70
671.65	23201.73
671.79	22909.16
671.93	22668.09
672.07	22717.24
672.21	22546.38
672.35	22576.81
672.49	22356.80
672.63	22670.43
672.77	22171.89
672.91	22548.72
673.05	22312.33
673.19	22377.86
673.33	22127.42
673.47	22279.56
673.61	22375.52
673.75	22239.77
673.89	22480.85
674.03	22225.73
674.17	22148.49
674.31	22010.40
674.45	22001.04
674.59	22132.11
674.73	21996.35
674.87	21830.18
675.01	21603.14
675.15	21891.03
675.29	21259.09
675.43	21245.04
675.56	21668.68
675.70	21706.13
675.84	21406.54
675.98	21022.69
676.12	21523.57
676.26	21921.46
676.40	21640.59
676.54	21343.35
676.68	21476.76
676.82	20886.94
676.96	21469.73
677.10	21245.04
677.23	20896.30
677.37	20891.62
677.51	20776.94
677.65	20903.32
677.79	20931.41
677.93	20842.47
678.07	20758.21
678.21	20280.74
678.34	20800.34
678.48	20383.73
678.62	20266.70
678.76	20489.05
678.90	19983.49
679.04	20292.44
679.18	20346.28
679.31	20233.93
679.45	19871.15
679.59	19754.12
679.73	20170.74
679.87	19763.48
680.00	19665.18
680.14	19513.05
680.28	19672.20
680.42	19501.34
680.56	19679.22
680.70	19831.36
680.83	19873.49
680.97	19658.16
681.11	19541.13
681.25	19271.97
681.39	19124.52
681.52	19403.04
681.66	19267.29
681.80	19000.47
681.94	19274.31
682.07	19176.01
682.21	18642.37
682.35	18834.29
682.49	18956.00
682.62	18792.16
682.76	18644.71
682.90	18621.30
683.04	18682.16
683.17	18761.73
683.31	18588.53
683.45	18794.50
683.59	18417.68
683.72	18398.95
683.86	18389.59
684.00	18178.94
684.13	18412.99
684.27	18260.86
684.41	18192.98
684.55	18129.79
684.68	17666.36
684.82	17483.80
684.96	17638.28
685.09	17752.96
685.23	17851.27
685.37	17806.80
685.50	17874.67
685.64	17497.84
685.78	17628.92
685.91	17701.47
686.05	17745.94
686.19	17626.57
686.32	17554.02
686.46	17362.09
686.60	17130.38
686.73	17387.84
686.87	16800.37
687.01	16765.26
687.14	16840.15
687.28	16669.30
687.42	16762.92
687.55	16711.42
687.69	16842.50
687.82	16638.87
687.96	16732.49
688.10	16664.61
688.23	16620.14
688.37	16547.59
688.50	16243.32
688.64	16404.81
688.78	16383.75
688.91	16673.98
689.05	16280.77
689.18	15964.79
689.32	15756.49
689.46	16011.60
689.59	16049.05
689.73	15925.00
689.86	15929.69
690.00	15609.03
690.13	15634.78
690.27	15833.72
690.41	15768.19
690.54	15974.16
690.68	15704.99
690.81	15704.99
690.95	15370.30
691.08	15590.31
691.22	15578.61
691.35	15452.22
691.49	15445.20
691.62	15232.21
691.76	15344.55
691.89	15112.84
692.03	14995.81
692.16	14864.74
692.30	15061.35
692.43	14897.51
692.57	14684.52
692.70	14640.05
692.84	14576.86
692.97	14436.42
693.11	14417.70
693.24	14705.59
693.38	14518.34
693.51	14368.55
693.65	14429.40
693.78	14232.80
693.92	14169.60
694.05	14321.74
694.19	14043.21
694.32	14305.35
694.45	14218.75
694.59	13975.34
694.72	13844.27
694.86	13619.58
694.99	13387.86
695.13	13970.66
695.26	13551.70
695.39	13359.78
695.53	13914.48
695.66	13577.45
695.80	13659.37
695.93	13642.98
696.07	13425.31
696.20	13451.06
696.33	13490.85
696.47	13474.46
696.60	13256.79
696.73	13376.16
696.87	13142.11
697.00	13149.13
697.14	12861.24
697.27	12844.86
697.40	12695.07
697.54	12755.92
697.67	12760.60
697.80	12678.68
697.94	12400.16
698.07	12313.56
698.21	12444.63
698.34	12674.00
698.47	12610.81
698.61	12493.78
698.74	12631.87
698.87	12507.82
699.01	12152.06
699.14	12411.86
699.27	12028.01
699.40	12358.03
699.54	12030.35
699.67	11808.00
699.80	12065.46
699.94	11885.24
700.07	12035.03
700.20	11786.94
700.34	11730.76
700.47	11716.72
700.60	11726.08
700.73	11616.08
700.87	11573.95
701.00	11515.44
701.13	11587.99
701.26	11555.22
701.40	11648.85
701.53	11353.94
701.66	11562.25
701.79	11375.00
701.93	11286.06
702.06	11185.42
702.19	11255.64
702.32	10911.58
702.46	10846.04
702.59	10668.16
702.72	10670.50
702.85	10745.40
702.99	10899.87
703.12	10801.57
703.25	10649.44
703.38	10602.63
703.51	10661.14
703.65	10647.10
703.78	10511.35
703.91	10499.64
704.04	10609.65
704.17	10527.73
704.31	10394.32
704.44	10450.49
704.57	10321.76
704.70	10195.37
704.83	10115.80
704.96	10101.75
705.10	10136.86
705.23	10003.45
>>>>>End Processed Spectral Data<<<<<
