SpectraSuite Data File
++++++++++++++++++++++++++++++++++++
Date: Fri Oct 18 13:58:02 GMT-05:00 2013
User: bianchi
Dark Spectrum Present: No
Reference Spectrum Present: No
Number of Sampled Component Spectra: 1
Spectrometers: USB2+H05261
Integration Time (usec): 50000 (USB2+H05261)
Spectra Averaged: 1 (USB2+H05261)
Boxcar Smoothing: 0 (USB2+H05261)
Correct for Electrical Dark: No (USB2+H05261)
Strobe/Lamp Enabled: No (USB2+H05261)
Correct for Detector Non-linearity: No (USB2+H05261)
Correct for Stray Light: No (USB2+H05261)
Number of Pixels in Processed Spectrum: 2048
>>>>>Begin Processed Spectral Data<<<<<
365.73	0.00
365.92	0.00
366.12	0.00
366.32	0.00
366.52	0.00
366.72	0.00
366.91	0.00
367.11	0.00
367.31	0.00
367.51	0.00
367.70	0.00
367.90	0.00
368.10	0.00
368.30	0.00
368.49	0.00
368.69	0.00
368.89	0.00
369.09	0.00
369.28	0.00
369.48	0.00
369.68	0.00
369.87	0.00
370.07	0.00
370.27	0.00
370.47	0.00
370.66	53.83
370.86	124.05
371.06	152.13
371.25	117.03
371.45	77.24
371.65	147.45
371.84	182.56
372.04	126.39
372.24	201.29
372.44	217.67
372.63	236.39
372.83	269.16
373.03	184.90
373.22	128.73
373.42	173.20
373.62	196.60
373.81	215.33
374.01	236.39
374.21	222.35
374.40	208.31
374.60	248.10
374.79	177.88
374.99	257.46
375.19	234.05
375.38	205.97
375.58	271.50
375.78	170.86
375.97	198.95
376.17	170.86
376.37	252.78
376.56	255.12
376.76	231.71
376.95	271.50
377.15	248.10
377.35	283.20
377.54	264.48
377.74	280.86
377.93	264.48
378.13	198.95
378.33	147.45
378.52	346.40
378.72	327.68
378.91	266.82
379.11	332.36
379.31	334.70
379.50	306.61
379.70	278.52
379.89	344.06
380.09	304.27
380.28	297.25
380.48	292.57
380.68	355.76
380.87	332.36
381.07	248.10
381.26	301.93
381.46	425.98
381.65	411.93
381.85	353.42
382.04	344.06
382.24	283.20
382.43	351.08
382.63	325.33
382.83	304.27
383.02	512.58
383.22	330.02
383.41	348.74
383.61	367.46
383.80	348.74
384.00	334.70
384.19	346.40
384.39	374.49
384.58	409.59
384.78	447.04
384.97	440.02
385.17	414.27
385.36	437.68
385.56	311.29
385.75	423.64
385.95	353.42
386.14	407.25
386.34	404.91
386.53	409.59
386.72	400.23
386.92	388.53
387.11	421.30
387.31	365.12
387.50	330.02
387.70	346.40
387.89	470.45
388.09	421.30
388.28	404.91
388.48	500.87
388.67	414.27
388.86	402.57
389.06	512.58
389.25	486.83
389.45	482.15
389.64	458.74
389.84	428.32
390.03	505.56
390.22	449.38
390.42	456.40
390.61	472.79
390.81	463.43
391.00	428.32
391.19	484.49
391.39	482.15
391.58	512.58
391.78	475.13
391.97	486.83
392.16	517.26
392.36	568.75
392.55	526.62
392.75	475.13
392.94	533.64
393.13	491.51
393.33	498.53
393.52	545.34
393.71	629.60
393.91	514.92
394.10	559.39
394.29	655.35
394.49	540.66
394.68	624.92
394.88	599.18
395.07	587.47
395.26	564.07
395.46	580.45
395.65	648.33
395.84	657.69
396.04	657.69
396.23	631.94
396.42	657.69
396.62	622.58
396.81	617.90
397.00	706.84
397.19	615.56
397.39	601.52
397.58	730.25
397.77	730.25
397.97	695.14
398.16	681.10
398.35	751.31
398.55	732.59
398.74	732.59
398.93	730.25
399.12	697.48
399.32	685.78
399.51	711.52
399.70	807.48
399.90	706.84
400.09	767.70
400.28	713.86
400.47	748.97
400.67	718.54
400.86	784.08
401.05	781.74
401.24	805.14
401.44	734.93
401.63	802.80
401.82	847.27
402.01	816.85
402.21	849.61
402.40	910.47
402.59	800.46
402.78	842.59
402.97	840.25
403.17	912.81
403.36	851.96
403.55	891.74
403.74	868.34
403.93	971.32
404.13	863.66
404.32	971.32
404.51	856.64
404.70	964.30
404.89	985.37
405.09	873.02
405.28	983.02
405.47	999.41
405.66	1013.45
405.85	1076.65
406.05	1022.81
406.24	985.37
406.43	985.37
406.62	1083.67
406.81	1069.62
407.00	1015.79
407.20	1046.22
407.39	990.05
407.58	1011.11
407.77	1015.79
407.96	1114.10
408.15	1034.52
408.34	1071.97
408.54	1086.01
408.73	1086.01
408.92	1095.37
409.11	1146.86
409.30	1186.65
409.49	1104.73
409.68	1214.74
409.87	1102.39
410.07	1228.78
410.26	1156.22
410.45	1268.57
410.64	1207.72
410.83	1186.65
411.02	1261.55
411.21	1383.26
411.40	1268.57
411.59	1242.82
411.78	1193.67
411.98	1179.63
412.17	1266.23
412.36	1315.38
412.55	1310.70
412.74	1306.02
412.93	1345.81
413.12	1317.72
413.31	1413.68
413.50	1418.36
413.69	1451.13
413.88	1409.00
414.07	1495.60
414.26	1511.99
414.45	1427.73
414.64	1528.37
414.83	1472.20
415.02	1572.84
415.22	1530.71
415.41	1540.07
415.60	1633.69
415.79	1605.61
415.98	1619.65
416.17	1638.38
416.36	1563.48
416.55	1497.94
416.74	1631.35
416.93	1629.01
417.12	1643.06
417.31	1680.50
417.50	1589.22
417.69	1762.42
417.88	1689.87
418.07	1629.01
418.26	1813.92
418.45	1689.87
418.64	1921.58
418.83	1851.36
419.02	1877.11
419.21	1760.08
419.39	1900.52
419.58	1853.70
419.77	1825.62
419.96	1888.81
420.15	1867.75
420.34	1870.09
420.53	1823.28
420.72	1989.46
420.91	1900.52
421.10	1900.52
421.29	1954.35
421.48	1900.52
421.67	1881.79
421.86	1954.35
422.05	2003.50
422.24	1954.35
422.43	1891.15
422.61	2026.90
422.80	2085.42
422.99	2076.06
423.18	2017.54
423.37	1989.46
423.56	2176.70
423.75	2134.57
423.94	2029.24
424.13	1930.94
424.32	1989.46
424.50	2186.06
424.69	2223.51
424.88	2190.74
425.07	2012.86
425.26	1970.73
425.45	1907.54
425.64	2036.27
425.83	2071.37
426.01	2047.97
426.20	2097.12
426.39	2026.90
426.58	2118.18
426.77	2127.55
426.96	2214.15
427.15	1966.05
427.33	2078.40
427.52	2136.91
427.71	2174.36
427.90	2069.03
428.09	2249.25
428.28	2085.42
428.46	2186.06
428.65	2284.36
428.84	2263.30
429.03	2282.02
429.22	2230.53
429.40	2172.02
429.59	2275.00
429.78	2157.97
429.97	2094.78
430.16	2291.38
430.34	2249.25
430.53	2342.88
430.72	2303.09
430.91	2387.35
431.10	2373.30
431.28	2321.81
431.47	2427.14
431.66	2387.35
431.85	2352.24
432.03	2377.98
432.22	2424.80
432.41	2420.11
432.60	2450.54
432.79	2408.41
432.97	2457.56
433.16	2431.82
433.35	2476.29
433.54	2513.74
433.72	2516.08
433.91	2476.29
434.10	2544.16
434.28	2485.65
434.47	2511.39
434.66	2612.04
434.85	2462.24
435.03	2565.23
435.22	2642.46
435.41	2708.00
435.59	2597.99
435.78	2612.04
435.97	2700.98
436.16	2708.00
436.34	2668.21
436.53	2696.30
436.72	2822.69
436.90	2729.06
437.09	2902.26
437.28	2663.53
437.46	2719.70
437.65	2778.22
437.84	2708.00
438.02	2855.45
438.21	2857.79
438.40	2850.77
438.58	2885.88
438.77	3047.38
438.96	2890.56
439.14	2780.56
439.33	2995.89
439.52	3028.65
439.70	2967.80
439.89	3101.21
440.08	3021.63
440.26	2920.99
440.45	3005.25
440.63	3105.89
440.82	3159.72
441.01	3185.47
441.19	3122.27
441.38	3094.19
441.57	3239.30
441.75	3236.96
441.94	3262.71
442.12	3218.24
442.31	3428.88
442.50	3311.86
442.68	3302.50
442.87	3384.41
443.05	3515.48
443.24	3321.22
443.43	3461.65
443.61	3496.76
443.80	3506.12
443.98	3492.08
444.17	3328.24
444.35	3407.82
444.54	3513.14
444.73	3403.14
444.91	3414.84
445.10	3442.93
445.28	3316.54
445.47	3471.01
445.65	3562.30
445.84	3534.21
446.02	3599.74
446.21	3541.23
446.39	3515.48
446.58	3510.80
446.77	3541.23
446.95	3541.23
447.14	3433.57
447.32	3529.53
447.51	3524.85
447.69	3482.72
447.88	3489.74
448.06	3433.57
448.25	3632.51
448.43	3581.02
448.62	3438.25
448.80	3517.83
448.99	3433.57
449.17	3625.49
449.36	3555.27
449.54	3733.15
449.73	3688.68
449.91	3735.50
450.10	3728.47
450.28	3735.50
450.46	3742.52
450.65	3761.24
450.83	3740.18
451.02	3723.79
451.20	3847.84
451.39	3798.69
451.57	3798.69
451.76	3676.98
451.94	3805.71
452.13	3866.56
452.31	3967.21
452.49	3826.78
452.68	3957.85
452.86	3927.42
453.05	4067.85
453.23	3925.08
453.42	3824.44
453.60	3871.25
453.78	3992.95
453.97	3908.69
454.15	3894.65
454.34	3932.10
454.52	4095.94
454.70	4100.62
454.89	3943.80
455.07	4009.34
455.26	4065.51
455.44	3988.27
455.62	4168.49
455.81	4032.74
455.99	4187.22
456.17	4273.82
456.36	4224.67
456.54	4145.09
456.73	4301.90
456.91	4306.59
457.09	4400.21
457.28	4383.82
457.46	4308.93
457.64	4430.63
457.83	4365.10
458.01	4290.20
458.19	4383.82
458.38	4383.82
458.56	4475.10
458.74	4290.20
458.93	4381.48
459.11	4353.40
459.29	4367.44
459.48	4538.30
459.66	4617.88
459.84	4512.55
460.03	4645.96
460.21	4498.51
460.39	4730.22
460.57	4540.64
460.76	4482.13
460.94	4561.70
461.12	4683.41
461.31	4582.77
461.49	4648.30
461.67	4606.17
461.85	4772.35
462.04	4681.07
462.22	4997.04
462.40	4826.18
462.59	4858.95
462.77	4786.40
462.95	4734.90
463.13	4868.31
463.32	4880.02
463.50	4882.36
463.68	4908.10
463.86	4880.02
464.05	4851.93
464.23	4833.21
464.41	4912.78
464.59	4807.46
464.78	4947.89
464.96	4915.12
465.14	4922.15
465.32	4875.34
465.50	4887.04
465.69	5060.24
465.87	5036.83
466.05	4915.12
466.23	5069.60
466.41	5036.83
466.60	5167.90
466.78	4884.70
466.96	5062.58
467.14	5200.67
467.32	5179.61
467.51	5142.16
467.69	5109.39
467.87	5280.25
468.05	5195.99
468.23	4954.91
468.41	5247.48
468.60	5210.03
468.78	5198.33
468.96	5289.61
469.14	5289.61
469.32	5444.09
469.50	5289.61
469.69	5533.03
469.87	5509.62
470.05	5472.17
470.23	5481.53
470.41	5507.28
470.59	5551.75
470.77	5528.35
470.95	5591.54
471.14	5614.95
471.32	5479.19
471.50	5783.46
471.68	5537.71
471.86	5638.35
472.04	5741.33
472.22	5930.92
472.40	5706.23
472.58	5673.46
472.77	5966.03
472.95	5923.90
473.13	6045.60
473.31	5767.08
473.49	5743.67
473.67	5792.83
473.85	5926.24
474.03	6129.86
474.21	5905.17
474.39	6083.05
474.57	6181.35
474.75	6218.80
474.93	6387.32
475.12	6237.53
475.30	6342.85
475.48	6331.15
475.66	6338.17
475.84	6307.74
476.02	6406.05
476.20	6520.73
476.38	6490.31
476.56	6569.88
476.74	6523.07
476.92	6466.90
477.10	6525.41
477.28	6724.36
477.46	6759.47
477.64	6731.38
477.82	6789.89
478.00	6899.90
478.18	6897.56
478.36	6963.09
478.54	7148.00
478.72	7037.99
478.90	7286.09
479.08	7197.15
479.26	7513.12
479.44	7272.04
479.62	7356.30
479.80	7459.29
479.98	7595.04
480.16	7618.44
480.34	7433.54
480.52	7618.44
480.70	7733.13
480.88	7700.36
481.06	7913.35
481.24	7709.72
481.41	7978.89
481.59	7920.37
481.77	8013.99
481.95	7988.25
482.13	7953.14
482.31	8170.81
482.49	8285.50
482.67	8294.86
482.85	8540.61
483.03	8535.93
483.21	8812.12
483.39	8542.96
483.57	8814.46
483.74	8571.04
483.92	8835.52
484.10	8636.58
484.28	8926.80
484.46	9121.07
484.64	9217.03
484.82	9067.24
485.00	9069.58
485.18	9476.83
485.35	9533.00
485.53	9355.12
485.71	9518.96
485.89	9472.15
486.07	9797.48
486.25	9570.45
486.43	9701.52
486.61	9886.42
486.78	10092.39
486.96	10045.58
487.14	10284.31
487.32	10228.14
487.50	10134.52
487.68	10319.42
487.85	10328.78
488.03	10541.77
488.21	10497.30
488.39	10569.86
488.57	10672.84
488.75	10597.95
488.92	10888.17
489.10	11087.12
489.28	11061.37
489.46	11089.46
489.64	11112.86
489.81	11501.39
489.99	11297.77
490.17	11445.22
490.35	11749.49
490.53	11541.18
490.70	11690.98
490.88	11466.28
491.06	11908.65
491.24	11768.21
491.41	11843.11
491.59	12056.10
491.77	12058.44
491.95	12372.07
492.13	12084.19
492.30	12280.79
492.48	12351.01
492.66	12273.77
492.84	12381.43
493.01	12615.49
493.19	12538.25
493.37	12711.45
493.54	12812.09
493.72	12858.90
493.90	12816.77
494.08	12994.65
494.25	13336.37
494.43	13060.19
494.61	13331.69
494.79	13385.52
494.96	13137.43
495.14	13186.58
495.32	13556.38
495.49	13762.35
495.67	13689.79
495.85	13879.38
496.02	14043.21
496.20	14366.21
496.38	14040.87
496.55	14040.87
496.73	14139.18
496.91	14473.87
497.09	14181.31
497.26	14590.90
497.44	14546.43
497.62	14480.89
497.79	14909.21
497.97	14593.24
498.14	14703.25
498.32	14736.01
498.50	15047.30
498.67	15307.10
498.85	14803.89
499.03	14881.13
499.20	15152.63
499.38	15309.44
499.56	15169.01
499.73	15400.72
499.91	15480.30
500.08	15740.10
500.26	15337.53
500.44	15559.88
500.61	15716.70
500.79	15861.81
500.97	15899.26
501.14	16039.69
501.32	15864.15
501.49	16046.71
501.67	15873.51
501.84	15925.00
502.02	16205.87
502.20	16002.24
502.37	16524.18
502.55	16402.47
502.72	16369.71
502.90	16081.82
503.07	16552.27
503.25	16430.56
503.43	16503.12
503.60	16336.94
503.78	16510.14
503.95	16746.53
504.13	16872.92
504.30	17071.87
504.48	16519.50
504.65	16718.45
504.83	16912.71
505.01	16994.63
505.18	17095.27
505.36	17088.25
505.53	17207.62
505.71	17011.01
505.88	17270.81
506.06	17310.60
506.23	17371.46
506.41	17554.02
506.58	17750.62
506.76	17724.88
506.93	17584.44
507.11	17511.89
507.28	17659.34
507.46	17914.46
507.63	17781.05
507.81	17923.82
507.98	17921.48
508.16	17884.03
508.33	17970.63
508.50	18160.22
508.68	18090.00
508.85	18263.20
509.03	18347.46
509.20	18005.74
509.38	18504.28
509.55	18600.24
509.73	18431.72
509.90	18099.36
510.08	18284.26
510.25	18607.26
510.42	18703.22
510.60	18803.86
510.77	19103.45
510.95	18707.90
511.12	18541.72
511.30	18764.07
511.47	18801.52
511.64	18965.36
511.82	19152.60
511.99	19126.86
512.17	19122.18
512.34	19431.13
512.51	19215.80
512.69	19248.57
512.86	19524.75
513.04	19850.08
513.21	19576.24
513.38	19571.56
513.56	19573.90
513.73	19803.27
513.90	19812.63
514.08	19726.04
514.25	19704.97
514.43	19826.68
514.60	20257.34
514.77	19953.07
514.95	20187.12
515.12	19807.95
515.29	19967.11
515.47	20245.63
515.64	20144.99
515.81	20262.02
515.99	20053.71
516.16	20664.59
516.33	20203.50
516.51	20566.29
516.68	20521.82
516.85	20397.77
517.03	20727.78
517.20	20650.55
517.37	20753.53
517.54	20638.84
517.72	20933.75
517.89	20884.60
518.06	20896.30
518.24	20776.94
518.41	20823.75
518.58	21179.51
518.75	21158.44
518.93	21390.16
519.10	21186.53
519.27	21095.25
519.45	20884.60
519.62	21205.25
519.79	21294.19
519.96	21266.11
520.14	21425.26
520.31	21326.96
520.48	21455.69
520.65	21411.22
520.83	21797.41
521.00	21638.25
521.17	21694.43
521.34	21584.42
521.52	21862.94
521.69	21675.70
521.86	21813.79
522.03	22085.30
522.20	21799.75
522.38	22204.66
522.55	22033.80
522.72	21895.71
522.89	21886.35
523.07	22258.49
523.24	22419.99
523.41	22331.05
523.58	22080.61
523.75	22199.98
523.92	22295.94
524.10	22445.74
524.27	22284.24
524.44	22483.19
524.61	22609.58
524.78	22895.12
524.96	22581.49
525.13	22759.37
525.30	22691.49
525.47	22651.70
525.64	22733.62
525.81	22623.62
525.98	22981.72
526.16	23094.07
526.33	22766.39
526.50	23426.42
526.67	22597.87
526.84	23096.41
527.01	22871.72
527.18	23194.71
527.36	23370.25
527.53	23412.38
527.70	23536.43
527.87	23388.97
528.04	23323.44
528.21	23065.98
528.38	23262.58
528.55	23363.23
528.72	23707.29
528.89	23466.21
529.07	23608.98
529.24	23847.72
529.41	23730.69
529.58	23920.28
529.75	23718.99
529.92	24006.87
530.09	23510.68
530.26	23761.12
530.43	23728.35
530.60	23702.61
530.77	24098.16
530.94	23873.46
531.11	24077.09
531.28	23920.28
531.46	24002.19
531.63	24212.84
531.80	24496.05
531.97	24318.17
532.14	24147.31
532.31	24095.82
532.48	24278.38
532.65	24364.98
532.82	24184.76
532.99	24149.65
533.16	24547.54
533.33	24554.56
533.50	24367.32
533.67	24786.27
533.84	24451.58
534.01	24306.46
534.18	24535.84
534.35	24533.50
534.52	24767.55
534.69	24985.22
534.86	24964.15
535.03	24746.48
535.20	24968.84
535.37	25076.50
535.54	25078.84
535.71	24603.71
535.88	24662.22
536.05	25050.75
536.22	25179.48
536.38	25034.37
536.55	25404.17
536.72	25170.12
536.89	24940.75
537.06	25207.57
537.23	25343.32
537.40	25273.10
537.57	25209.91
537.74	25446.30
537.91	25781.00
538.08	25635.89
538.25	25254.38
538.42	25448.64
538.59	25649.93
538.75	25268.42
538.92	25537.59
539.09	25537.59
539.26	25879.30
539.43	25972.92
539.60	25745.89
539.77	26022.08
539.94	25593.76
540.11	25769.30
540.28	25855.90
540.44	26043.14
540.61	25598.44
540.78	25537.59
540.95	25839.51
541.12	25766.96
541.29	26010.37
541.46	25804.41
541.62	26291.24
541.79	26003.35
541.96	25411.20
542.13	26132.08
542.30	26096.97
542.47	26031.44
542.63	26738.28
542.80	26366.13
542.97	26373.16
543.14	26642.32
543.31	26590.83
543.48	26457.42
543.64	26586.15
543.81	26834.24
543.98	26988.72
544.15	26792.11
544.32	27014.46
544.48	26874.03
544.65	26721.90
544.82	27112.77
544.99	26614.23
545.16	26501.89
545.32	26960.63
545.49	26874.03
545.66	27339.80
545.83	27129.15
546.00	26981.70
546.16	27218.09
546.33	26661.04
546.50	26796.79
546.67	27300.01
546.83	26857.65
547.00	27077.66
547.17	27365.54
547.34	27173.62
547.50	27222.77
547.67	27269.58
547.84	27276.60
548.00	27274.26
548.17	27374.91
548.34	27087.02
548.51	27620.66
548.67	27611.30
548.84	27484.91
549.01	27285.97
549.18	27419.38
549.34	27606.62
549.51	27599.60
549.68	27358.52
549.84	27337.46
550.01	27744.71
550.18	27721.30
550.34	27337.46
550.51	27852.38
550.68	28013.87
550.84	27501.29
551.01	27412.35
551.18	27473.21
551.34	27548.11
551.51	27618.32
551.68	28006.85
551.84	27882.80
552.01	27838.33
552.18	27835.99
552.34	27716.62
552.51	28102.81
552.68	27756.41
552.84	27859.40
553.01	28130.90
553.18	27679.18
553.34	28126.22
553.51	28313.46
553.67	28364.95
553.84	28423.47
554.01	28477.30
554.17	28301.76
554.34	28453.89
554.51	28065.36
554.67	28240.90
554.84	28521.77
555.00	28432.83
555.17	28449.21
555.33	28299.42
555.50	28648.16
555.67	28617.73
555.83	28587.30
556.00	28362.61
556.16	28751.14
556.33	28547.51
556.50	28273.67
556.66	28687.95
556.83	28573.26
556.99	28781.57
557.16	29067.11
557.32	28573.26
557.49	28898.59
557.65	28926.68
557.82	28709.01
557.98	28573.26
558.15	28348.57
558.32	28907.96
558.48	28769.86
558.65	28758.16
558.81	29062.43
558.98	28886.89
559.14	28982.85
559.31	28837.74
559.47	28793.27
559.64	28842.42
559.80	28978.17
559.97	29102.22
560.13	29366.70
560.30	28966.47
560.46	29071.79
560.63	29053.07
560.79	28882.21
560.96	28959.45
561.12	29289.46
561.29	28957.11
561.45	29158.39
561.61	28945.41
561.78	29301.17
561.94	29603.10
562.11	29195.84
562.27	29390.11
562.44	29415.85
562.60	29296.49
562.77	29181.80
562.93	29067.11
563.10	29230.95
563.26	29294.14
563.42	29490.75
563.59	29237.97
563.75	29010.94
563.92	29495.43
564.08	29142.01
564.24	29298.83
564.41	29247.33
564.57	29099.88
564.74	29539.90
564.90	29450.96
565.07	29479.05
565.23	29668.63
565.39	29551.60
565.56	29708.42
565.72	29336.27
565.88	29558.63
566.05	29434.58
566.21	29411.17
566.38	29617.14
566.54	29652.25
566.70	29792.68
566.87	29699.06
567.03	29968.22
567.19	29593.73
567.36	29834.81
567.52	29682.67
567.68	29734.17
567.85	29500.11
568.01	29677.99
568.17	30026.73
568.34	29589.05
568.50	29670.97
568.66	29956.52
568.83	29738.85
568.99	29284.78
569.15	29298.83
569.32	29429.90
569.48	29495.43
569.64	29530.54
569.81	29965.88
569.97	29567.99
570.13	29858.21
570.30	29551.60
570.46	29673.31
570.62	29659.27
570.78	29780.98
570.95	29661.61
571.11	30008.01
571.27	29565.65
571.43	29560.97
571.60	29865.24
571.76	29710.76
571.92	29703.74
572.09	29860.55
572.25	30174.19
572.41	30000.99
572.57	29649.91
572.74	29926.09
572.90	29291.80
573.06	30125.04
573.22	29738.85
573.38	29467.34
573.55	30256.11
573.71	30492.50
573.87	29694.38
574.03	30064.18
574.20	29860.55
574.36	29731.83
574.52	29692.04
574.68	29788.00
574.84	29844.17
575.01	29776.30
575.17	30040.78
575.33	29958.86
575.49	29895.66
575.65	30045.46
575.82	30635.27
575.98	30106.31
576.14	30309.94
576.30	30026.73
576.46	29663.95
576.62	30094.61
576.79	29919.07
576.95	30017.37
577.11	29933.11
577.27	30099.29
577.43	30141.42
577.59	30005.67
577.75	30483.14
577.92	29792.68
578.08	29717.78
578.24	29560.97
578.40	29750.55
578.56	30073.54
578.72	29804.38
578.88	30457.39
579.04	30581.44
579.21	29933.11
579.37	30080.56
579.53	30228.02
579.69	29642.88
579.85	29944.81
580.01	30270.15
580.17	29865.24
580.33	30029.07
580.49	30040.78
580.65	30433.99
580.82	30312.28
580.98	29827.79
581.14	30171.85
581.30	30277.17
581.46	30160.14
581.62	30354.41
581.78	30284.19
581.94	30274.83
582.10	30022.05
582.26	30202.27
582.42	30235.04
582.58	30185.89
582.74	30092.27
582.90	30555.69
583.06	29848.85
583.22	30197.59
583.38	30415.26
583.54	30118.01
583.70	30246.74
583.86	30202.27
584.02	30267.81
584.18	30387.18
584.34	30253.76
584.50	30672.72
584.66	30167.16
584.82	30267.81
584.98	30469.09
585.14	30541.65
585.30	30237.38
585.46	29963.54
585.62	30092.27
585.78	30246.74
585.94	30356.75
586.10	30597.82
586.26	30525.27
586.42	30558.03
586.58	30562.72
586.74	30511.22
586.90	30272.49
587.06	30223.34
587.22	30459.73
587.38	29846.51
587.54	30590.80
587.70	30239.72
587.86	30689.10
588.02	30747.62
588.18	30927.84
588.34	30558.03
588.49	30438.67
588.65	30359.09
588.81	30433.99
588.97	30349.73
589.13	30452.71
589.29	30511.22
589.45	30394.20
589.61	30497.18
589.77	30572.08
589.93	30281.85
590.08	30632.93
590.24	30843.58
590.40	30764.00
590.56	31138.49
590.72	30483.14
590.88	30218.66
591.04	30380.15
591.20	30808.47
591.35	30555.69
591.51	31215.72
591.67	30878.69
591.83	30684.42
591.99	30988.69
592.15	30951.24
592.31	30642.29
592.46	30396.54
592.62	30609.53
592.78	30646.97
592.94	30932.52
593.10	30401.22
593.26	30967.63
593.41	30740.60
593.57	30366.11
593.73	30869.33
593.89	30625.91
594.05	30611.87
594.20	30850.60
594.36	30515.90
594.52	30525.27
594.68	30583.78
594.84	30335.68
594.99	30852.94
595.15	30588.46
595.31	31075.29
595.47	30927.84
595.62	30944.22
595.78	30646.97
595.94	30941.88
596.10	30813.15
596.25	30962.95
596.41	30616.55
596.57	30314.62
596.73	30740.60
596.88	30443.35
597.04	30710.17
597.20	30817.83
597.36	31466.16
597.51	31189.98
597.67	31122.10
597.83	30946.56
597.99	30998.06
598.14	30518.25
598.30	30621.23
598.46	30721.87
598.61	30780.39
598.77	30579.10
598.93	30871.67
599.09	30979.33
599.24	31157.21
599.40	31407.65
599.56	30976.99
599.71	30918.48
599.87	30749.96
600.03	30813.15
600.18	30604.84
600.34	31117.42
600.50	30827.20
600.65	30698.47
600.81	31267.22
600.97	31000.40
601.12	31351.48
601.28	31386.58
601.44	30817.83
601.59	31400.63
601.75	30946.56
601.91	31079.97
602.06	30944.22
602.22	31138.49
602.37	30794.43
602.53	31049.55
602.69	31094.02
602.84	31143.17
603.00	31325.73
603.16	30689.10
603.31	31222.75
603.47	30651.66
603.62	30707.83
603.78	30546.33
603.94	31101.04
604.09	30686.76
604.25	30651.66
604.40	30808.47
604.56	30792.09
604.71	31143.17
604.87	30946.56
605.03	31108.06
605.18	30976.99
605.34	30749.96
605.49	30513.56
605.65	30625.91
605.80	30724.21
605.96	30946.56
606.12	30937.20
606.27	30941.88
606.43	30565.06
606.58	30890.39
606.74	30855.28
606.89	30707.83
607.05	30806.13
607.20	31072.95
607.36	30806.13
607.51	30768.68
607.67	30834.22
607.82	30782.73
607.98	30661.02
608.13	30508.88
608.29	30993.37
608.44	30904.43
608.60	30691.44
608.75	31353.82
608.91	30651.66
609.06	30504.20
609.22	31192.32
609.37	30391.86
609.53	30824.86
609.68	30508.88
609.84	30593.14
609.99	30745.28
610.15	30375.47
610.30	30291.21
610.46	30590.80
610.61	30452.71
610.76	30815.49
610.92	30726.55
611.07	30738.26
611.23	30298.23
611.38	30866.98
611.54	30735.92
611.69	30249.08
611.84	30616.55
612.00	30553.35
612.15	30438.67
612.31	30412.92
612.46	30354.41
612.62	30368.45
612.77	30387.18
612.92	30785.07
613.08	30457.39
613.23	30459.73
613.39	30473.78
613.54	29898.00
613.69	30338.02
613.85	30380.15
614.00	30319.30
614.15	30246.74
614.31	30609.53
614.46	30937.20
614.62	30429.30
614.77	30658.68
614.92	30614.21
615.08	30394.20
615.23	30129.72
615.38	30099.29
615.54	30064.18
615.69	30120.35
615.84	30160.14
616.00	30054.82
616.15	30038.44
616.30	30349.73
616.46	30368.45
616.61	29874.60
616.76	29972.90
616.92	30134.40
617.07	30291.21
617.22	29841.83
617.37	29832.47
617.53	30075.88
617.68	29731.83
617.83	30029.07
617.99	29820.77
618.14	29799.70
618.29	30176.53
618.45	29649.91
618.60	30237.38
618.75	29940.13
618.90	29752.89
619.06	30183.55
619.21	29750.55
619.36	29961.20
619.51	29853.53
619.67	29570.33
619.82	29722.46
619.97	29645.23
620.12	29902.68
620.28	29439.26
620.43	29858.21
620.58	29865.24
620.73	29876.94
620.89	29699.06
621.04	29603.10
621.19	29865.24
621.34	29614.80
621.49	29032.00
621.65	29450.96
621.80	29677.99
621.95	29500.11
622.10	29556.28
622.25	29362.02
622.41	29317.55
622.56	29357.34
622.71	29560.97
622.86	29310.53
623.01	29654.59
623.16	29612.46
623.32	29514.16
623.47	29586.71
623.62	29757.57
623.77	29163.08
623.92	29591.39
624.07	29493.09
624.23	29420.53
624.38	29514.16
624.53	29111.58
624.68	29352.66
624.83	29844.17
624.98	29216.91
625.13	29177.12
625.29	29544.58
625.44	29139.67
625.59	28711.35
625.74	28910.30
625.89	29022.64
626.04	28914.98
626.19	28985.19
626.34	29170.10
626.49	29230.95
626.65	29153.71
626.80	29036.69
626.95	29273.08
627.10	28809.65
627.25	29535.22
627.40	28893.91
627.55	28645.82
627.70	28966.47
627.85	28922.00
628.00	29017.96
628.15	28854.12
628.30	28374.31
628.45	29083.50
628.60	28631.77
628.76	28952.43
628.91	28788.59
629.06	28552.20
629.21	28856.46
629.36	28599.01
629.51	28772.21
629.66	28484.32
629.81	28636.45
629.96	28580.28
630.11	28149.62
630.26	28388.36
630.41	28601.35
630.56	28154.30
630.71	28311.12
630.86	28261.97
631.01	28489.00
631.16	28439.85
631.31	28783.91
631.46	28568.58
631.61	28556.88
631.76	28446.87
631.91	28442.19
632.06	28456.23
632.21	28580.28
632.36	28383.68
632.51	27946.00
632.66	27990.47
632.81	28041.96
632.96	28470.28
633.10	28364.95
633.25	28519.43
633.40	28219.84
633.55	27946.00
633.70	28067.70
633.85	28077.07
634.00	28236.22
634.15	28240.90
634.30	27854.72
634.45	28163.67
634.60	28552.20
634.75	28276.01
634.90	28285.37
635.05	28074.73
635.19	27889.82
635.34	28264.31
635.49	27714.28
635.64	28121.54
635.79	28151.96
635.94	27548.11
636.09	28107.49
636.24	27843.01
636.39	27749.39
636.53	27744.71
636.68	27847.69
636.83	28140.26
636.98	28077.07
637.13	27604.28
637.28	27871.10
637.43	28170.69
637.57	27871.10
637.72	27648.75
637.87	27728.33
638.02	27545.76
638.17	27672.15
638.32	27756.41
638.46	27789.18
638.61	27461.51
638.76	27215.75
638.91	27618.32
639.06	27255.54
639.20	27791.52
639.35	27931.95
639.50	27349.16
639.65	28048.98
639.80	27679.18
639.94	27611.30
640.09	27510.66
640.24	27576.19
640.39	27426.40
640.54	27311.71
640.68	27096.38
640.83	27367.88
640.98	26991.06
641.13	26984.04
641.27	27103.40
641.42	27433.42
641.57	27269.58
641.72	27192.34
641.86	27510.66
642.01	26930.20
642.16	27292.99
642.31	27288.31
642.45	26815.52
642.60	26728.92
642.75	26845.94
642.90	26677.43
643.04	26703.17
643.19	26752.32
643.34	26969.99
643.48	27070.64
643.63	27098.72
643.78	27065.96
643.93	27365.54
644.07	27225.11
644.22	26948.93
644.37	27187.66
644.51	26876.37
644.66	26679.77
644.81	26792.11
644.95	26707.85
645.10	26782.75
645.25	27145.53
645.39	26855.31
645.54	26930.20
645.69	26731.26
645.83	26920.84
645.98	26642.32
646.13	27035.53
646.27	26874.03
646.42	27002.76
646.57	27019.14
646.71	26651.68
646.86	26747.64
647.00	26717.22
647.15	26665.72
647.30	26398.90
647.44	26150.81
647.59	26284.22
647.74	26356.77
647.88	26391.88
648.03	26874.03
648.17	26216.34
648.32	26766.37
648.47	26899.78
648.61	26471.46
648.76	26836.58
648.90	26607.21
649.05	26499.55
649.20	26644.66
649.34	26361.45
649.49	26192.94
649.63	26174.21
649.78	26263.15
649.92	26328.69
650.07	26775.73
650.21	26253.79
650.36	26155.49
650.51	26073.57
650.65	26377.84
650.80	26459.76
650.94	26305.28
651.09	25972.92
651.23	26314.64
651.38	26096.97
651.52	26068.89
651.67	25993.99
651.81	26513.59
651.96	26281.88
652.10	26298.26
652.25	26054.84
652.39	26235.06
652.54	26235.06
652.68	26068.89
652.83	26160.17
652.97	26043.14
653.12	25785.68
653.26	26214.00
653.41	26206.98
653.55	25886.32
653.70	26008.03
653.84	25895.69
653.99	26033.78
654.13	26204.64
654.27	26001.01
654.42	25741.21
654.56	25811.43
654.71	26185.91
654.85	25692.06
655.00	26019.74
655.14	25853.56
655.29	26075.91
655.43	25724.83
655.57	25809.09
655.72	25631.21
655.86	25720.15
656.01	25553.97
656.15	25315.23
656.30	25514.18
656.44	25638.23
656.58	25219.27
656.73	25551.63
656.87	25827.81
657.01	25488.43
657.16	25926.11
657.30	25893.35
657.45	25329.28
657.59	25455.67
657.73	25493.12
657.88	25551.63
658.02	25270.76
658.16	25397.15
658.31	25242.68
658.45	25537.59
658.60	25041.39
658.74	25551.63
658.88	25455.67
659.03	25235.66
659.17	25280.13
659.31	25392.47
659.46	25149.06
659.60	25390.13
659.74	25151.40
659.89	25256.72
660.03	25069.48
660.17	25034.37
660.32	25039.05
660.46	24915.00
660.60	24673.93
660.74	25111.61
660.89	24938.41
661.03	24474.98
661.17	24929.05
661.32	24819.04
661.46	25085.86
661.60	24814.36
661.74	24479.66
661.89	25013.31
662.03	25120.97
662.17	24844.79
662.31	24676.27
662.46	24493.71
662.60	24603.71
662.74	24386.04
662.88	24175.39
663.03	24159.01
663.17	24147.31
663.31	24063.05
663.45	23887.51
663.60	24357.96
663.74	24203.48
663.88	24692.65
664.02	23700.26
664.17	24446.90
664.31	23697.92
664.45	24257.31
664.59	24283.06
664.73	24081.77
664.88	24149.65
665.02	23899.21
665.16	23843.04
665.30	23742.39
665.44	23782.18
665.59	23889.85
665.73	23506.00
665.87	23545.79
666.01	23896.87
666.15	23709.63
666.29	23770.48
666.44	23358.55
666.58	23445.15
666.72	23426.42
666.86	23641.75
667.00	23623.03
667.14	23318.76
667.28	23330.46
667.43	23475.57
667.57	23784.52
667.71	23166.62
667.85	23183.01
667.99	23239.18
668.13	23335.14
668.27	23325.78
668.41	23527.06
668.56	23197.05
668.70	22993.42
668.84	23438.12
668.98	22897.46
669.12	23012.15
669.26	22906.82
669.40	22930.23
669.54	22937.25
669.68	23028.53
669.82	22574.47
669.96	22803.84
670.10	22590.85
670.25	22757.03
670.39	22541.70
670.53	22518.29
670.67	22710.22
670.81	22492.55
670.95	22401.27
671.09	22551.06
671.23	22324.03
671.37	22728.94
671.51	22785.12
671.65	22583.83
671.79	22204.66
671.93	22312.33
672.07	22375.52
672.21	22146.15
672.35	21914.44
672.49	22171.89
672.63	22223.39
672.77	21998.70
672.91	21806.77
673.05	21989.33
673.19	21734.21
673.33	21937.84
673.47	22066.57
673.61	21954.22
673.75	21790.39
673.89	21799.75
674.03	21696.77
674.17	21788.05
674.31	21668.68
674.45	21717.83
674.59	21422.92
674.73	21319.94
674.87	21418.24
675.01	21448.67
675.15	21064.82
675.29	21167.80
675.43	21296.53
675.56	21205.25
675.70	21401.86
675.84	21184.19
675.98	20425.86
676.12	21165.46
676.26	21186.53
676.40	21106.95
676.54	20741.83
676.68	20978.22
676.82	20446.92
676.96	20449.26
677.10	20685.65
677.23	20561.61
677.37	20491.39
677.51	20507.77
677.65	20624.80
677.79	19943.70
677.93	20379.04
678.07	20191.80
678.21	20079.46
678.34	20250.32
678.48	20065.41
678.62	19995.20
678.76	19857.10
678.90	20009.24
679.04	19798.59
679.18	20070.09
679.31	19517.73
679.45	19398.36
679.59	19218.14
679.73	19438.15
679.87	19463.90
680.00	19346.87
680.14	19311.76
680.28	19204.10
680.42	19073.03
680.56	19496.66
680.70	19419.42
680.83	19506.02
680.97	19028.56
681.11	19150.26
681.25	19126.86
681.39	18984.09
681.52	18789.82
681.66	18649.39
681.80	18684.50
681.94	18721.95
682.07	18403.63
682.21	18347.46
682.35	18611.94
682.49	18239.79
682.62	18265.54
682.76	18302.99
682.90	18452.78
683.04	18263.20
683.17	18523.00
683.31	18452.78
683.45	18246.82
683.59	18153.20
683.72	18167.24
683.86	17970.63
684.00	18293.63
684.13	17923.82
684.27	17701.47
684.41	17659.34
684.55	17844.24
684.68	17493.16
684.82	17165.49
684.96	17401.88
685.09	17518.91
685.23	17444.01
685.37	17118.68
685.50	17296.56
685.64	17298.90
685.78	17565.72
685.91	17455.72
686.05	17298.90
686.19	17177.19
686.32	16905.69
686.46	17020.38
686.60	16671.64
686.73	16826.11
686.87	16652.91
687.01	17018.04
687.14	16762.92
687.28	16697.38
687.42	16519.50
687.55	16376.73
687.69	16430.56
687.82	16453.97
687.96	16318.22
688.10	16451.63
688.23	16107.57
688.37	16147.36
688.50	16224.59
688.64	16341.62
688.78	16224.59
688.91	15985.86
689.05	15803.30
689.18	16065.44
689.32	15363.28
689.46	15641.80
689.59	15658.18
689.73	15538.82
689.86	15536.48
690.00	15267.31
690.13	15396.04
690.27	15145.61
690.41	15459.24
690.54	15154.97
690.68	15349.23
690.81	15477.96
690.95	15587.97
691.08	15400.72
691.22	15094.11
691.35	15260.29
691.49	14960.70
691.62	15077.73
691.76	14803.89
691.89	14846.02
692.03	14789.85
692.16	14597.92
692.30	14590.90
692.43	14473.87
692.57	14689.20
692.70	14420.04
692.84	14328.76
692.97	14487.92
693.11	14281.95
693.24	14363.87
693.38	14193.01
693.51	14188.33
693.65	14183.65
693.78	14171.94
693.92	14307.69
694.05	13973.00
694.19	13987.04
694.32	13811.50
694.45	13860.65
694.59	13570.43
694.72	13837.25
694.86	13600.85
694.99	13181.90
695.13	13413.61
695.26	13481.49
695.39	13525.96
695.53	13476.80
695.66	13453.40
695.80	13186.58
695.93	13249.77
696.07	13432.33
696.20	13207.64
696.33	13282.54
696.47	12758.26
696.60	13048.49
696.73	12711.45
696.87	12957.21
697.00	12999.34
697.14	12620.17
697.27	12535.91
697.40	12432.93
697.54	12353.35
697.67	12386.12
697.80	12458.67
697.94	12449.31
698.07	12086.53
698.21	12311.22
698.34	12493.78
698.47	12416.54
698.61	12308.88
698.74	12355.69
698.87	12152.06
699.01	11957.80
699.14	11988.22
699.27	11934.39
699.40	11939.07
699.54	11915.67
699.67	11932.05
699.80	11770.55
699.94	11740.13
700.07	11751.83
700.20	11414.79
700.34	11452.24
700.47	11522.46
700.60	11587.99
700.73	11372.66
700.87	11157.33
701.00	11419.47
701.13	11239.25
701.26	11346.92
701.40	11454.58
701.53	11274.36
701.66	11349.26
701.79	10944.34
701.93	11145.63
702.06	11091.80
702.19	10778.17
702.32	10857.75
702.46	10705.61
702.59	10642.42
702.72	10581.56
702.85	10729.02
702.99	10511.35
703.12	10562.84
703.25	10588.58
703.38	10420.06
703.51	10347.51
703.65	10373.25
703.78	10356.87
703.91	10373.25
704.04	10394.32
704.17	10356.87
704.31	10321.76
704.44	10326.44
704.57	9987.07
704.70	9942.60
704.83	9923.87
704.96	9856.00
705.10	9841.95
705.23	9774.08
>>>>>End Processed Spectral Data<<<<<
