SpectraSuite Data File
++++++++++++++++++++++++++++++++++++
Date: Fri Oct 18 13:58:38 GMT-05:00 2013
User: bianchi
Dark Spectrum Present: No
Reference Spectrum Present: No
Number of Sampled Component Spectra: 1
Spectrometers: USB2+H05261
Integration Time (usec): 50000 (USB2+H05261)
Spectra Averaged: 1 (USB2+H05261)
Boxcar Smoothing: 0 (USB2+H05261)
Correct for Electrical Dark: No (USB2+H05261)
Strobe/Lamp Enabled: No (USB2+H05261)
Correct for Detector Non-linearity: No (USB2+H05261)
Correct for Stray Light: No (USB2+H05261)
Number of Pixels in Processed Spectrum: 2048
>>>>>Begin Processed Spectral Data<<<<<
365.73	0.00
365.92	0.00
366.12	0.00
366.32	0.00
366.52	0.00
366.72	0.00
366.91	0.00
367.11	0.00
367.31	0.00
367.51	0.00
367.70	0.00
367.90	0.00
368.10	0.00
368.30	0.00
368.49	0.00
368.69	0.00
368.89	0.00
369.09	0.00
369.28	0.00
369.48	0.00
369.68	0.00
369.87	0.00
370.07	0.00
370.27	0.00
370.47	0.00
370.66	49.15
370.86	154.48
371.06	63.19
371.25	163.84
371.45	159.16
371.65	72.56
371.84	107.66
372.04	231.71
372.24	163.84
372.44	217.67
372.63	147.45
372.83	189.58
373.03	173.20
373.22	177.88
373.42	170.86
373.62	280.86
373.81	196.60
374.01	224.69
374.21	234.05
374.40	245.76
374.60	283.20
374.79	203.63
374.99	217.67
375.19	287.89
375.38	271.50
375.58	257.46
375.78	191.92
375.97	269.16
376.17	196.60
376.37	224.69
376.56	287.89
376.76	262.14
376.95	198.95
377.15	304.27
377.35	229.37
377.54	318.31
377.74	283.20
377.93	287.89
378.13	215.33
378.33	330.02
378.52	222.35
378.72	365.12
378.91	283.20
379.11	283.20
379.31	224.69
379.50	248.10
379.70	243.42
379.89	243.42
380.09	285.55
380.28	266.82
380.48	252.78
380.68	294.91
380.87	252.78
381.07	306.61
381.26	355.76
381.46	400.23
381.65	322.99
381.85	325.33
382.04	386.19
382.24	308.95
382.43	320.65
382.63	297.25
382.83	397.89
383.02	367.46
383.22	318.31
383.41	325.33
383.61	301.93
383.80	430.66
384.00	231.71
384.19	341.72
384.39	355.76
384.58	383.85
384.78	388.53
384.97	346.40
385.17	447.04
385.36	374.49
385.56	348.74
385.75	369.80
385.95	409.59
386.14	428.32
386.34	346.40
386.53	386.19
386.72	386.19
386.92	416.62
387.11	381.51
387.31	409.59
387.50	442.36
387.70	369.80
387.89	407.25
388.09	388.53
388.28	409.59
388.48	397.89
388.67	547.69
388.86	442.36
389.06	482.15
389.25	449.38
389.45	404.91
389.64	463.43
389.84	447.04
390.03	489.17
390.22	566.41
390.42	414.27
390.61	461.09
390.81	463.43
391.00	540.66
391.19	449.38
391.39	507.90
391.58	433.00
391.78	510.24
391.97	484.49
392.16	547.69
392.36	491.51
392.55	430.66
392.75	540.66
392.94	512.58
393.13	561.73
393.33	482.15
393.52	472.79
393.71	526.62
393.91	512.58
394.10	573.43
394.29	535.98
394.49	517.26
394.68	617.90
394.88	622.58
395.07	617.90
395.26	528.96
395.46	608.54
395.65	657.69
395.84	617.90
396.04	678.76
396.23	566.41
396.42	571.09
396.62	643.65
396.81	650.67
397.00	636.63
397.19	468.11
397.39	596.84
397.58	671.73
397.77	641.31
397.97	678.76
398.16	653.01
398.35	685.78
398.55	657.69
398.74	685.78
398.93	767.70
399.12	674.07
399.32	758.33
399.51	634.29
399.70	681.10
399.90	711.52
400.09	730.25
400.28	753.65
400.47	655.35
400.67	734.93
400.86	751.31
401.05	777.06
401.24	767.70
401.44	800.46
401.63	779.40
401.82	795.78
402.01	779.40
402.21	830.89
402.40	889.40
402.59	779.40
402.78	861.32
402.97	763.01
403.17	880.04
403.36	880.04
403.55	849.61
403.74	849.61
403.93	938.55
404.13	919.83
404.32	854.30
404.51	912.81
404.70	952.60
404.89	1001.75
405.09	999.41
405.28	905.79
405.47	959.62
405.66	966.64
405.85	997.07
406.05	992.39
406.24	1015.79
406.43	1004.09
406.62	1060.26
406.81	1053.24
407.00	983.02
407.20	976.00
407.39	922.17
407.58	968.98
407.77	1086.01
407.96	1097.71
408.15	1069.62
408.34	1111.75
408.54	1128.14
408.73	1008.77
408.92	1109.41
409.11	1172.61
409.30	1036.86
409.49	1156.22
409.68	1125.80
409.87	1139.84
410.07	1235.80
410.26	1090.69
410.45	1158.57
410.64	1224.10
410.83	1083.67
411.02	1212.40
411.21	1156.22
411.40	1336.45
411.59	1266.23
411.78	1181.97
411.98	1186.65
412.17	1254.53
412.36	1268.57
412.55	1331.76
412.74	1355.17
412.93	1392.62
413.12	1301.34
413.31	1378.58
413.50	1376.24
413.69	1378.58
413.88	1437.09
414.07	1404.32
414.26	1434.75
414.45	1544.75
414.64	1352.83
414.83	1465.18
415.02	1568.16
415.22	1624.33
415.41	1610.29
415.60	1598.59
415.79	1549.43
415.98	1575.18
416.17	1570.50
416.36	1671.14
416.55	1542.41
416.74	1671.14
416.93	1675.82
417.12	1631.35
417.31	1605.61
417.50	1694.55
417.69	1781.15
417.88	1818.60
418.07	1650.08
418.26	1708.59
418.45	1710.93
418.64	1809.23
418.83	1664.12
419.02	1748.38
419.21	1724.97
419.39	1891.15
419.58	1844.34
419.77	1832.64
419.96	1792.85
420.15	1795.19
420.34	1778.81
420.53	1849.02
420.72	1825.62
420.91	1966.05
421.10	1898.17
421.29	2062.01
421.48	1886.47
421.67	1961.37
421.86	1898.17
422.05	1982.43
422.24	1884.13
422.43	1940.30
422.61	1902.86
422.80	2153.29
422.99	2001.16
423.18	2090.10
423.37	1849.02
423.56	2008.18
423.75	1984.77
423.94	2071.37
424.13	1888.81
424.32	1895.83
424.50	1984.77
424.69	2073.71
424.88	2026.90
425.07	1916.90
425.26	2054.99
425.45	2008.18
425.64	1989.46
425.83	1900.52
426.01	2125.21
426.20	1982.43
426.39	2090.10
426.58	1909.88
426.77	2040.95
426.96	2036.27
427.15	2085.42
427.33	2080.74
427.52	2078.40
427.71	2092.44
427.90	2153.29
428.09	2083.08
428.28	2176.70
428.46	2134.57
428.65	2148.61
428.84	2324.15
429.03	2279.68
429.22	2085.42
429.40	2165.00
429.59	2153.29
429.78	2162.66
429.97	2193.08
430.16	2232.87
430.34	2225.85
430.53	2237.55
430.72	2209.47
430.91	2209.47
431.10	2300.75
431.28	2298.41
431.47	2377.98
431.66	2434.16
431.85	2321.81
432.03	2377.98
432.22	2422.45
432.41	2497.35
432.60	2450.54
432.79	2509.05
432.97	2560.55
433.16	2396.71
433.35	2373.30
433.54	2457.56
433.72	2476.29
433.91	2422.45
434.10	2523.10
434.28	2525.44
434.47	2590.97
434.66	2520.76
434.85	2602.68
435.03	2555.86
435.22	2544.16
435.41	2665.87
435.59	2619.06
435.78	2572.25
435.97	2567.57
436.16	2677.57
436.34	2576.93
436.53	2698.64
436.72	2630.76
436.90	2654.17
437.09	2710.34
437.28	2689.28
437.46	2567.57
437.65	2651.83
437.84	2782.90
438.02	2679.91
438.21	2766.51
438.40	2731.41
438.58	2808.64
438.77	2820.35
438.96	2892.90
439.14	2876.52
439.33	2939.71
439.52	3016.95
439.70	3049.72
439.89	3052.06
440.08	3005.25
440.26	2904.60
440.45	3112.91
440.63	3075.46
440.82	3096.53
441.01	2979.50
441.19	3033.33
441.38	3133.98
441.57	3141.00
441.75	3300.16
441.94	3297.81
442.12	3150.36
442.31	3234.62
442.50	3220.58
442.68	3293.13
442.87	3309.52
443.05	3307.18
443.24	3396.12
443.43	3251.00
443.61	3445.27
443.80	3508.46
443.98	3323.56
444.17	3222.92
444.35	3391.44
444.54	3499.10
444.73	3424.20
444.91	3393.78
445.10	3513.14
445.28	3346.97
445.47	3386.76
445.65	3442.93
445.84	3384.41
446.02	3407.82
446.21	3435.91
446.39	3440.59
446.58	3368.03
446.77	3606.77
446.95	3384.41
447.14	3361.01
447.32	3508.46
447.51	3421.86
447.69	3571.66
447.88	3449.95
448.06	3471.01
448.25	3435.91
448.43	3524.85
448.62	3531.87
448.80	3428.88
448.99	3616.13
449.17	3669.96
449.36	3524.85
449.54	3541.23
449.73	3672.30
449.91	3723.79
450.10	3719.11
450.28	3709.75
450.46	3805.71
450.65	3712.09
450.83	3831.46
451.02	3770.60
451.20	3749.54
451.39	3698.05
451.57	3836.14
451.76	3803.37
451.94	3667.62
452.13	3796.35
452.31	3744.86
452.49	3786.99
452.68	3819.75
452.86	3716.77
453.05	3845.50
453.23	3960.19
453.42	3779.97
453.60	3819.75
453.78	3941.46
453.97	3906.35
454.15	3794.01
454.34	3784.65
454.52	3967.21
454.70	3978.91
454.89	3922.74
455.07	3971.89
455.26	4025.72
455.44	3992.95
455.62	4030.40
455.81	4030.40
455.99	4009.34
456.17	4100.62
456.36	4163.81
456.54	4107.64
456.73	4243.39
456.91	4355.74
457.09	4241.05
457.28	4238.71
457.46	4177.86
457.64	4304.25
457.83	4311.27
458.01	4266.80
458.19	4362.76
458.38	4294.88
458.56	4442.34
458.74	4348.72
458.93	4360.42
459.11	4404.89
459.29	4285.52
459.48	4322.97
459.66	4421.27
459.84	4554.68
460.03	4601.49
460.21	4388.50
460.39	4664.69
460.57	4454.04
460.76	4531.28
460.94	4650.64
461.12	4713.84
461.31	4585.11
461.49	4545.32
461.67	4702.14
461.85	4622.56
462.04	4451.70
462.22	4753.63
462.40	4765.33
462.59	4603.83
462.77	4753.63
462.95	4870.65
463.13	4809.80
463.32	4791.08
463.50	4863.63
463.68	4812.14
463.86	4807.46
464.05	4697.46
464.23	4849.59
464.41	4856.61
464.59	4924.49
464.78	4865.97
464.96	4835.55
465.14	4945.55
465.32	5069.60
465.50	4884.70
465.69	4938.53
465.87	4931.51
466.05	4880.02
466.23	4842.57
466.41	5036.83
466.60	5153.86
466.78	4940.87
466.96	5238.12
467.14	5013.43
467.32	5055.56
467.51	5032.15
467.69	5006.41
467.87	5144.50
468.05	5242.80
468.23	4973.64
468.41	5111.73
468.60	5219.39
468.78	5289.61
468.96	5322.38
469.14	5193.65
469.32	5240.46
469.50	5228.76
469.69	5308.34
469.87	5380.89
470.05	5305.99
470.23	5320.04
470.41	5331.74
470.59	5453.45
470.77	5425.36
470.95	5607.92
471.14	5633.67
471.32	5446.43
471.50	5537.71
471.68	5757.72
471.86	5582.18
472.04	5701.54
472.22	5785.80
472.40	5518.98
472.58	5617.29
472.77	5694.52
472.95	5750.70
473.13	5898.15
473.31	5617.29
473.49	5935.60
473.67	5928.58
473.85	5907.51
474.03	5935.60
474.21	5870.06
474.39	6033.90
474.57	6106.46
474.75	5989.43
474.93	6134.54
475.12	6054.97
475.30	6139.23
475.48	6094.76
475.66	6296.04
475.84	6335.83
476.02	6324.13
476.20	6164.97
476.38	6520.73
476.56	6560.52
476.74	6499.67
476.92	6544.14
477.10	6382.64
477.28	6691.59
477.46	6392.00
477.64	6677.55
477.82	6782.87
478.00	7005.22
478.18	6743.08
478.36	6923.30
478.54	6881.18
478.72	6808.62
478.90	6981.82
479.08	7173.74
479.26	7110.55
479.44	7297.79
479.62	7066.08
479.80	7468.65
479.98	7440.56
480.16	7447.58
480.34	7335.24
480.52	7569.29
480.70	7611.42
480.88	7566.95
481.06	7550.57
481.24	7508.44
481.41	7831.43
481.59	7735.47
481.77	7918.03
481.95	8042.08
482.13	8049.10
482.31	7962.50
482.49	8166.13
482.67	8166.13
482.85	8238.69
483.03	8315.92
483.21	8358.05
483.39	8329.97
483.57	8416.57
483.74	8615.51
483.92	8524.23
484.10	8538.27
484.28	8669.34
484.46	8870.63
484.64	9078.94
484.82	9001.70
485.00	9029.79
485.18	9277.88
485.35	9364.48
485.53	9172.56
485.71	9495.55
485.89	9540.02
486.07	9458.10
486.25	9460.45
486.43	9427.68
486.61	9755.35
486.78	9727.27
486.96	9977.70
487.14	9951.96
487.32	10106.43
487.50	9947.28
487.68	10190.69
487.85	10150.90
488.03	10422.41
488.21	10424.75
488.39	10352.19
488.57	10717.31
488.75	10459.85
488.92	10733.70
489.10	10703.27
489.28	10806.25
489.46	10965.41
489.64	10822.64
489.81	10991.16
489.99	11328.19
490.17	11180.74
490.35	11569.27
490.53	11630.12
490.70	11480.33
490.88	11522.46
491.06	11625.44
491.24	11564.59
491.41	11599.70
491.59	12077.16
491.77	12060.78
491.95	12212.92
492.13	12077.16
492.30	12107.59
492.48	12336.96
492.66	12128.66
492.84	12217.60
493.01	12264.41
493.19	12449.31
493.37	12737.20
493.54	12540.59
493.72	12856.56
493.90	12802.73
494.08	12734.85
494.25	13116.36
494.43	12875.29
494.61	13132.75
494.79	13341.05
494.96	13343.39
495.14	13128.06
495.32	13277.86
495.49	13238.07
495.67	13652.34
495.85	13376.16
496.02	13678.09
496.20	13710.86
496.38	13837.25
496.55	14078.32
496.73	14164.92
496.91	14075.98
497.09	14272.59
497.26	13973.00
497.44	14188.33
497.62	14221.10
497.79	14363.87
497.97	14242.16
498.14	14576.86
498.32	14752.40
498.50	14618.99
498.67	14871.76
498.85	14504.30
499.03	14911.55
499.20	14754.74
499.38	14993.47
499.56	15096.46
499.73	15014.54
499.91	15059.01
500.08	15126.88
500.26	15077.73
500.44	15562.22
500.61	15456.90
500.79	15571.58
500.97	15494.35
501.14	15580.95
501.32	15482.64
501.49	15477.96
501.67	15887.56
501.84	15805.64
502.02	15815.00
502.20	15817.34
502.37	16081.82
502.55	15861.81
502.72	15887.56
502.90	15889.90
503.07	15712.02
503.25	16264.38
503.43	16252.68
503.60	16159.06
503.78	16222.25
503.95	16507.80
504.13	16542.91
504.30	16582.70
504.48	16381.41
504.65	16613.12
504.83	16650.57
505.01	16966.54
505.18	16945.48
505.36	17149.11
505.53	16868.24
505.71	16746.53
505.88	17067.19
506.06	16975.91
506.23	17198.26
506.41	16994.63
506.58	16924.41
506.76	17242.73
506.93	17118.68
507.11	17174.85
507.28	17561.04
507.46	17397.20
507.63	17483.80
507.81	17268.47
507.98	17544.66
508.16	17776.37
508.33	17710.83
508.50	17565.72
508.68	17525.93
508.85	17802.11
509.03	17909.78
509.20	18122.77
509.38	18326.39
509.55	18312.35
509.73	18019.78
509.90	18310.01
510.08	18019.78
510.25	18317.03
510.42	18445.76
510.60	18417.68
510.77	18312.35
510.95	18405.97
511.12	18539.38
511.30	18609.60
511.47	18492.57
511.64	18434.06
511.82	18808.54
511.99	18700.88
512.17	18895.14
512.34	18654.07
512.51	19037.92
512.69	18965.36
512.86	19129.20
513.04	19185.37
513.21	19157.28
513.38	19337.51
513.56	19351.55
513.73	19051.96
513.90	19412.40
514.08	19346.87
514.25	19398.36
514.43	19620.71
514.60	19594.96
514.77	19644.12
514.95	19786.89
515.12	19723.69
515.29	19594.96
515.47	19630.07
515.64	19885.19
515.81	19922.64
515.99	19903.92
516.16	20126.27
516.33	20177.76
516.51	20161.37
516.68	20173.08
516.85	20053.71
517.03	20018.60
517.20	20308.83
517.37	20318.19
517.54	20465.64
517.72	20334.57
517.89	20423.51
518.06	20458.62
518.24	20159.03
518.41	20245.63
518.58	20304.15
518.75	20610.76
518.93	20858.85
519.10	20692.68
519.27	20690.34
519.45	20727.78
519.62	20723.10
519.79	20552.24
519.96	20851.83
520.14	21151.42
520.31	20802.68
520.48	21153.76
520.65	21233.34
520.83	21376.11
521.00	20844.81
521.17	21186.53
521.34	21216.96
521.52	21542.29
521.69	21156.10
521.86	21474.42
522.03	21626.55
522.20	21656.98
522.38	21530.59
522.55	21759.96
522.72	21738.90
522.89	22139.13
523.07	21914.44
523.24	22171.89
523.41	21692.08
523.58	22033.80
523.75	22185.94
523.92	21961.25
524.10	21802.09
524.27	21837.20
524.44	22115.72
524.61	22216.36
524.78	22445.74
524.96	22340.41
525.13	22148.49
525.30	22195.30
525.47	22349.78
525.64	22207.00
525.81	22132.11
525.98	22576.81
526.16	22457.44
526.33	22417.65
526.50	22677.45
526.67	22515.95
526.84	22775.75
527.01	22572.13
527.18	22838.95
527.36	22944.27
527.53	23108.11
527.70	23028.53
527.87	23159.60
528.04	23084.70
528.21	22955.97
528.38	22920.87
528.55	23449.83
528.72	23147.90
528.89	23269.61
529.07	23147.90
529.24	23337.48
529.41	23058.96
529.58	23435.78
529.75	23211.09
529.92	23293.01
530.09	23468.55
530.26	23131.51
530.43	23377.27
530.60	23358.55
530.77	23393.65
530.94	23506.00
531.11	23494.30
531.28	23697.92
531.46	23290.67
531.63	23517.70
531.80	24070.07
531.97	23786.86
532.14	23985.81
532.31	24233.91
532.48	23721.33
532.65	23981.13
532.82	23756.44
532.99	23901.55
533.16	23875.80
533.33	24039.64
533.50	24400.08
533.67	24421.15
533.84	23718.99
534.01	23831.33
534.18	24205.82
534.35	24390.72
534.52	24357.96
534.69	24456.26
534.86	24500.73
535.03	24144.97
535.20	24547.54
535.37	24521.79
535.54	24292.42
535.71	24140.29
535.88	24205.82
536.05	24669.25
536.22	24287.74
536.38	24699.67
536.55	24542.86
536.72	24615.41
536.89	24233.91
537.06	24568.60
537.23	24664.57
537.40	24678.61
537.57	24678.61
537.74	24765.21
537.91	24905.64
538.08	25010.96
538.25	25006.28
538.42	24903.30
538.59	24744.14
538.75	24980.54
538.92	25060.12
539.09	25165.44
539.26	25214.59
539.43	25364.39
539.60	25179.48
539.77	25130.33
539.94	25179.48
540.11	25074.16
540.28	25380.77
540.44	25507.16
540.61	25577.37
540.78	25085.86
540.95	25392.47
541.12	25455.67
541.29	25095.22
541.46	25427.58
541.62	25308.21
541.79	25834.83
541.96	25120.97
542.13	25261.40
542.30	25586.74
542.47	25858.24
542.63	25563.33
542.80	25783.34
542.97	26368.48
543.14	26309.96
543.31	25713.13
543.48	25876.96
543.64	25956.54
543.81	26342.73
543.98	26153.15
544.15	26178.89
544.32	26171.87
544.48	26349.75
544.65	26293.58
544.82	26410.60
544.99	26127.40
545.16	26153.15
545.32	26352.09
545.49	26338.05
545.66	26419.97
545.83	26515.93
546.00	26632.96
546.16	26448.05
546.33	26324.01
546.50	26443.37
546.67	26499.55
546.83	26324.01
547.00	26558.06
547.17	26302.94
547.34	26581.46
547.50	26710.19
547.67	26874.03
547.84	26581.46
548.00	26705.51
548.17	27136.17
548.34	26951.27
548.51	26885.73
548.67	26682.11
548.84	27180.64
549.01	27063.61
549.18	26794.45
549.34	27096.38
549.51	26885.73
549.68	27175.96
549.84	27056.59
550.01	27019.14
550.18	26778.07
550.34	26874.03
550.51	27414.69
550.68	27344.48
550.84	26820.20
551.01	27349.16
551.18	27026.17
551.34	27332.78
551.51	26876.37
551.68	27192.34
551.84	27208.73
552.01	27166.60
552.18	27131.49
552.34	26927.86
552.51	27295.33
552.68	27676.83
552.84	27360.86
553.01	27147.87
553.18	27608.96
553.34	27857.06
553.51	27407.67
553.67	27704.92
553.84	27892.16
554.01	27597.26
554.17	27789.18
554.34	27690.88
554.51	27243.84
554.67	27847.69
554.84	27899.19
555.00	27697.90
555.17	27810.25
555.33	27976.42
555.50	27496.61
555.67	27864.08
555.83	27927.27
556.00	27747.05
556.16	28013.87
556.33	27850.03
556.50	27569.17
556.66	28224.52
556.83	28013.87
556.99	27985.79
557.16	28416.44
557.32	28002.17
557.49	28479.64
557.65	27899.19
557.82	28336.87
557.98	28322.82
558.15	28177.71
558.32	28397.72
558.48	28196.43
558.65	28299.42
558.81	28144.94
558.98	28147.28
559.14	28594.32
559.31	28339.21
559.47	28137.92
559.64	28559.22
559.80	29076.48
559.97	28432.83
560.13	28453.89
560.30	28379.00
560.46	28191.75
560.63	28514.75
560.79	28484.32
560.96	28643.48
561.12	28400.06
561.29	28421.13
561.45	28690.29
561.61	28713.69
561.78	28847.10
561.94	28435.17
562.11	28716.03
562.27	28346.23
562.44	29055.41
562.60	28538.15
562.77	28582.62
562.93	28278.35
563.10	28678.58
563.26	28301.76
563.42	28788.59
563.59	28727.74
563.75	28783.91
563.92	28395.38
564.08	28409.42
564.24	28783.91
564.41	28622.41
564.57	28819.02
564.74	28224.52
564.90	28952.43
565.07	28858.81
565.23	28800.29
565.39	29036.69
565.56	28830.72
565.72	28716.03
565.88	28835.40
566.05	28783.91
566.21	28676.24
566.38	28737.10
566.54	29055.41
566.70	28933.70
566.87	29535.22
567.03	28807.31
567.19	29448.62
567.36	29439.26
567.52	28727.74
567.68	28835.40
567.85	28959.45
568.01	28975.83
568.17	29015.62
568.34	29198.18
568.50	29041.37
568.66	28601.35
568.83	29364.36
568.99	29127.97
569.15	28800.29
569.32	28718.37
569.48	28641.14
569.64	29244.99
569.81	28947.75
569.97	29127.97
570.13	28933.70
570.30	28692.63
570.46	29172.44
570.62	28730.08
570.78	29001.58
570.95	28671.56
571.11	29123.29
571.27	28800.29
571.43	28914.98
571.60	29228.61
571.76	29443.94
571.92	28964.13
572.09	29596.07
572.25	29350.32
572.41	28966.47
572.57	29352.66
572.74	29490.75
572.90	28556.88
573.06	29165.42
573.22	29221.59
573.38	29303.51
573.55	29233.29
573.71	29596.07
573.87	29347.98
574.03	29214.57
574.20	29317.55
574.36	29214.57
574.52	29053.07
574.68	29039.03
574.84	29378.40
575.01	29270.74
575.17	29724.80
575.33	29247.33
575.49	29146.69
575.65	29696.72
575.82	29455.64
575.98	29191.16
576.14	29551.60
576.30	29352.66
576.46	28898.59
576.62	28961.79
576.79	29357.34
576.95	29261.38
577.11	29326.91
577.27	29523.52
577.43	29163.08
577.59	29546.92
577.75	29357.34
577.92	29252.02
578.08	29376.06
578.24	29205.20
578.40	29104.56
578.56	29701.40
578.72	29244.99
578.88	29811.40
579.04	29387.77
579.21	29556.28
579.37	29532.88
579.53	29441.60
579.69	29127.97
579.85	29465.00
580.01	29699.06
580.17	29294.14
580.33	29610.12
580.49	29074.13
580.65	29359.68
580.82	29371.38
580.98	29654.59
581.14	29394.79
581.30	29544.58
581.46	29221.59
581.62	29589.05
581.78	29184.14
581.94	29701.40
582.10	29659.27
582.26	29514.16
582.42	29881.62
582.58	29488.41
582.74	29593.73
582.90	29436.92
583.06	29811.40
583.22	29535.22
583.38	28964.13
583.54	29640.54
583.70	29422.87
583.86	29439.26
584.02	29268.40
584.18	29869.92
584.34	29427.56
584.50	29886.30
584.66	29401.81
584.82	29275.42
584.98	29366.70
585.14	29422.87
585.30	29619.48
585.46	29546.92
585.62	29329.25
585.78	29401.81
585.94	29799.70
586.10	29909.71
586.26	29631.18
586.42	29724.80
586.58	29638.20
586.74	29586.71
586.90	29259.04
587.06	29481.39
587.22	29750.55
587.38	29715.44
587.54	29905.02
587.70	29839.49
587.86	29462.66
588.02	29872.26
588.18	29724.80
588.34	29883.96
588.49	29745.87
588.65	29397.13
588.81	29544.58
588.97	29752.89
589.13	29858.21
589.29	29546.92
589.45	29839.49
589.61	30022.05
589.77	30068.86
589.93	29731.83
590.08	30108.65
590.24	29769.27
590.40	30232.70
590.56	30061.84
590.72	29649.91
590.88	29949.50
591.04	29476.71
591.20	29984.60
591.35	30394.20
591.51	29879.28
591.67	30113.33
591.83	29921.41
591.99	29706.08
592.15	30005.67
592.31	29921.41
592.46	29881.62
592.62	29399.47
592.78	29570.33
592.94	30024.39
593.10	29296.49
593.26	29909.71
593.41	30103.97
593.57	30026.73
593.73	30309.94
593.89	30080.56
594.05	30384.83
594.20	29715.44
594.36	29907.37
594.52	29670.97
594.68	29752.89
594.84	29570.33
594.99	30363.77
595.15	29832.47
595.31	30080.56
595.47	30431.65
595.62	29869.92
595.78	29703.74
595.94	30110.99
596.10	29895.66
596.25	30319.30
596.41	29507.13
596.57	29757.57
596.73	30022.05
596.88	30118.01
597.04	30160.14
597.20	30445.69
597.36	30331.00
597.51	30251.42
597.67	30160.14
597.83	29820.77
597.99	29921.41
598.14	30157.80
598.30	29954.18
598.46	30052.48
598.61	30199.93
598.77	29785.66
598.93	30082.91
599.09	30338.02
599.24	30794.43
599.40	30361.43
599.56	30338.02
599.71	29832.47
599.87	30735.92
600.03	29907.37
600.18	30087.59
600.34	30033.75
600.50	29907.37
600.65	30279.51
600.81	30326.32
600.97	29631.18
601.12	30040.78
601.28	30396.54
601.44	30349.73
601.59	30155.46
601.75	30136.74
601.91	30073.54
602.06	30073.54
602.22	30064.18
602.37	30134.40
602.53	30134.40
602.69	30022.05
602.84	30515.90
603.00	29591.39
603.16	30103.97
603.31	30429.30
603.47	30246.74
603.62	29977.58
603.78	30452.71
603.94	30033.75
604.09	30118.01
604.25	29965.88
604.40	30038.44
604.56	29989.28
604.71	29986.94
604.87	30181.21
605.03	30146.10
605.18	30197.59
605.34	30279.51
605.49	29921.41
605.65	29921.41
605.80	30033.75
605.96	29881.62
606.12	29855.87
606.27	29860.55
606.43	29921.41
606.58	30359.09
606.74	29839.49
606.89	30258.45
607.05	30134.40
607.20	30094.61
607.36	30064.18
607.51	30265.47
607.67	29797.36
607.82	29963.54
607.98	29940.13
608.13	29830.13
608.29	29570.33
608.44	29876.94
608.60	30204.61
608.75	30157.80
608.91	29804.38
609.06	29677.99
609.22	29841.83
609.37	29570.33
609.53	29907.37
609.68	29923.75
609.84	29486.07
609.99	29937.79
610.15	29947.15
610.30	29722.46
610.46	29596.07
610.61	29809.06
610.76	29830.13
610.92	29830.13
611.07	29830.13
611.23	30040.78
611.38	29689.70
611.54	29521.18
611.69	29294.14
611.84	29425.22
612.00	29439.26
612.15	29713.10
612.31	29827.79
612.46	29567.99
612.62	29633.52
612.77	29724.80
612.92	29553.94
613.08	29682.67
613.23	29502.45
613.39	29649.91
613.54	29172.44
613.69	29469.69
613.85	29453.30
614.00	29621.82
614.15	29472.03
614.31	29460.32
614.46	29322.23
614.62	29565.65
614.77	29687.36
614.92	29537.56
615.08	29558.63
615.23	28858.81
615.38	29413.51
615.54	29523.52
615.69	29221.59
615.84	29317.55
616.00	29280.10
616.15	29448.62
616.30	29603.10
616.46	29228.61
616.61	29252.02
616.76	29303.51
616.92	29575.01
617.07	29427.56
617.22	29010.94
617.37	29324.57
617.53	29249.67
617.68	29336.27
617.83	29298.83
617.99	28849.44
618.14	29111.58
618.29	29076.48
618.45	29132.65
618.60	29020.30
618.75	29467.34
618.90	29202.86
619.06	29383.09
619.21	29336.27
619.36	29273.08
619.51	28854.12
619.67	28641.14
619.82	29132.65
619.97	28875.19
620.12	28367.29
620.28	28980.51
620.43	29071.79
620.58	29242.65
620.73	29282.44
620.89	29043.71
621.04	29001.58
621.19	29071.79
621.34	28788.59
621.49	28519.43
621.65	29179.46
621.80	28790.93
621.95	28947.75
622.10	28673.90
622.25	28599.01
622.41	28884.55
622.56	28444.53
622.71	28776.89
622.86	28589.64
623.01	28680.92
623.16	28545.17
623.32	28510.07
623.47	28687.95
623.62	28819.02
623.77	28409.42
623.92	28861.15
624.07	28620.07
624.23	28608.37
624.38	28634.11
624.53	28470.28
624.68	28772.21
624.83	28549.85
624.98	28783.91
625.13	28432.83
625.29	28751.14
625.44	28739.44
625.59	28418.78
625.74	28231.54
625.89	28149.62
626.04	28088.77
626.19	28177.71
626.34	28070.04
626.49	28091.11
626.65	28084.09
626.80	28088.77
626.95	28116.86
627.10	27924.93
627.25	27889.82
627.40	28149.62
627.55	27765.78
627.70	27978.76
627.85	28187.07
628.00	28105.15
628.15	28119.20
628.30	28009.19
628.45	27840.67
628.60	28063.02
628.76	28151.96
628.91	28180.05
629.06	28023.23
629.21	27967.06
629.36	27917.91
629.51	28100.47
629.66	27885.14
629.81	27463.85
629.96	27974.08
630.11	27730.67
630.26	27690.88
630.41	27505.98
630.56	27625.34
630.71	27838.33
630.86	27894.50
631.01	27559.81
631.16	28137.92
631.31	27733.01
631.46	27623.00
631.61	27515.34
631.76	27630.02
631.91	27374.91
632.06	27402.99
632.21	27674.49
632.36	27742.37
632.51	27524.70
632.66	27817.27
632.81	27541.08
632.96	27449.80
633.10	27807.90
633.25	27353.84
633.40	27824.29
633.55	27297.67
633.70	27344.48
633.85	27269.58
634.00	27330.44
634.15	27204.05
634.30	27187.66
634.45	27070.64
634.60	26731.26
634.75	27358.52
634.90	27339.80
635.05	27264.90
635.19	27229.79
635.34	27274.26
635.49	27215.75
635.64	27194.68
635.79	27082.34
635.94	27452.14
636.09	26878.71
636.24	26979.36
636.39	26918.50
636.53	26754.66
636.68	27152.55
636.83	26923.18
636.98	27267.24
637.13	27037.87
637.28	27379.59
637.43	27246.18
637.57	27140.85
637.72	26780.41
637.87	26782.75
638.02	26672.74
638.17	27215.75
638.32	26951.27
638.46	26621.25
638.61	26670.40
638.76	26293.58
638.91	26576.78
639.06	26773.39
639.20	27012.12
639.35	26941.91
639.50	26962.97
639.65	26871.69
639.80	26787.43
639.94	26721.90
640.09	26789.77
640.24	26632.96
640.39	26511.25
640.54	26422.31
640.68	26511.25
640.83	26672.74
640.98	26209.32
641.13	26422.31
641.27	26878.71
641.42	26415.29
641.57	26609.55
641.72	26366.13
641.86	26455.08
642.01	26647.00
642.16	26260.81
642.31	26139.10
642.45	26389.54
642.60	26256.13
642.75	26647.00
642.90	26366.13
643.04	26204.64
643.19	26300.60
643.34	26057.18
643.48	26157.83
643.63	26384.86
643.78	26249.11
643.93	26579.12
644.07	26471.46
644.22	26319.32
644.37	25869.94
644.51	26181.23
644.66	26071.23
644.81	25916.75
644.95	26181.23
645.10	26103.99
645.25	26237.41
645.39	26448.05
645.54	25977.61
645.69	25891.01
645.83	26127.40
645.98	26134.42
646.13	26115.70
646.27	25923.77
646.42	25841.85
646.57	25944.84
646.71	26026.76
646.86	26043.14
647.00	25970.58
647.15	25825.47
647.30	25743.55
647.44	25773.98
647.59	26047.82
647.74	25699.08
647.88	25675.68
648.03	25802.07
648.17	26089.95
648.32	25916.75
648.47	25961.22
648.61	25408.86
648.76	26508.91
648.90	25823.13
649.05	25991.65
649.20	25907.39
649.34	25755.26
649.49	25326.94
649.63	25556.31
649.78	25635.89
649.92	25378.43
650.07	25895.69
650.21	25671.00
650.36	25649.93
650.51	25488.43
650.65	25158.42
650.80	25443.96
650.94	25647.59
651.09	25097.56
651.23	25666.31
651.38	25565.67
651.52	25270.76
651.67	25352.68
651.81	25490.77
651.96	25481.41
652.10	25563.33
652.25	25572.69
652.39	25612.48
652.54	25525.88
652.68	25429.92
652.83	25149.06
652.97	25553.97
653.12	25532.90
653.26	25027.35
653.41	25266.08
653.55	24809.68
653.70	25041.39
653.84	25216.93
653.99	25406.52
654.13	24760.53
654.27	25116.29
654.42	25212.25
654.56	24919.68
654.71	25223.95
654.85	25015.65
655.00	25446.30
655.14	25135.01
655.29	25083.52
655.43	24819.04
655.57	24915.00
655.72	24828.40
655.86	25170.12
656.01	24879.89
656.15	24716.06
656.30	24584.99
656.44	24751.17
656.58	24702.01
656.73	24704.35
656.87	25013.31
657.01	24950.11
657.16	25113.95
657.30	25010.96
657.45	24760.53
657.59	24884.58
657.73	24552.22
657.88	24863.51
658.02	24528.81
658.16	24601.37
658.31	24643.50
658.45	24498.39
658.60	24397.74
658.74	24779.25
658.88	24271.36
659.03	24311.14
659.17	24517.11
659.31	24503.07
659.46	24449.24
659.60	24407.11
659.74	24737.12
659.89	24332.21
660.03	24491.37
660.17	24421.15
660.32	24020.92
660.46	24271.36
660.60	24173.05
660.74	24170.71
660.89	23735.37
661.03	23871.12
661.17	23917.93
661.32	24093.47
661.46	24261.99
661.60	24341.57
661.74	24535.84
661.89	24219.86
662.03	24081.77
662.17	24159.01
662.31	24102.84
662.46	24060.71
662.60	23854.74
662.74	23721.33
662.88	23784.52
663.03	23461.53
663.17	23632.39
663.31	23330.46
663.45	23456.85
663.60	23391.31
663.74	23171.30
663.88	23353.87
664.02	23496.64
664.17	23681.54
664.31	23506.00
664.45	23337.48
664.59	23618.35
664.73	23274.29
664.88	23269.61
665.02	22841.29
665.16	23119.81
665.30	22977.04
665.44	22930.23
665.59	23026.19
665.73	22946.61
665.87	23033.21
666.01	23143.22
666.15	23056.62
666.29	23590.26
666.44	23035.55
666.58	22862.35
666.72	22597.87
666.86	22909.16
667.00	23140.88
667.14	22656.39
667.28	22569.79
667.43	22518.29
667.57	22810.86
667.71	22700.86
667.85	22508.93
667.99	22611.92
668.13	22518.29
668.27	22883.42
668.41	22658.73
668.56	22342.75
668.70	22558.08
668.84	22642.34
668.98	22417.65
669.12	22434.03
669.26	22513.61
669.40	22199.98
669.54	22153.17
669.68	22377.86
669.82	22333.39
669.96	21926.14
670.10	22036.14
670.25	22178.92
670.39	21886.35
670.53	21750.60
670.67	21977.63
670.81	21729.53
670.95	21865.28
671.09	21928.48
671.23	22199.98
671.37	22235.09
671.51	22125.08
671.65	21865.28
671.79	21570.38
671.93	21666.34
672.07	21717.83
672.21	21387.82
672.35	21525.91
672.49	21256.75
672.63	21624.21
672.77	21418.24
672.91	21418.24
673.05	21120.99
673.19	21249.72
673.33	21172.49
673.47	21322.28
673.61	21476.76
673.75	21177.17
673.89	21322.28
674.03	20924.39
674.17	21296.53
674.31	20690.34
674.45	20702.04
674.59	20664.59
674.73	20795.66
674.87	20498.41
675.01	20585.01
675.15	20657.57
675.29	20641.18
675.43	20744.17
675.56	20690.34
675.70	20774.60
675.84	20418.83
675.98	20072.43
676.12	20620.12
676.26	20868.22
676.40	20456.28
676.54	20243.29
676.68	20439.90
676.82	20128.61
676.96	20088.82
677.10	19887.53
677.23	19875.83
677.37	19777.53
677.51	19690.93
677.65	19470.92
677.79	19583.26
677.93	19562.20
678.07	19737.74
678.21	19321.12
678.34	19578.58
678.48	19594.96
678.62	19583.26
678.76	19185.37
678.90	19257.93
679.04	19269.63
679.18	19424.11
679.31	18845.99
679.45	19019.19
679.59	18923.23
679.73	19152.60
679.87	18836.63
680.00	18785.14
680.14	18565.13
680.28	18845.99
680.42	18527.68
680.56	18757.05
680.70	18583.85
680.83	18721.95
680.97	18429.38
681.11	18810.89
681.25	18527.68
681.39	18232.77
681.52	18380.23
681.66	18085.32
681.80	18417.68
681.94	17958.93
682.07	18043.19
682.21	18214.05
682.35	18036.17
682.49	17645.30
682.62	17600.83
682.76	17696.79
682.90	17701.47
683.04	17642.96
683.17	17865.31
683.31	17532.95
683.45	17685.09
683.59	17476.78
683.72	17261.45
683.86	17703.81
684.00	17455.72
684.13	17284.86
684.27	17376.14
684.41	17011.01
684.55	17003.99
684.68	16889.31
684.82	17083.57
684.96	16741.85
685.09	16868.24
685.23	16753.55
685.37	16985.27
685.50	16695.04
685.64	16938.46
685.78	16819.09
685.91	16837.81
686.05	16638.87
686.19	16444.60
686.32	16819.09
686.46	16372.05
686.60	16184.80
686.73	16358.00
686.87	16386.09
687.01	16123.95
687.14	15999.90
687.28	15901.60
687.42	15695.63
687.55	15807.98
687.69	16006.92
687.82	15885.22
687.96	15646.48
688.10	15599.67
688.23	15875.85
688.37	15508.39
688.50	15585.63
688.64	15658.18
688.78	15550.52
688.91	15339.87
689.05	15433.49
689.18	15300.08
689.32	15286.04
689.46	15140.93
689.59	15030.92
689.73	15318.81
689.86	15021.56
690.00	14860.06
690.13	14874.10
690.27	15028.58
690.41	15222.84
690.54	14668.14
690.68	14801.55
690.81	14862.40
690.95	14881.13
691.08	14911.55
691.22	14822.61
691.35	14558.13
691.49	14560.47
691.62	14604.94
691.76	14511.32
691.89	14153.22
692.03	14286.63
692.16	14162.58
692.30	13984.70
692.43	14001.08
692.57	13984.70
692.70	13867.67
692.84	13996.40
692.97	13879.38
693.11	13921.51
693.24	14059.60
693.38	13804.48
693.51	13764.69
693.65	13884.06
693.78	13724.90
693.92	13642.98
694.05	13497.87
694.19	13537.66
694.32	13376.16
694.45	13296.58
694.59	13308.29
694.72	13444.04
694.86	12940.82
694.99	12688.04
695.13	13048.49
695.26	12863.58
695.39	12872.95
695.53	12915.08
695.66	13074.23
695.80	12868.27
695.93	12875.29
696.07	12889.33
696.20	12910.40
696.33	12533.57
696.47	12620.17
696.60	12755.92
696.73	12638.89
696.87	12526.55
697.00	12400.16
697.14	12194.19
697.27	12093.55
697.40	12163.76
697.54	12095.89
697.67	12198.87
697.80	11939.07
697.94	11932.05
698.07	11873.54
698.21	11651.19
698.34	11941.41
698.47	11903.96
698.61	11873.54
698.74	11971.84
698.87	11868.86
699.01	11885.24
699.14	11543.52
699.27	11337.56
699.40	11515.44
699.54	11597.35
699.67	11316.49
699.80	11342.24
699.94	11169.04
700.07	11265.00
700.20	11215.85
700.34	11183.08
700.47	11061.37
700.60	11152.65
700.73	11087.12
700.87	10937.32
701.00	10766.46
701.13	10909.24
701.26	10991.16
701.40	11023.92
701.53	10782.85
701.66	10890.51
701.79	10892.85
701.93	10551.14
702.06	10441.13
702.19	10548.79
702.32	10630.71
702.46	10520.71
702.59	10424.75
702.72	10101.75
702.85	10087.71
702.99	10244.52
703.12	10293.68
703.25	10122.82
703.38	10076.01
703.51	9886.42
703.65	10183.67
703.78	10171.97
703.91	10068.98
704.04	10057.28
704.17	9998.77
704.31	9914.51
704.44	9944.94
704.57	9895.78
704.70	9825.57
704.83	9525.98
704.96	9542.36
705.10	9336.40
705.23	9671.09
>>>>>End Processed Spectral Data<<<<<
