SpectraSuite Data File
++++++++++++++++++++++++++++++++++++
Date: Fri Oct 18 13:57:57 GMT-05:00 2013
User: bianchi
Dark Spectrum Present: No
Reference Spectrum Present: No
Number of Sampled Component Spectra: 1
Spectrometers: USB2+H05261
Integration Time (usec): 50000 (USB2+H05261)
Spectra Averaged: 1 (USB2+H05261)
Boxcar Smoothing: 0 (USB2+H05261)
Correct for Electrical Dark: No (USB2+H05261)
Strobe/Lamp Enabled: No (USB2+H05261)
Correct for Detector Non-linearity: No (USB2+H05261)
Correct for Stray Light: No (USB2+H05261)
Number of Pixels in Processed Spectrum: 2048
>>>>>Begin Processed Spectral Data<<<<<
365.73	0.00
365.92	0.00
366.12	0.00
366.32	0.00
366.52	0.00
366.72	0.00
366.91	0.00
367.11	0.00
367.31	0.00
367.51	0.00
367.70	0.00
367.90	0.00
368.10	0.00
368.30	0.00
368.49	0.00
368.69	0.00
368.89	0.00
369.09	0.00
369.28	0.00
369.48	0.00
369.68	0.00
369.87	0.00
370.07	0.00
370.27	0.00
370.47	0.00
370.66	180.22
370.86	81.92
371.06	177.88
371.25	126.39
371.45	135.75
371.65	138.09
371.84	154.48
372.04	222.35
372.24	184.90
372.44	220.01
372.63	191.92
372.83	189.58
373.03	224.69
373.22	191.92
373.42	198.95
373.62	259.80
373.81	212.99
374.01	255.12
374.21	191.92
374.40	231.71
374.60	196.60
374.79	212.99
374.99	264.48
375.19	245.76
375.38	278.52
375.58	224.69
375.78	287.89
375.97	294.91
376.17	306.61
376.37	236.39
376.56	227.03
376.76	173.20
376.95	308.95
377.15	327.68
377.35	229.37
377.54	285.55
377.74	217.67
377.93	229.37
378.13	287.89
378.33	220.01
378.52	243.42
378.72	311.29
378.91	250.44
379.11	339.38
379.31	252.78
379.50	255.12
379.70	334.70
379.89	325.33
380.09	294.91
380.28	327.68
380.48	308.95
380.68	372.15
380.87	395.55
381.07	322.99
381.26	227.03
381.46	320.65
381.65	269.16
381.85	311.29
382.04	271.50
382.24	346.40
382.43	313.63
382.63	388.53
382.83	353.42
383.02	334.70
383.22	315.97
383.41	276.18
383.61	409.59
383.80	416.62
384.00	449.38
384.19	383.85
384.39	365.12
384.58	442.36
384.78	390.87
384.97	414.27
385.17	418.96
385.36	320.65
385.56	475.13
385.75	421.30
385.95	313.63
386.14	404.91
386.34	381.51
386.53	397.89
386.72	386.19
386.92	451.72
387.11	423.64
387.31	433.00
387.50	468.11
387.70	379.17
387.89	454.06
388.09	425.98
388.28	470.45
388.48	374.49
388.67	500.87
388.86	458.74
389.06	528.96
389.25	519.60
389.45	533.64
389.64	454.06
389.84	465.77
390.03	447.04
390.22	379.17
390.42	468.11
390.61	491.51
390.81	491.51
391.00	514.92
391.19	538.32
391.39	500.87
391.58	561.73
391.78	528.96
391.97	585.13
392.16	444.70
392.36	500.87
392.55	592.16
392.75	538.32
392.94	554.71
393.13	648.33
393.33	550.03
393.52	491.51
393.71	554.71
393.91	540.66
394.10	550.03
394.29	592.16
394.49	641.31
394.68	697.48
394.88	557.05
395.07	545.34
395.26	610.88
395.46	643.65
395.65	629.60
395.84	631.94
396.04	699.82
396.23	690.46
396.42	725.57
396.62	610.88
396.81	601.52
397.00	617.90
397.19	655.35
397.39	683.44
397.58	692.80
397.77	585.13
397.97	655.35
398.16	711.52
398.35	730.25
398.55	697.48
398.74	702.16
398.93	781.74
399.12	704.50
399.32	755.99
399.51	739.61
399.70	725.57
399.90	786.42
400.09	791.10
400.28	739.61
400.47	755.99
400.67	800.46
400.86	830.89
401.05	819.19
401.24	739.61
401.44	791.10
401.63	763.01
401.82	802.80
402.01	770.04
402.21	863.66
402.40	784.08
402.59	802.80
402.78	809.83
402.97	823.87
403.17	856.64
403.36	910.47
403.55	887.06
403.74	898.77
403.93	1015.79
404.13	933.87
404.32	912.81
404.51	847.27
404.70	915.15
404.89	936.21
405.09	1020.47
405.28	971.32
405.47	973.66
405.66	1020.47
405.85	1008.77
406.05	1043.88
406.24	1046.22
406.43	1043.88
406.62	1027.50
406.81	1093.03
407.00	1020.47
407.20	1034.52
407.39	1034.52
407.58	1071.97
407.77	936.21
407.96	1086.01
408.15	1177.29
408.34	1088.35
408.54	1111.75
408.73	1107.07
408.92	1093.03
409.11	1188.99
409.30	1158.57
409.49	1177.29
409.68	1135.16
409.87	1160.91
410.07	1210.06
410.26	1301.34
410.45	1212.40
410.64	1217.08
410.83	1207.72
411.02	1235.80
411.21	1235.80
411.40	1303.68
411.59	1303.68
411.78	1275.59
411.98	1247.51
412.17	1364.53
412.36	1310.70
412.55	1380.92
412.74	1247.51
412.93	1336.45
413.12	1364.53
413.31	1352.83
413.50	1366.87
413.69	1387.94
413.88	1446.45
414.07	1481.56
414.26	1462.83
414.45	1411.34
414.64	1490.92
414.83	1537.73
415.02	1509.65
415.22	1547.09
415.41	1694.55
415.60	1610.29
415.79	1540.07
415.98	1570.50
416.17	1659.44
416.36	1685.19
416.55	1671.14
416.74	1591.56
416.93	1717.95
417.12	1659.44
417.31	1654.76
417.50	1818.60
417.69	1846.68
417.88	1853.70
418.07	1753.06
418.26	1809.23
418.45	1774.13
418.64	1851.36
418.83	1921.58
419.02	1757.74
419.21	1743.70
419.39	1952.01
419.58	1834.98
419.77	1895.83
419.96	1834.98
420.15	1975.41
420.34	1874.77
420.53	1870.09
420.72	1982.43
420.91	1905.20
421.10	1952.01
421.29	2052.65
421.48	1921.58
421.67	1968.39
421.86	2029.24
422.05	2033.93
422.24	2043.29
422.43	2054.99
422.61	1935.62
422.80	2092.44
422.99	2031.58
423.18	2120.53
423.37	2106.48
423.56	2050.31
423.75	2125.21
423.94	1994.14
424.13	1753.06
424.32	2052.65
424.50	2054.99
424.69	2031.58
424.88	2087.76
425.07	2073.71
425.26	2040.95
425.45	2057.33
425.64	2139.25
425.83	2118.18
426.01	2155.63
426.20	2148.61
426.39	2111.16
426.58	2073.71
426.77	2162.66
426.96	2176.70
427.15	2076.06
427.33	2139.25
427.52	2237.55
427.71	2136.91
427.90	2347.56
428.09	2183.72
428.28	2333.51
428.46	2284.36
428.65	2228.19
428.84	2319.47
429.03	2387.35
429.22	2253.94
429.40	2321.81
429.59	2324.15
429.78	2165.00
429.97	2244.57
430.16	2195.42
430.34	2413.09
430.53	2417.77
430.72	2389.69
430.91	2289.04
431.10	2363.94
431.28	2377.98
431.47	2431.82
431.66	2328.83
431.85	2457.56
432.03	2436.50
432.22	2476.29
432.41	2408.41
432.60	2513.74
432.79	2462.24
432.97	2607.36
433.16	2466.92
433.35	2600.34
433.54	2647.15
433.72	2649.49
433.91	2621.40
434.10	2658.85
434.28	2612.04
434.47	2555.86
434.66	2553.52
434.85	2750.13
435.03	2675.23
435.22	2661.19
435.41	2750.13
435.59	2733.75
435.78	2700.98
435.97	2698.64
436.16	2874.18
436.34	2736.09
436.53	2722.04
436.72	2759.49
436.90	2682.25
437.09	2733.75
437.28	2820.35
437.46	2679.91
437.65	2759.49
437.84	2937.37
438.02	2829.71
438.21	2862.48
438.40	2745.45
438.58	3066.10
438.77	2928.01
438.96	2937.37
439.14	2930.35
439.33	3033.33
439.52	3129.30
439.70	3038.02
439.89	3038.02
440.08	3080.14
440.26	3019.29
440.45	3162.06
440.63	3267.39
440.82	3169.09
441.01	3185.47
441.19	3208.87
441.38	3328.24
441.57	3318.88
441.75	3290.79
441.94	3372.71
442.12	3417.18
442.31	3318.88
442.50	3459.31
442.68	3433.57
442.87	3325.90
443.05	3524.85
443.24	3431.23
443.43	3391.44
443.61	3571.66
443.80	3616.13
443.98	3660.60
444.17	3180.79
444.35	3424.20
444.54	3590.38
444.73	3574.00
444.91	3595.06
445.10	3426.54
445.28	3478.04
445.47	3473.36
445.65	3482.72
445.84	3653.58
446.02	3566.98
446.21	3489.74
446.39	3494.42
446.58	3616.13
446.77	3541.23
446.95	3557.61
447.14	3665.28
447.32	3679.32
447.51	3571.66
447.69	3578.68
447.88	3758.90
448.06	3522.51
448.25	3529.53
448.43	3599.74
448.62	3566.98
448.80	3646.55
448.99	3520.17
449.17	3707.41
449.36	3761.24
449.54	3789.33
449.73	3749.54
449.91	3709.75
450.10	3747.20
450.28	3896.99
450.46	3812.73
450.65	3786.99
450.83	3775.28
451.02	3873.59
451.20	3967.21
451.39	3981.25
451.57	3693.37
451.76	3843.16
451.94	3892.31
452.13	3854.86
452.31	3859.54
452.49	4009.34
452.68	3960.19
452.86	3911.04
453.05	3978.91
453.23	4074.87
453.42	3918.06
453.60	4011.68
453.78	4007.00
453.97	3911.04
454.15	4065.51
454.34	4077.21
454.52	4074.87
454.70	4077.21
454.89	4255.09
455.07	4100.62
455.26	3978.91
455.44	4409.57
455.62	4119.34
455.81	4117.00
455.99	4290.20
456.17	4107.64
456.36	4215.30
456.54	4147.43
456.73	4269.14
456.91	4353.40
457.09	4430.63
457.28	4337.01
457.46	4348.72
457.64	4425.95
457.83	4603.83
458.01	4365.10
458.19	4528.94
458.38	4283.18
458.56	4505.53
458.74	4482.13
458.93	4397.87
459.11	4400.21
459.29	4465.74
459.48	4500.85
459.66	4542.98
459.84	4711.50
460.03	4608.51
460.21	4601.49
460.39	4517.23
460.57	4638.94
460.76	4542.98
460.94	4802.78
461.12	4711.50
461.31	4667.03
461.49	4678.73
461.67	4835.55
461.85	4779.37
462.04	4793.42
462.22	5167.90
462.40	4898.74
462.59	4919.81
462.77	4884.70
462.95	4896.40
463.13	4779.37
463.32	4983.00
463.50	4812.14
463.68	4901.08
463.86	5053.22
464.05	5057.90
464.23	4891.72
464.41	4912.78
464.59	4840.23
464.78	5210.03
464.96	4987.68
465.14	5114.07
465.32	5001.72
465.50	5114.07
465.69	5076.62
465.87	5097.69
466.05	5144.50
466.23	5125.77
466.41	5193.65
466.60	5320.04
466.78	5160.88
466.96	5172.58
467.14	5186.63
467.32	5121.09
467.51	5364.51
467.69	5118.75
467.87	5392.59
468.05	5305.99
468.23	5289.61
468.41	5313.02
468.60	5235.78
468.78	5394.93
468.96	5329.40
469.14	5359.83
469.32	5411.32
469.50	5369.19
469.69	5397.28
469.87	5568.13
470.05	5537.71
470.23	5617.29
470.41	5533.03
470.59	5561.11
470.77	5584.52
470.95	5549.41
471.14	5551.75
471.32	5696.86
471.50	5673.46
471.68	5703.89
471.86	5643.03
472.04	5888.79
472.22	6022.20
472.40	5870.06
472.58	5832.62
472.77	5788.14
472.95	5949.64
473.13	6080.71
473.31	5951.98
473.49	5951.98
473.67	6094.76
473.85	6017.52
474.03	6160.29
474.21	6167.31
474.39	5980.07
474.57	6237.53
474.75	6282.00
474.93	6282.00
475.12	6108.80
475.30	6349.87
475.48	6202.42
475.66	6300.72
475.84	6370.94
476.02	6509.03
476.20	6609.67
476.38	6581.59
476.56	6700.95
476.74	6738.40
476.92	6600.31
477.10	6686.91
477.28	7007.56
477.46	6801.60
477.64	6768.83
477.82	7035.65
478.00	7056.72
478.18	7033.31
478.36	7173.74
478.54	7302.47
478.72	7272.04
478.90	7410.14
479.08	7400.77
479.26	7508.44
479.44	7478.01
479.62	7478.01
479.80	7435.88
479.98	7386.73
480.16	7735.47
480.34	7793.98
480.52	7906.33
480.70	7847.82
480.88	7625.47
481.06	7864.20
481.24	7730.79
481.41	8126.34
481.59	7985.91
481.77	8163.79
481.95	8203.58
482.13	8365.07
482.31	8248.05
482.49	8332.31
482.67	8273.79
482.85	8564.02
483.03	8746.58
483.21	8774.67
483.39	8793.39
483.57	8992.34
483.74	8872.97
483.92	8985.32
484.10	8940.85
484.28	9057.87
484.46	9315.33
484.64	9364.48
484.82	9207.67
485.00	9312.99
485.18	9343.42
485.35	9373.85
485.53	9575.13
485.71	9799.82
485.89	9762.37
486.07	9809.19
486.25	9792.80
486.43	9870.04
486.61	9905.15
486.78	9984.73
486.96	10211.76
487.14	10197.71
487.32	10555.82
487.50	10609.65
487.68	10476.24
487.85	10616.67
488.03	10691.57
488.21	10846.04
488.39	10651.78
488.57	11000.52
488.75	10988.82
488.92	11070.73
489.10	11325.85
489.28	11215.85
489.46	11300.11
489.64	11293.08
489.81	11527.14
489.99	11538.84
490.17	11506.07
490.35	11903.96
490.53	11705.02
490.70	11887.58
490.88	12004.61
491.06	11936.73
491.24	12194.19
491.41	12297.17
491.59	12283.13
491.77	12299.52
491.95	12472.71
492.13	12388.46
492.30	12439.95
492.48	12683.36
492.66	12912.74
492.84	12802.73
493.01	12802.73
493.19	12894.01
493.37	13060.19
493.54	13198.28
493.72	13184.24
493.90	13121.04
494.08	13376.16
494.25	13362.12
494.43	13537.66
494.61	13528.30
494.79	13661.71
494.96	13661.71
495.14	13731.92
495.32	13977.68
495.49	13935.55
495.67	13989.38
495.85	14094.71
496.02	14274.93
496.20	14298.33
496.38	14101.73
496.55	14242.16
496.73	14518.34
496.91	14478.55
497.09	14553.45
497.26	15002.83
497.44	14640.05
497.62	14846.02
497.79	14789.85
497.97	14782.82
498.14	14941.98
498.32	15276.68
498.50	15152.63
498.67	15389.02
498.85	15040.28
499.03	15531.80
499.20	15330.51
499.38	15529.45
499.56	15669.89
499.73	15880.53
499.91	15779.89
500.08	15936.71
500.26	15831.38
500.44	15756.49
500.61	15920.32
500.79	15817.34
500.97	16205.87
501.14	16353.32
501.32	16102.89
501.49	16194.17
501.67	16013.95
501.84	16156.72
502.02	16573.33
502.20	16386.09
502.37	16917.39
502.55	16657.59
502.72	16535.88
502.90	16723.13
503.07	16460.99
503.25	16805.05
503.43	16823.77
503.60	16807.39
503.78	16994.63
503.95	17181.87
504.13	16945.48
504.30	16891.65
504.48	17135.06
504.65	17053.14
504.83	17291.88
505.01	17596.15
505.18	17469.76
505.36	17776.37
505.53	17619.55
505.71	17224.00
505.88	17401.88
506.06	17406.56
506.23	17638.28
506.41	18078.30
506.58	17755.30
506.76	17666.36
506.93	18082.98
507.11	18017.44
507.28	17736.58
507.46	17989.36
507.63	17998.72
507.81	18260.86
507.98	18164.90
508.16	18118.09
508.33	18300.65
508.50	18256.18
508.68	18618.96
508.85	18169.58
509.03	18574.49
509.20	18764.07
509.38	18827.27
509.55	18906.85
509.73	18625.98
509.90	18581.51
510.08	19073.03
510.25	18888.12
510.42	19014.51
510.60	19410.06
510.77	19449.85
510.95	19630.07
511.12	18984.09
511.30	19161.97
511.47	19117.50
511.64	19550.49
511.82	19220.48
511.99	19374.95
512.17	19435.81
512.34	19569.22
512.51	19751.78
512.69	19452.19
512.86	19744.76
513.04	19733.06
513.21	19786.89
513.38	19983.49
513.56	20004.56
513.73	19974.13
513.90	19948.39
514.08	20067.75
514.25	19997.54
514.43	20313.51
514.60	20283.08
514.77	20409.47
514.95	20315.85
515.12	19983.49
515.29	20252.66
515.47	20098.18
515.64	20514.80
515.81	20287.76
515.99	20680.97
516.16	20690.34
516.33	20961.84
516.51	20905.66
516.68	20812.04
516.85	20800.34
517.03	21287.17
517.20	21088.23
517.37	20982.90
517.54	21142.06
517.72	21184.19
517.89	21156.10
518.06	21202.91
518.24	20833.11
518.41	20973.54
518.58	21422.92
518.75	21319.94
518.93	21467.39
519.10	21422.92
519.27	21614.85
519.45	21364.41
519.62	21741.24
519.79	21556.33
519.96	21788.05
520.14	21876.99
520.31	21706.13
520.48	21942.52
520.65	21968.27
520.83	21790.39
521.00	21816.13
521.17	22094.66
521.34	22092.32
521.52	22134.45
521.69	22148.49
521.86	22260.84
522.03	22391.91
522.20	22338.07
522.38	22347.44
522.55	22417.65
522.72	22286.58
522.89	22518.29
523.07	22747.67
523.24	22530.00
523.41	23051.94
523.58	22274.88
523.75	22724.26
523.92	22827.24
524.10	22766.39
524.27	22937.25
524.44	22806.18
524.61	22810.86
524.78	22923.21
524.96	23147.90
525.13	23199.39
525.30	22841.29
525.47	22981.72
525.64	23190.03
525.81	22970.02
525.98	23381.95
526.16	23611.32
526.33	23456.85
526.50	23197.05
526.67	23428.76
526.84	23346.84
527.01	23461.53
527.18	23782.18
527.36	23704.95
527.53	23859.42
527.70	23985.81
527.87	23770.48
528.04	24060.71
528.21	23793.89
528.38	23910.91
528.55	23618.35
528.72	23927.30
528.89	24044.32
529.07	23892.19
529.24	23803.25
529.41	24231.57
529.58	23906.23
529.75	23882.83
529.92	24212.84
530.09	24276.04
530.26	24332.21
530.43	24673.93
530.60	24149.65
530.77	24350.93
530.94	24231.57
531.11	24503.07
531.28	24549.88
531.46	24044.32
531.63	24776.91
531.80	24580.31
531.97	24599.03
532.14	24655.20
532.31	24599.03
532.48	24954.79
532.65	24629.46
532.82	24723.08
532.99	24830.74
533.16	24437.53
533.33	24940.75
533.50	25010.96
533.67	25259.06
533.84	24657.54
534.01	24959.47
534.18	24924.36
534.35	25245.02
534.52	25135.01
534.69	25123.31
534.86	25315.23
535.03	25137.35
535.20	25462.69
535.37	25563.33
535.54	25209.91
535.71	25153.74
535.88	25790.36
536.05	25385.45
536.22	25448.64
536.38	25752.91
536.55	25359.70
536.72	25795.04
536.89	25252.04
537.06	25888.67
537.23	25706.10
537.40	25568.01
537.57	25792.70
537.74	25638.23
537.91	26237.41
538.08	25905.05
538.25	25832.49
538.42	25876.96
538.59	26150.81
538.75	25743.55
538.92	25881.64
539.09	26118.04
539.26	26040.80
539.43	26239.75
539.60	26082.93
539.77	26017.40
539.94	26188.25
540.11	26008.03
540.28	26288.90
540.44	26169.53
540.61	26075.91
540.78	26448.05
540.95	26490.18
541.12	26532.31
541.29	26185.91
541.46	26548.70
541.62	26256.13
541.79	26244.43
541.96	26312.30
542.13	26623.59
542.30	26574.44
542.47	26899.78
542.63	26906.80
542.80	26724.24
542.97	27105.74
543.14	26838.92
543.31	27253.20
543.48	27274.26
543.64	27005.10
543.81	27087.02
543.98	26874.03
544.15	27199.37
544.32	27412.35
544.48	27239.15
544.65	27253.20
544.82	27101.06
544.99	26965.31
545.16	27098.72
545.32	27122.13
545.49	27740.03
545.66	27557.47
545.83	27529.38
546.00	27791.52
546.16	27351.50
546.33	27353.84
546.50	27555.13
546.67	27789.18
546.83	27292.99
547.00	27527.04
547.17	27615.98
547.34	27606.62
547.50	27695.56
547.67	28095.79
547.84	27796.20
548.00	27878.12
548.17	27908.55
548.34	27784.50
548.51	27941.32
548.67	28067.70
548.84	27672.15
549.01	28217.50
549.18	27894.50
549.34	27948.34
549.51	27969.40
549.68	28107.49
549.84	28102.81
550.01	27967.06
550.18	28362.61
550.34	28386.02
550.51	28030.26
550.68	28524.11
550.84	27793.86
551.01	28194.09
551.18	28243.24
551.34	28247.93
551.51	28243.24
551.68	28451.55
551.84	28341.55
552.01	28655.18
552.18	28449.21
552.34	28154.30
552.51	28421.13
552.68	28589.64
552.84	28025.57
553.01	28428.15
553.18	28573.26
553.34	28821.36
553.51	28662.20
553.67	28863.49
553.84	28989.88
554.01	28964.13
554.17	29081.16
554.34	28758.16
554.51	28858.81
554.67	28926.68
554.84	28980.51
555.00	28982.85
555.17	28938.38
555.33	28783.91
555.50	28849.44
555.67	28886.89
555.83	29434.58
556.00	28884.55
556.16	29242.65
556.33	29090.52
556.50	29081.16
556.66	29516.50
556.83	28821.36
556.99	29017.96
557.16	28980.51
557.32	29404.15
557.49	29532.88
557.65	29001.58
557.82	29181.80
557.98	29125.63
558.15	29230.95
558.32	29462.66
558.48	29729.48
558.65	29663.95
558.81	29556.28
558.98	29212.23
559.14	29219.25
559.31	29146.69
559.47	29315.21
559.64	29259.04
559.80	29139.67
559.97	29633.52
560.13	29589.05
560.30	29591.39
560.46	29408.83
560.63	29600.76
560.79	29673.31
560.96	29677.99
561.12	29649.91
561.29	29535.22
561.45	29895.66
561.61	29570.33
561.78	29652.25
561.94	29261.38
562.11	29647.57
562.27	29687.36
562.44	30256.11
562.60	29724.80
562.77	29649.91
562.93	29820.77
563.10	29776.30
563.26	29867.58
563.42	30143.76
563.59	29834.81
563.75	29893.32
563.92	29919.07
564.08	29645.23
564.24	29722.46
564.41	29586.71
564.57	29764.59
564.74	29771.61
564.90	29961.20
565.07	30279.51
565.23	30408.24
565.39	29993.97
565.56	30319.30
565.72	29722.46
565.88	29989.28
566.05	30073.54
566.21	30010.35
566.38	29886.30
566.54	29811.40
566.70	30286.53
566.87	30441.01
567.03	30211.64
567.19	30445.69
567.36	30033.75
567.52	30429.30
567.68	29998.65
567.85	30347.39
568.01	30630.59
568.17	30125.04
568.34	30281.85
568.50	30370.79
568.66	30333.34
568.83	30466.75
568.99	30501.86
569.15	30349.73
569.32	30216.32
569.48	29909.71
569.64	29968.22
569.81	30370.79
569.97	29940.13
570.13	30253.76
570.30	30543.99
570.46	30080.56
570.62	30539.31
570.78	29996.31
570.95	30150.78
571.11	30761.66
571.27	30272.49
571.43	30513.56
571.60	29926.09
571.76	30232.70
571.92	30705.49
572.09	30108.65
572.25	31110.40
572.41	30742.94
572.57	30291.21
572.74	30654.00
572.90	30267.81
573.06	30157.80
573.22	30251.42
573.38	30466.75
573.55	29869.92
573.71	30822.51
573.87	30710.17
574.03	30663.36
574.20	30747.62
574.36	30492.50
574.52	30326.32
574.68	30551.01
574.84	30246.74
575.01	30539.31
575.17	30192.91
575.33	30948.90
575.49	30359.09
575.65	30686.76
575.82	30890.39
575.98	30668.04
576.14	30679.74
576.30	30890.39
576.46	30223.34
576.62	30391.86
576.79	30515.90
576.95	30508.88
577.11	30536.97
577.27	30588.46
577.43	30682.08
577.59	30665.70
577.75	30534.63
577.92	30384.83
578.08	30579.10
578.24	30438.67
578.40	30450.37
578.56	30396.54
578.72	30806.13
578.88	31096.36
579.04	31077.63
579.21	30747.62
579.37	30658.68
579.53	30747.62
579.69	30546.33
579.85	30593.14
580.01	30506.54
580.17	30553.35
580.33	30562.72
580.49	30593.14
580.65	30885.71
580.82	30920.82
580.98	30518.25
581.14	30637.61
581.30	30941.88
581.46	30658.68
581.62	30618.89
581.78	30342.70
581.94	30677.40
582.10	30719.53
582.26	31005.08
582.42	30817.83
582.58	31030.82
582.74	30551.01
582.90	31012.10
583.06	30721.87
583.22	30663.36
583.38	30806.13
583.54	30689.10
583.70	30487.82
583.86	30838.90
584.02	30859.96
584.18	30843.58
584.34	31035.50
584.50	30808.47
584.66	31063.59
584.82	30799.11
584.98	30719.53
585.14	30801.45
585.30	30462.07
585.46	30661.02
585.62	30525.27
585.78	30859.96
585.94	30773.36
586.10	31150.19
586.26	30831.88
586.42	30815.49
586.58	31129.12
586.74	30499.52
586.90	30462.07
587.06	31021.46
587.22	30789.75
587.38	30574.42
587.54	30525.27
587.70	31204.02
587.86	31012.10
588.02	30965.29
588.18	31145.51
588.34	31140.83
588.49	30583.78
588.65	30810.81
588.81	30752.30
588.97	31070.61
589.13	31028.48
589.29	30731.23
589.45	31070.61
589.61	30864.64
589.77	31412.33
589.93	31536.38
590.08	31314.03
590.24	31150.19
590.40	31126.78
590.56	31253.17
590.72	30920.82
590.88	30984.01
591.04	30810.81
591.20	31171.25
591.35	31440.42
591.51	31695.53
591.67	31379.56
591.83	31508.29
591.99	31658.09
592.15	31428.71
592.31	31295.30
592.46	31323.39
592.62	31402.97
592.78	31110.40
592.94	31388.92
593.10	30876.35
593.26	31365.52
593.41	31372.54
593.57	31316.37
593.73	31096.36
593.89	31087.00
594.05	31433.39
594.20	31283.60
594.36	31171.25
594.52	31218.07
594.68	31229.77
594.84	30780.39
594.99	31503.61
595.15	31351.48
595.31	31498.93
595.47	31466.16
595.62	31716.60
595.78	31564.46
595.94	31030.82
596.10	31489.57
596.25	31131.47
596.41	30944.22
596.57	31377.22
596.73	31622.98
596.88	30976.99
597.04	31419.35
597.20	31587.87
597.36	31424.03
597.51	31599.57
597.67	31321.05
597.83	31332.75
597.99	31402.97
598.14	31173.60
598.30	31173.60
598.46	31264.88
598.61	31489.57
598.77	31730.64
598.93	31777.45
599.09	31335.09
599.24	31983.42
599.40	31850.01
599.56	31405.31
599.71	31379.56
599.87	31564.46
600.03	31487.23
600.18	31557.44
600.34	31185.30
600.50	31393.61
600.65	31428.71
600.81	31625.32
600.97	31768.09
601.12	31468.50
601.28	31662.77
601.44	31548.08
601.59	31861.71
601.75	31138.49
601.91	31716.60
602.06	31314.03
602.22	31700.22
602.37	31604.25
602.53	31222.75
602.69	31494.25
602.84	31552.76
603.00	31517.65
603.16	31732.98
603.31	31632.34
603.47	31798.52
603.62	31449.78
603.78	31627.66
603.94	31269.56
604.09	31672.13
604.25	31363.18
604.40	31372.54
604.56	31875.76
604.71	31620.64
604.87	31545.74
605.03	31470.84
605.18	31344.45
605.34	31508.29
605.49	31194.66
605.65	31363.18
605.80	31110.40
605.96	31920.23
606.12	31400.63
606.27	31578.51
606.43	31199.34
606.58	31740.00
606.74	31702.56
606.89	31426.37
607.05	31393.61
607.20	31330.41
607.36	31578.51
607.51	31489.57
607.67	31164.23
607.82	31630.00
607.98	31676.81
608.13	31566.81
608.29	31377.22
608.44	31524.68
608.60	31449.78
608.75	31386.58
608.91	31477.86
609.06	31386.58
609.22	31386.58
609.37	30801.45
609.53	31246.15
609.68	31007.42
609.84	31386.58
609.99	31204.02
610.15	31225.09
610.30	31040.18
610.46	31246.15
610.61	31634.68
610.76	31335.09
610.92	30976.99
611.07	31564.46
611.23	30988.69
611.38	31374.88
611.54	30951.24
611.69	30689.10
611.84	30866.98
612.00	31112.74
612.15	30789.75
612.31	31508.29
612.46	30803.79
612.62	31215.72
612.77	31033.16
612.92	30927.84
613.08	31145.51
613.23	31440.42
613.39	31077.63
613.54	30974.65
613.69	30689.10
613.85	30918.48
614.00	30953.58
614.15	31084.65
614.31	30651.66
614.46	31236.79
614.62	30986.35
614.77	30962.95
614.92	30899.75
615.08	30866.98
615.23	30852.94
615.38	30677.40
615.54	30450.37
615.69	30593.14
615.84	30960.61
616.00	30787.41
616.15	30436.33
616.30	30675.06
616.46	30808.47
616.61	31143.17
616.76	30981.67
616.92	30927.84
617.07	30885.71
617.22	30331.00
617.37	30279.51
617.53	30883.37
617.68	30478.46
617.83	30562.72
617.99	30433.99
618.14	30632.93
618.29	30834.22
618.45	30532.29
618.60	30672.72
618.75	30251.42
618.90	30370.79
619.06	30485.48
619.21	30345.05
619.36	30134.40
619.51	30651.66
619.67	30103.97
619.82	29806.72
619.97	30022.05
620.12	30026.73
620.28	30190.57
620.43	30597.82
620.58	30246.74
620.73	30309.94
620.89	29898.00
621.04	30480.80
621.19	30075.88
621.34	29965.88
621.49	30012.69
621.65	30192.91
621.80	30305.26
621.95	29853.53
622.10	30199.93
622.25	30242.06
622.41	29977.58
622.56	29940.13
622.71	30281.85
622.86	30199.93
623.01	30057.16
623.16	29905.02
623.32	29876.94
623.47	30071.20
623.62	29984.60
623.77	29738.85
623.92	29933.11
624.07	29874.60
624.23	29947.15
624.38	29940.13
624.53	29949.50
624.68	30026.73
624.83	30181.21
624.98	30260.79
625.13	29926.09
625.29	29659.27
625.44	30050.14
625.59	30024.39
625.74	29413.51
625.89	29329.25
626.04	29364.36
626.19	29715.44
626.34	29394.79
626.49	29298.83
626.65	29270.74
626.80	29797.36
626.95	29951.84
627.10	29706.08
627.25	29544.58
627.40	29369.04
627.55	29652.25
627.70	29310.53
627.85	29212.23
628.00	29589.05
628.15	29160.73
628.30	29345.64
628.45	29373.72
628.60	29071.79
628.76	29607.78
628.91	29317.55
629.06	29305.85
629.21	29385.43
629.36	29214.57
629.51	29338.62
629.66	29305.85
629.81	29046.05
629.96	29078.82
630.11	28924.34
630.26	29209.89
630.41	29284.78
630.56	29078.82
630.71	29195.84
630.86	29305.85
631.01	28938.38
631.16	29638.20
631.31	28980.51
631.46	29118.60
631.61	28877.53
631.76	29006.26
631.91	29050.73
632.06	29125.63
632.21	28477.30
632.36	28893.91
632.51	28833.06
632.66	28622.41
632.81	28835.40
632.96	29193.50
633.10	28882.21
633.25	28758.16
633.40	29184.14
633.55	28797.95
633.70	28425.81
633.85	28680.92
634.00	28751.14
634.15	28432.83
634.30	28524.11
634.45	28931.36
634.60	28570.92
634.75	28620.07
634.90	28570.92
635.05	29102.22
635.19	28245.58
635.34	28905.62
635.49	28657.52
635.64	28594.32
635.79	28507.72
635.94	28589.64
636.09	28549.85
636.24	28032.60
636.39	28299.42
636.53	28566.24
636.68	28343.89
636.83	28329.84
636.98	28676.24
637.13	27992.81
637.28	28493.68
637.43	28229.20
637.57	28737.10
637.72	28411.76
637.87	28205.80
638.02	28261.97
638.17	28339.21
638.32	28240.90
638.46	28116.86
638.61	27943.66
638.76	27906.21
638.91	27747.05
639.06	28313.46
639.20	28161.33
639.35	28107.49
639.50	28077.07
639.65	27974.08
639.80	28170.69
639.94	28107.49
640.09	28329.84
640.24	28224.52
640.39	28222.18
640.54	27770.46
640.68	27857.06
640.83	27950.68
640.98	27559.81
641.13	27531.72
641.27	27957.70
641.42	28208.14
641.57	27751.73
641.72	27931.95
641.86	27852.38
642.01	27765.78
642.16	27339.80
642.31	27285.97
642.45	27812.59
642.60	27606.62
642.75	27393.63
642.90	27232.13
643.04	27513.00
643.19	27412.35
643.34	27627.68
643.48	27161.92
643.63	27578.53
643.78	27426.40
643.93	27754.07
644.07	27585.55
644.22	27857.06
644.37	27618.32
644.51	27625.34
644.66	27515.34
644.81	27431.08
644.95	27117.45
645.10	27328.10
645.25	27243.84
645.39	27070.64
645.54	27307.03
645.69	27227.45
645.83	27498.95
645.98	27211.07
646.13	27438.10
646.27	27145.53
646.42	27201.71
646.57	27211.07
646.71	27431.08
646.86	27051.91
647.00	27269.58
647.15	26939.57
647.30	27110.43
647.44	27164.26
647.59	27009.78
647.74	26794.45
647.88	27070.64
648.03	27204.05
648.17	27498.95
648.32	27246.18
648.47	27428.74
648.61	27271.92
648.76	27229.79
648.90	27243.84
649.05	27110.43
649.20	27094.04
649.34	27002.76
649.49	27112.77
649.63	27227.45
649.78	26871.69
649.92	26338.05
650.07	26948.93
650.21	27002.76
650.36	27253.20
650.51	26558.06
650.65	26969.99
650.80	26995.74
650.94	26888.07
651.09	26647.00
651.23	26768.71
651.38	26689.13
651.52	26918.50
651.67	26534.65
651.81	26691.47
651.96	26368.48
652.10	26546.36
652.25	26712.53
652.39	27126.81
652.54	26757.00
652.68	26522.95
652.83	26581.46
652.97	26897.44
653.12	26426.99
653.26	26719.56
653.41	26469.12
653.55	26225.70
653.70	26377.84
653.84	26562.74
653.99	26558.06
654.13	26403.58
654.27	26253.79
654.42	26335.71
654.56	26101.65
654.71	26553.38
654.85	26464.44
655.00	26155.49
655.14	26506.57
655.29	26005.69
655.43	26469.12
655.57	26319.32
655.72	26450.39
655.86	26073.57
656.01	26026.76
656.15	26106.34
656.30	25963.56
656.44	25982.29
656.58	25663.97
656.73	25891.01
656.87	26246.77
657.01	26174.21
657.16	26054.84
657.30	26293.58
657.45	25937.82
657.59	26010.37
657.73	26221.02
657.88	26340.39
658.02	25776.32
658.16	25699.08
658.31	26113.36
658.45	25825.47
658.60	25535.24
658.74	25467.37
658.88	25851.22
659.03	26017.40
659.17	25745.89
659.31	25867.60
659.46	25701.42
659.60	25764.62
659.74	25689.72
659.89	25663.97
660.03	25296.51
660.17	25851.22
660.32	25766.96
660.46	25193.53
660.60	25488.43
660.74	25099.90
660.89	25308.21
661.03	25308.21
661.17	25034.37
661.32	25530.56
661.46	25385.45
661.60	25727.17
661.74	25345.66
661.89	25376.09
662.03	25200.55
662.17	25053.09
662.31	24893.94
662.46	25020.33
662.60	25144.38
662.74	24943.09
662.88	25071.82
663.03	24929.05
663.17	24776.91
663.31	24994.58
663.45	24889.26
663.60	24753.51
663.74	24514.77
663.88	24786.27
664.02	24856.49
664.17	24793.29
664.31	24617.75
664.45	24875.21
664.59	24828.40
664.73	24669.25
664.88	24631.80
665.02	24533.50
665.16	24428.17
665.30	24259.65
665.44	24407.11
665.59	24168.37
665.73	24467.96
665.87	24102.84
666.01	24294.76
666.15	24051.34
666.29	24140.29
666.44	24360.30
666.58	23981.13
666.72	24128.58
666.86	24060.71
667.00	24231.57
667.14	24063.05
667.28	23803.25
667.43	23903.89
667.57	23971.77
667.71	24086.45
667.85	23873.46
667.99	23939.00
668.13	23599.62
668.27	23709.63
668.41	23775.16
668.56	23587.92
668.70	23676.86
668.84	23332.80
668.98	23878.15
669.12	23597.28
669.26	23836.02
669.40	22965.34
669.54	23342.16
669.68	23531.75
669.82	22995.76
669.96	22857.67
670.10	23213.43
670.25	23192.37
670.39	23328.12
670.53	23183.01
670.67	22955.97
670.81	23080.02
670.95	23433.44
671.09	23105.77
671.23	23077.68
671.37	23314.08
671.51	23105.77
671.65	23115.13
671.79	22780.43
671.93	23021.51
672.07	23007.47
672.21	22441.06
672.35	22635.32
672.49	22588.51
672.63	22726.60
672.77	22485.53
672.91	22398.93
673.05	22036.14
673.19	22356.80
673.33	22328.71
673.47	22366.16
673.61	22560.42
673.75	22457.44
673.89	22312.33
674.03	22319.35
674.17	22040.82
674.31	22230.41
674.45	21792.73
674.59	21774.00
674.73	22106.36
674.87	22057.21
675.01	22038.48
675.15	21729.53
675.29	21633.57
675.43	21727.19
675.56	21884.01
675.70	21664.00
675.84	21703.79
675.98	20898.64
676.12	21680.38
676.26	21490.80
676.40	21539.95
676.54	21736.56
676.68	21532.93
676.82	20966.52
676.96	21062.48
677.10	20961.84
677.23	20814.38
677.37	20891.62
677.51	20886.94
677.65	20989.92
677.79	20788.64
677.93	20563.95
678.07	20592.03
678.21	20404.79
678.34	20395.43
678.48	20299.47
678.62	20325.21
678.76	20451.60
678.90	20238.61
679.04	20634.16
679.18	20400.11
679.31	19873.49
679.45	19936.68
679.59	19669.86
679.73	19793.91
679.87	19695.61
680.00	19672.20
680.14	19906.26
680.28	19660.50
680.42	19913.28
680.56	19688.59
680.70	19611.35
680.83	19782.21
680.97	19630.07
681.11	19695.61
681.25	19346.87
681.39	19236.86
681.52	19154.94
681.66	19386.66
681.80	19159.63
681.94	19386.66
682.07	18838.97
682.21	18780.46
682.35	18565.13
682.49	18984.09
682.62	18881.10
682.76	18686.84
682.90	18981.74
683.04	18647.05
683.17	18698.54
683.31	18874.08
683.45	19178.35
683.59	18679.82
683.72	18345.12
683.86	18272.56
684.00	18340.44
684.13	18190.64
684.27	18405.97
684.41	18141.49
684.55	17884.03
684.68	17984.68
684.82	17752.96
684.96	17727.22
685.09	17888.71
685.23	17694.45
685.37	18043.19
685.50	17933.18
685.64	17738.92
685.78	17916.80
685.91	17607.85
686.05	17614.87
686.19	17511.89
686.32	17460.40
686.46	17202.94
686.60	17015.69
686.73	17261.45
686.87	17074.21
687.01	17209.96
687.14	16989.95
687.28	16968.88
687.42	16779.30
687.55	16685.68
687.69	17102.29
687.82	16650.57
687.96	16685.68
688.10	16561.63
688.23	16437.58
688.37	16816.75
688.50	16465.67
688.64	16381.41
688.78	16498.44
688.91	16458.65
689.05	16325.24
689.18	16231.62
689.32	15590.31
689.46	16035.01
689.59	15871.17
689.73	16105.23
689.86	15899.26
690.00	15815.00
690.13	15798.62
690.27	15941.39
690.41	15613.71
690.54	15779.89
690.68	15723.72
690.81	15697.97
690.95	15480.30
691.08	15487.32
691.22	15494.35
691.35	15639.46
691.49	15494.35
691.62	15300.08
691.76	15087.09
691.89	15157.31
692.03	14867.08
692.16	14834.32
692.30	14682.18
692.43	14616.65
692.57	14691.54
692.70	14731.33
692.84	14537.07
692.97	14768.78
693.11	14635.37
693.24	14457.49
693.38	14595.58
693.51	14579.20
693.65	14427.06
693.78	14394.29
693.92	14253.86
694.05	14209.39
694.19	14270.25
694.32	13958.96
694.45	14181.31
694.59	13989.38
694.72	13900.44
694.86	13657.03
694.99	13724.90
695.13	14066.62
695.26	13650.00
695.39	13598.51
695.53	13675.75
695.66	13731.92
695.80	13675.75
695.93	13682.77
696.07	13650.00
696.20	13645.32
696.33	13135.09
696.47	13270.84
696.60	13102.32
696.73	13287.22
696.87	13050.83
697.00	13303.60
697.14	12905.71
697.27	12889.33
697.40	12805.07
697.54	12856.56
697.67	12982.95
697.80	12732.51
697.94	12491.44
698.07	12446.97
698.21	12526.55
698.34	12585.06
698.47	12496.12
698.61	12444.63
698.74	12524.21
698.87	12402.50
699.01	12472.71
699.14	12138.02
699.27	12358.03
699.40	12140.36
699.54	12163.76
699.67	11957.80
699.80	12067.80
699.94	11630.12
700.07	11693.32
700.20	11742.47
700.34	11613.74
700.47	11761.19
700.60	11655.87
700.73	11793.96
700.87	11740.13
701.00	11618.42
701.13	11531.82
701.26	11545.86
701.40	11559.91
701.53	11480.33
701.66	11328.19
701.79	11166.70
701.93	11389.05
702.06	11131.59
702.19	10960.73
702.32	10899.87
702.46	11044.99
702.59	10827.32
702.72	10642.42
702.85	10745.40
702.99	10752.42
703.12	10780.51
703.25	10525.39
703.38	10560.50
703.51	10724.33
703.65	10700.93
703.78	10614.33
703.91	10431.77
704.04	10455.17
704.17	10916.26
704.31	10532.41
704.44	10494.96
704.57	10258.57
704.70	10249.21
704.83	10097.07
704.96	10076.01
705.10	10162.61
705.23	9982.38
>>>>>End Processed Spectral Data<<<<<
