SpectraSuite Data File
++++++++++++++++++++++++++++++++++++
Date: Fri Oct 18 13:58:26 GMT-05:00 2013
User: bianchi
Dark Spectrum Present: No
Reference Spectrum Present: No
Number of Sampled Component Spectra: 1
Spectrometers: USB2+H05261
Integration Time (usec): 50000 (USB2+H05261)
Spectra Averaged: 1 (USB2+H05261)
Boxcar Smoothing: 0 (USB2+H05261)
Correct for Electrical Dark: No (USB2+H05261)
Strobe/Lamp Enabled: No (USB2+H05261)
Correct for Detector Non-linearity: No (USB2+H05261)
Correct for Stray Light: No (USB2+H05261)
Number of Pixels in Processed Spectrum: 2048
>>>>>Begin Processed Spectral Data<<<<<
365.73	0.00
365.92	0.00
366.12	0.00
366.32	0.00
366.52	0.00
366.72	0.00
366.91	0.00
367.11	0.00
367.31	0.00
367.51	0.00
367.70	0.00
367.90	0.00
368.10	0.00
368.30	0.00
368.49	0.00
368.69	0.00
368.89	0.00
369.09	0.00
369.28	0.00
369.48	0.00
369.68	0.00
369.87	0.00
370.07	0.00
370.27	0.00
370.47	0.00
370.66	72.56
370.86	98.30
371.06	170.86
371.25	128.73
371.45	98.30
371.65	166.18
371.84	166.18
372.04	159.16
372.24	91.28
372.44	128.73
372.63	208.31
372.83	212.99
373.03	210.65
373.22	140.43
373.42	149.79
373.62	189.58
373.81	259.80
374.01	257.46
374.21	255.12
374.40	205.97
374.60	306.61
374.79	278.52
374.99	248.10
375.19	229.37
375.38	203.63
375.58	255.12
375.78	208.31
375.97	311.29
376.17	278.52
376.37	262.14
376.56	231.71
376.76	283.20
376.95	313.63
377.15	266.82
377.35	264.48
377.54	320.65
377.74	229.37
377.93	278.52
378.13	276.18
378.33	271.50
378.52	264.48
378.72	311.29
378.91	280.86
379.11	276.18
379.31	332.36
379.50	241.08
379.70	229.37
379.89	360.44
380.09	250.44
380.28	276.18
380.48	360.44
380.68	299.59
380.87	280.86
381.07	259.80
381.26	322.99
381.46	372.15
381.65	318.31
381.85	362.78
382.04	334.70
382.24	299.59
382.43	407.25
382.63	315.97
382.83	341.72
383.02	278.52
383.22	362.78
383.41	365.12
383.61	313.63
383.80	369.80
384.00	360.44
384.19	332.36
384.39	358.10
384.58	404.91
384.78	395.55
384.97	397.89
385.17	409.59
385.36	390.87
385.56	351.08
385.75	379.17
385.95	400.23
386.14	395.55
386.34	362.78
386.53	395.55
386.72	444.70
386.92	479.81
387.11	386.19
387.31	454.06
387.50	458.74
387.70	374.49
387.89	440.02
388.09	472.79
388.28	411.93
388.48	479.81
388.67	444.70
388.86	442.36
389.06	517.26
389.25	433.00
389.45	505.56
389.64	421.30
389.84	531.30
390.03	514.92
390.22	458.74
390.42	437.68
390.61	458.74
390.81	482.15
391.00	479.81
391.19	573.43
391.39	465.77
391.58	414.27
391.78	545.34
391.97	533.64
392.16	500.87
392.36	503.22
392.55	594.50
392.75	585.13
392.94	634.29
393.13	526.62
393.33	484.49
393.52	622.58
393.71	582.79
393.91	510.24
394.10	620.24
394.29	521.94
394.49	528.96
394.68	531.30
394.88	545.34
395.07	510.24
395.26	521.94
395.46	582.79
395.65	631.94
395.84	573.43
396.04	613.22
396.23	629.60
396.42	601.52
396.62	580.45
396.81	650.67
397.00	676.41
397.19	645.99
397.39	655.35
397.58	655.35
397.77	641.31
397.97	683.44
398.16	671.73
398.35	812.17
398.55	685.78
398.74	718.54
398.93	706.84
399.12	610.88
399.32	678.76
399.51	763.01
399.70	786.42
399.90	711.52
400.09	716.20
400.28	692.80
400.47	709.18
400.67	765.36
400.86	812.17
401.05	746.63
401.24	779.40
401.44	802.80
401.63	851.96
401.82	847.27
402.01	758.33
402.21	842.59
402.40	826.21
402.59	816.85
402.78	868.34
402.97	875.36
403.17	889.40
403.36	847.27
403.55	861.32
403.74	856.64
403.93	912.81
404.13	877.70
404.32	887.06
404.51	849.61
404.70	983.02
404.89	924.51
405.09	933.87
405.28	840.25
405.47	950.26
405.66	964.30
405.85	863.66
406.05	992.39
406.24	1057.92
406.43	983.02
406.62	1020.47
406.81	1081.33
407.00	973.66
407.20	889.40
407.39	1086.01
407.58	1100.05
407.77	1069.62
407.96	1043.88
408.15	1121.12
408.34	1078.99
408.54	1090.69
408.73	1034.52
408.92	1121.12
409.11	1088.35
409.30	1172.61
409.49	1163.25
409.68	1095.37
409.87	1151.54
410.07	1231.12
410.26	1219.42
410.45	1130.48
410.64	1263.89
410.83	1163.25
411.02	1247.51
411.21	1282.61
411.40	1242.82
411.59	1329.42
411.78	1301.34
411.98	1348.15
412.17	1320.06
412.36	1303.68
412.55	1291.98
412.74	1362.19
412.93	1324.74
413.12	1394.96
413.31	1301.34
413.50	1425.39
413.69	1338.79
413.88	1404.32
414.07	1514.33
414.26	1390.28
414.45	1479.22
414.64	1397.30
414.83	1497.94
415.02	1551.78
415.22	1526.03
415.41	1612.63
415.60	1600.93
415.79	1533.05
415.98	1614.97
416.17	1572.84
416.36	1647.74
416.55	1701.57
416.74	1652.42
416.93	1603.27
417.12	1732.00
417.31	1593.90
417.50	1652.42
417.69	1696.89
417.88	1720.29
418.07	1668.80
418.26	1673.48
418.45	1708.59
418.64	1830.30
418.83	1827.96
419.02	1811.57
419.21	1806.89
419.39	1748.38
419.58	1720.29
419.77	1755.40
419.96	1771.79
420.15	1865.41
420.34	1928.60
420.53	1886.47
420.72	1734.34
420.91	1914.56
421.10	1895.83
421.29	1970.73
421.48	1973.07
421.67	1980.09
421.86	1933.28
422.05	1984.77
422.24	2017.54
422.43	1942.64
422.61	1994.14
422.80	1905.20
422.99	1982.43
423.18	1968.39
423.37	2150.95
423.56	1926.26
423.75	1947.33
423.94	2064.35
424.13	1870.09
424.32	1771.79
424.50	2064.35
424.69	2120.53
424.88	2038.61
425.07	2026.90
425.26	1977.75
425.45	2115.84
425.64	1959.03
425.83	2104.14
426.01	2005.84
426.20	2024.56
426.39	2012.86
426.58	2169.68
426.77	2157.97
426.96	2029.24
427.15	2174.36
427.33	2129.89
427.52	2120.53
427.71	2076.06
427.90	2083.08
428.09	2179.04
428.28	2139.25
428.46	2183.72
428.65	2174.36
428.84	2235.21
429.03	2249.25
429.22	2228.19
429.40	2169.68
429.59	2319.47
429.78	2132.23
429.97	2111.16
430.16	2218.83
430.34	2296.07
430.53	2242.23
430.72	2298.41
430.91	2200.10
431.10	2291.38
431.28	2394.37
431.47	2429.48
431.66	2284.36
431.85	2347.56
432.03	2452.88
432.22	2511.39
432.41	2441.18
432.60	2387.35
432.79	2385.01
432.97	2375.64
433.16	2270.32
433.35	2555.86
433.54	2565.23
433.72	2497.35
433.91	2403.73
434.10	2541.82
434.28	2459.90
434.47	2574.59
434.66	2654.17
434.85	2541.82
435.03	2581.61
435.22	2649.49
435.41	2698.64
435.59	2630.76
435.78	2630.76
435.97	2647.15
436.16	2679.91
436.34	2661.19
436.53	2750.13
436.72	2696.30
436.90	2715.02
437.09	2754.81
437.28	2679.91
437.46	2764.17
437.65	2719.70
437.84	2803.96
438.02	2752.47
438.21	2754.81
438.40	2698.64
438.58	2925.67
438.77	2850.77
438.96	2796.94
439.14	2972.48
439.33	3030.99
439.52	3030.99
439.70	2925.67
439.89	2906.95
440.08	3009.93
440.26	3040.36
440.45	3040.36
440.63	3103.55
440.82	3002.91
441.01	3112.91
441.19	3124.62
441.38	3066.10
441.57	3084.83
441.75	3309.52
441.94	3297.81
442.12	3166.74
442.31	3276.75
442.50	3375.05
442.68	3307.18
442.87	3283.77
443.05	3351.65
443.24	3447.61
443.43	3353.99
443.61	3323.56
443.80	3442.93
443.98	3396.12
444.17	3356.33
444.35	3372.71
444.54	3574.00
444.73	3393.78
444.91	3307.18
445.10	3407.82
445.28	3377.39
445.47	3396.12
445.65	3407.82
445.84	3407.82
446.02	3421.86
446.21	3389.10
446.39	3400.80
446.58	3506.12
446.77	3496.76
446.95	3520.17
447.14	3468.67
447.32	3604.42
447.51	3534.21
447.69	3410.16
447.88	3492.08
448.06	3515.48
448.25	3417.18
448.43	3578.68
448.62	3403.14
448.80	3522.51
448.99	3513.14
449.17	3609.11
449.36	3590.38
449.54	3613.79
449.73	3686.34
449.91	3588.04
450.10	3660.60
450.28	3728.47
450.46	3611.45
450.65	3747.20
450.83	3644.21
451.02	3840.82
451.20	3843.16
451.39	3803.37
451.57	3786.99
451.76	3676.98
451.94	3765.92
452.13	3843.16
452.31	3817.41
452.49	3833.80
452.68	3889.97
452.86	3777.62
453.05	3812.73
453.23	3810.39
453.42	3882.95
453.60	3894.65
453.78	3969.55
453.97	3911.04
454.15	3754.22
454.34	3913.38
454.52	4004.66
454.70	3955.51
454.89	4023.38
455.07	4021.04
455.26	4030.40
455.44	4004.66
455.62	4021.04
455.81	4035.08
455.99	3995.29
456.17	4084.23
456.36	4227.01
456.54	4189.56
456.73	4224.67
456.91	4348.72
457.09	4432.97
457.28	4365.10
457.46	4283.18
457.64	4456.38
457.83	4278.50
458.01	4353.40
458.19	4386.16
458.38	4393.19
458.56	4388.50
458.74	4440.00
458.93	4379.14
459.11	4341.69
459.29	4383.82
459.48	4461.06
459.66	4498.51
459.84	4592.13
460.03	4491.49
460.21	4517.23
460.39	4449.36
460.57	4622.56
460.76	4505.53
460.94	4519.57
461.12	4585.11
461.31	4732.56
461.49	4641.28
461.67	4521.92
461.85	4550.00
462.04	4751.29
462.22	4770.01
462.40	4786.40
462.59	4519.57
462.77	4870.65
462.95	4758.31
463.13	4727.88
463.32	4730.22
463.50	4877.68
463.68	4758.31
463.86	4795.76
464.05	4844.91
464.23	4720.86
464.41	4908.10
464.59	4777.03
464.78	4858.95
464.96	4880.02
465.14	4908.10
465.32	4947.89
465.50	4826.18
465.69	5015.77
465.87	4992.36
466.05	5004.07
466.23	4968.96
466.41	5193.65
466.60	5219.39
466.78	5048.54
466.96	5083.64
467.14	4978.32
467.32	5071.94
467.51	5198.33
467.69	5048.54
467.87	5130.45
468.05	5064.92
468.23	5174.92
468.41	5153.86
468.60	5210.03
468.78	5137.48
468.96	5135.14
469.14	5170.24
469.32	5102.37
469.50	5085.98
469.69	5305.99
469.87	5481.53
470.05	5425.36
470.23	5338.76
470.41	5270.89
470.59	5235.78
470.77	5383.23
470.95	5289.61
471.14	5636.01
471.32	5476.85
471.50	5544.73
471.68	5507.28
471.86	5708.57
472.04	5654.73
472.22	5741.33
472.40	5607.92
472.58	5673.46
472.77	5556.43
472.95	5767.08
473.13	6003.47
473.31	5919.21
473.49	5832.62
473.67	5970.71
473.85	5774.10
474.03	5966.03
474.21	5851.34
474.39	6076.03
474.57	6043.26
474.75	5867.72
474.93	6260.93
475.12	6169.65
475.30	6139.23
475.48	6174.33
475.66	6246.89
475.84	6324.13
476.02	6431.79
476.20	6225.82
476.38	6420.09
476.56	6623.72
476.74	6532.44
476.92	6502.01
477.10	6555.84
477.28	6623.72
477.46	6586.27
477.64	6609.67
477.82	6778.19
478.00	6885.86
478.18	7007.56
478.36	6951.39
478.54	7070.76
478.72	7124.59
478.90	7049.69
479.08	7042.67
479.26	7178.42
479.44	7363.33
479.62	7246.30
479.80	7438.22
479.98	7396.09
480.16	7456.95
480.34	7583.34
480.52	7503.76
480.70	7543.55
480.88	7571.63
481.06	7719.09
481.24	7707.38
481.41	7772.92
481.59	7805.69
481.77	7974.21
481.95	7812.71
482.13	8102.93
482.31	7964.84
482.49	8493.80
482.67	8149.75
482.85	8430.61
483.03	8269.11
483.21	8351.03
483.39	8503.17
483.57	8393.16
483.74	8404.86
483.92	8718.50
484.10	8603.81
484.28	8760.63
484.46	8854.25
484.64	9207.67
484.82	8922.12
485.00	9156.18
485.18	9287.25
485.35	9266.18
485.53	9324.69
485.71	9650.03
485.89	9518.96
486.07	9523.64
486.25	9427.68
486.43	9401.93
486.61	9554.07
486.78	9944.94
486.96	9891.10
487.14	9874.72
487.32	10085.37
487.50	9832.59
487.68	10176.65
487.85	10181.33
488.03	10401.34
488.21	10518.37
488.39	10415.38
488.57	10363.89
488.75	10651.78
488.92	10689.23
489.10	10937.32
489.28	11023.92
489.46	11047.33
489.64	10939.66
489.81	11218.19
489.99	11328.19
490.17	11080.10
490.35	11496.71
490.53	11365.64
490.70	11573.95
490.88	11564.59
491.06	11672.25
491.24	11728.42
491.41	11775.24
491.59	11978.86
491.77	11719.06
491.95	11934.39
492.13	12152.06
492.30	12243.34
492.48	12351.01
492.66	12100.57
492.84	12334.62
493.01	12507.82
493.19	12205.89
493.37	12402.50
493.54	12765.28
493.72	12851.88
493.90	12861.24
494.08	12650.60
494.25	13090.62
494.43	13088.28
494.61	12982.95
494.79	13200.62
494.96	13453.40
495.14	13521.27
495.32	13729.58
495.49	13689.79
495.67	13535.32
495.85	13891.08
496.02	13851.29
496.20	13980.02
496.38	13694.47
496.55	13785.76
496.73	14157.90
496.91	13788.10
497.09	14099.39
497.26	13919.17
497.44	14331.10
497.62	14036.19
497.79	14630.69
497.97	14469.19
498.14	14626.01
498.32	14656.43
498.50	14684.52
498.67	14686.86
498.85	14874.10
499.03	14885.81
499.20	14808.57
499.38	15073.05
499.56	15112.84
499.73	15126.88
499.91	15435.83
500.08	15499.03
500.26	15140.93
500.44	15543.50
500.61	15330.51
500.79	15281.36
500.97	15587.97
501.14	15866.49
501.32	15632.44
501.49	15604.35
501.67	15587.97
501.84	15791.59
502.02	15798.62
502.20	15824.36
502.37	16140.33
502.55	16102.89
502.72	16079.48
502.90	16114.59
503.07	15920.32
503.25	16077.14
503.43	16231.62
503.60	16524.18
503.78	16233.96
503.95	16444.60
504.13	16273.74
504.30	16505.46
504.48	16620.14
504.65	16940.80
504.83	17078.89
505.01	17071.87
505.18	16992.29
505.36	17020.38
505.53	17041.44
505.71	16781.64
505.88	16929.09
506.06	17055.48
506.23	17348.05
506.41	17324.65
506.58	17465.08
506.76	16898.67
506.93	17242.73
507.11	17273.15
507.28	17535.29
507.46	17394.86
507.63	17462.74
507.81	17839.56
507.98	17301.24
508.16	17729.56
508.33	17769.35
508.50	17724.88
508.68	18010.42
508.85	17837.22
509.03	17996.38
509.20	17872.33
509.38	18211.71
509.55	18061.91
509.73	18164.90
509.90	18335.76
510.08	18256.18
510.25	18164.90
510.42	18256.18
510.60	18724.29
510.77	18691.52
510.95	18642.37
511.12	18553.43
511.30	18560.45
511.47	18361.50
511.64	18963.02
511.82	18965.36
511.99	18806.20
512.17	19105.79
512.34	18930.25
512.51	19136.22
512.69	19201.76
512.86	18946.64
513.04	19676.88
513.21	19161.97
513.38	19185.37
513.56	19604.33
513.73	19396.02
513.90	19335.17
514.08	19487.30
514.25	19557.52
514.43	19618.37
514.60	19690.93
514.77	19573.90
514.95	20081.80
515.12	19470.92
515.29	19529.43
515.47	20067.75
515.64	20081.80
515.81	19836.04
515.99	19920.30
516.16	20013.92
516.33	20376.70
516.51	20336.91
516.68	20070.09
516.85	20077.12
517.03	20313.51
517.20	20414.15
517.37	20243.29
517.54	20545.22
517.72	20259.68
517.89	20299.47
518.06	20563.95
518.24	20369.68
518.41	20451.60
518.58	20585.01
518.75	20753.53
518.93	20994.61
519.10	20692.68
519.27	20847.15
519.45	20816.72
519.62	21027.37
519.79	20666.93
519.96	21308.24
520.14	20725.44
520.31	20879.92
520.48	21273.13
520.65	21041.42
520.83	21167.80
521.00	21308.24
521.17	21329.30
521.34	21118.65
521.52	21305.90
521.69	21383.13
521.86	21610.17
522.03	21493.14
522.20	21919.12
522.38	21766.98
522.55	21720.17
522.72	21420.58
522.89	21867.63
523.07	21710.81
523.24	21977.63
523.41	21577.40
523.58	22010.40
523.75	21841.88
523.92	21902.73
524.10	21886.35
524.27	22338.07
524.44	22101.68
524.61	22506.59
524.78	22321.69
524.96	22216.36
525.13	22216.36
525.30	22335.73
525.47	22127.42
525.64	22686.81
525.81	22843.63
525.98	22579.15
526.16	22169.55
526.33	22623.62
526.50	23030.87
526.67	22569.79
526.84	22745.33
527.01	22691.49
527.18	22590.85
527.36	22941.93
527.53	22750.01
527.70	23274.29
527.87	23271.95
528.04	23002.78
528.21	22934.91
528.38	22960.66
528.55	23302.37
528.72	23234.50
528.89	23260.24
529.07	23171.30
529.24	23433.44
529.41	23482.59
529.58	23016.83
529.75	23412.38
529.92	23360.89
530.09	23496.64
530.26	23807.93
530.43	23534.09
530.60	23421.74
530.77	23335.14
530.94	23424.08
531.11	23573.88
531.28	23576.22
531.46	23365.57
531.63	23548.13
531.80	23880.49
531.97	23924.96
532.14	24137.94
532.31	24116.88
532.48	23878.15
532.65	23969.43
532.82	23784.52
532.99	23997.51
533.16	24023.26
533.33	24060.71
533.50	24142.63
533.67	24259.65
533.84	24189.44
534.01	24013.90
534.18	23967.09
534.35	24659.88
534.52	24226.89
534.69	24449.24
534.86	24395.40
535.03	24393.06
535.20	24489.03
535.37	24465.62
535.54	24947.77
535.71	24329.87
535.88	24643.50
536.05	24428.17
536.22	24840.11
536.38	25008.62
536.55	24533.50
536.72	24664.57
536.89	24629.46
537.06	24613.07
537.23	24961.81
537.40	25041.39
537.57	25090.54
537.74	25240.34
537.91	25596.10
538.08	25165.44
538.25	24975.86
538.42	25158.42
538.59	24882.24
538.75	25008.62
538.92	24816.70
539.09	25174.80
539.26	25256.72
539.43	25172.46
539.60	25041.39
539.77	25219.27
539.94	25532.90
540.11	25465.03
540.28	25193.53
540.44	25282.47
540.61	25338.64
540.78	25153.74
540.95	25472.05
541.12	25420.56
541.29	25647.59
541.46	25240.34
541.62	25357.36
541.79	25319.92
541.96	25338.64
542.13	25476.73
542.30	25369.07
542.47	26164.85
542.63	25916.75
542.80	26232.72
542.97	25921.43
543.14	26031.44
543.31	25795.04
543.48	26015.05
543.64	26251.45
543.81	26396.56
543.98	26553.38
544.15	26426.99
544.32	26242.09
544.48	26590.83
544.65	26101.65
544.82	26558.06
544.99	26162.51
545.16	26466.78
545.32	26277.19
545.49	26747.64
545.66	26333.37
545.83	26923.18
546.00	26843.60
546.16	26703.17
546.33	26436.35
546.50	25991.65
546.67	26815.52
546.83	26539.33
547.00	26700.83
547.17	26883.39
547.34	26649.34
547.50	27023.83
547.67	27192.34
547.84	26909.14
548.00	27175.96
548.17	27126.81
548.34	26801.47
548.51	26977.01
548.67	27080.00
548.84	26719.56
549.01	26824.88
549.18	27175.96
549.34	27016.80
549.51	26679.77
549.68	26960.63
549.84	27000.42
550.01	27255.54
550.18	27253.20
550.34	27491.93
550.51	27356.18
550.68	27452.14
550.84	27080.00
551.01	27225.11
551.18	27157.24
551.34	27056.59
551.51	27227.45
551.68	27314.05
551.84	27487.25
552.01	27321.07
552.18	27798.54
552.34	27517.68
552.51	27164.26
552.68	27337.46
552.84	27124.47
553.01	27529.38
553.18	27454.48
553.34	27627.68
553.51	27744.71
553.67	27679.18
553.84	27875.78
554.01	27749.39
554.17	27763.43
554.34	27468.53
554.51	27821.95
554.67	28053.66
554.84	27714.28
555.00	27948.34
555.17	28102.81
555.33	27892.16
555.50	27587.89
555.67	28067.70
555.83	28102.81
556.00	27929.61
556.16	27676.83
556.33	28109.83
556.50	27810.25
556.66	28217.50
556.83	28182.39
556.99	28549.85
557.16	28954.77
557.32	28381.34
557.49	28360.27
557.65	27880.46
557.82	27920.25
557.98	27880.46
558.15	27672.15
558.32	28580.28
558.48	28147.28
558.65	28404.74
558.81	28060.68
558.98	28634.11
559.14	28210.48
559.31	28465.60
559.47	28154.30
559.64	28341.55
559.80	28727.74
559.97	28762.84
560.13	28362.61
560.30	28622.41
560.46	28313.46
560.63	28194.09
560.79	28360.27
560.96	28545.17
561.12	28400.06
561.29	28727.74
561.45	28517.09
561.61	28521.77
561.78	28610.71
561.94	28788.59
562.11	28844.76
562.27	28711.35
562.44	28287.71
562.60	28996.90
562.77	29022.64
562.93	28547.51
563.10	28802.63
563.26	28460.91
563.42	29071.79
563.59	28912.64
563.75	28514.75
563.92	28938.38
564.08	28840.08
564.24	28872.85
564.41	28624.75
564.57	28580.28
564.74	28243.24
564.90	28624.75
565.07	28554.54
565.23	29149.03
565.39	29055.41
565.56	28844.76
565.72	28842.42
565.88	29163.08
566.05	29191.16
566.21	29008.60
566.38	28858.81
566.54	29067.11
566.70	29310.53
566.87	29411.17
567.03	29212.23
567.19	29130.31
567.36	29062.43
567.52	28975.83
567.68	28893.91
567.85	29165.42
568.01	29355.00
568.17	29170.10
568.34	29060.09
568.50	29015.62
568.66	29132.65
568.83	29273.08
568.99	29167.76
569.15	28978.17
569.32	29090.52
569.48	28762.84
569.64	29170.10
569.81	29149.03
569.97	29310.53
570.13	29462.66
570.30	29291.80
570.46	29069.45
570.62	29441.60
570.78	29013.28
570.95	28856.46
571.11	29362.02
571.27	28788.59
571.43	28804.97
571.60	28830.72
571.76	29497.77
571.92	29502.45
572.09	29294.14
572.25	29125.63
572.41	29518.84
572.57	29177.12
572.74	29474.37
572.90	29336.27
573.06	29521.18
573.22	29151.37
573.38	29420.53
573.55	29097.54
573.71	29500.11
573.87	29631.18
574.03	29376.06
574.20	29544.58
574.36	29455.64
574.52	29195.84
574.68	29153.71
574.84	29256.70
575.01	29387.77
575.17	29539.90
575.33	29553.94
575.49	29689.70
575.65	29832.47
575.82	29443.94
575.98	29457.98
576.14	29448.62
576.30	29411.17
576.46	29008.60
576.62	29495.43
576.79	29584.37
576.95	29488.41
577.11	29380.74
577.27	29638.20
577.43	29371.38
577.59	29619.48
577.75	29123.29
577.92	29184.14
578.08	29439.26
578.24	29167.76
578.40	29041.37
578.56	29474.37
578.72	29696.72
578.88	29883.96
579.04	30008.01
579.21	29511.81
579.37	29516.50
579.53	29528.20
579.69	29202.86
579.85	29390.11
580.01	29652.25
580.17	29532.88
580.33	29610.12
580.49	29509.47
580.65	29514.16
580.82	29570.33
580.98	29818.42
581.14	29525.86
581.30	29441.60
581.46	29237.97
581.62	29443.94
581.78	29137.33
581.94	29970.56
582.10	29453.30
582.26	29481.39
582.42	29490.75
582.58	29813.74
582.74	29647.57
582.90	29476.71
583.06	30136.74
583.22	29584.37
583.38	29638.20
583.54	29469.69
583.70	29483.73
583.86	29287.12
584.02	29469.69
584.18	29923.75
584.34	29635.86
584.50	29968.22
584.66	29926.09
584.82	29802.04
584.98	29820.77
585.14	29394.79
585.30	29488.41
585.46	29677.99
585.62	29392.45
585.78	29741.19
585.94	29336.27
586.10	29465.00
586.26	29837.15
586.42	29848.85
586.58	29905.02
586.74	29848.85
586.90	29518.84
587.06	29537.56
587.22	29589.05
587.38	29546.92
587.54	29839.49
587.70	30087.59
587.86	29888.64
588.02	29818.42
588.18	29799.70
588.34	29874.60
588.49	30237.38
588.65	29694.38
588.81	29516.50
588.97	29589.05
589.13	29898.00
589.29	29553.94
589.45	29940.13
589.61	29855.87
589.77	30246.74
589.93	30125.04
590.08	30485.48
590.24	30295.89
590.40	29670.97
590.56	30246.74
590.72	30270.15
590.88	29773.95
591.04	30012.69
591.20	29902.68
591.35	30356.75
591.51	30469.09
591.67	30455.05
591.83	30309.94
591.99	30204.61
592.15	30146.10
592.31	30281.85
592.46	30008.01
592.62	30155.46
592.78	29525.86
592.94	29951.84
593.10	30209.29
593.26	30075.88
593.41	30293.55
593.57	30115.67
593.73	29834.81
593.89	30555.69
594.05	30169.51
594.20	29900.34
594.36	29916.73
594.52	29900.34
594.68	29722.46
594.84	29879.28
594.99	30293.55
595.15	29902.68
595.31	30092.27
595.47	30260.79
595.62	30466.75
595.78	30302.92
595.94	30382.49
596.10	30008.01
596.25	30031.41
596.41	30122.69
596.57	29724.80
596.73	29958.86
596.88	30167.16
597.04	30110.99
597.20	30611.87
597.36	30103.97
597.51	30312.28
597.67	29898.00
597.83	30602.50
597.99	30249.08
598.14	30209.29
598.30	30132.06
598.46	30506.54
598.61	30066.52
598.77	30134.40
598.93	30251.42
599.09	30150.78
599.24	30719.53
599.40	30384.83
599.56	30506.54
599.71	29968.22
599.87	30354.41
600.03	30113.33
600.18	30574.42
600.34	30087.59
600.50	30251.42
600.65	29984.60
600.81	30541.65
600.97	30625.91
601.12	30614.21
601.28	30223.34
601.44	30419.94
601.59	30469.09
601.75	30118.01
601.91	30398.88
602.06	30136.74
602.22	30206.95
602.37	30096.95
602.53	30122.69
602.69	30036.09
602.84	30108.65
603.00	30150.78
603.16	30438.67
603.31	30185.89
603.47	30281.85
603.62	30050.14
603.78	30239.72
603.94	30115.67
604.09	30340.36
604.25	29951.84
604.40	30000.99
604.56	30110.99
604.71	30450.37
604.87	30178.87
605.03	30251.42
605.18	30298.23
605.34	30122.69
605.49	29699.06
605.65	30338.02
605.80	29963.54
605.96	30022.05
606.12	30150.78
606.27	30038.44
606.43	30389.52
606.58	30136.74
606.74	30483.14
606.89	30363.77
607.05	30022.05
607.20	30221.00
607.36	30108.65
607.51	30569.74
607.67	29631.18
607.82	29965.88
607.98	30305.26
608.13	30424.62
608.29	30150.78
608.44	29797.36
608.60	29940.13
608.75	30288.87
608.91	30155.46
609.06	29947.15
609.22	29790.34
609.37	29790.34
609.53	29607.78
609.68	30012.69
609.84	29673.31
609.99	29717.78
610.15	29886.30
610.30	30082.91
610.46	29776.30
610.61	30232.70
610.76	30115.67
610.92	30221.00
611.07	29968.22
611.23	29867.58
611.38	29977.58
611.54	29926.09
611.69	29652.25
611.84	29530.54
612.00	29909.71
612.15	29914.39
612.31	29921.41
612.46	29500.11
612.62	29675.65
612.77	30082.91
612.92	29954.18
613.08	29649.91
613.23	29872.26
613.39	29689.70
613.54	29560.97
613.69	29680.33
613.85	29745.87
614.00	29476.71
614.15	29500.11
614.31	29244.99
614.46	29869.92
614.62	29631.18
614.77	29923.75
614.92	29638.20
615.08	29584.37
615.23	29631.18
615.38	29579.69
615.54	29165.42
615.69	29352.66
615.84	29443.94
616.00	29202.86
616.15	29181.80
616.30	29523.52
616.46	29376.06
616.61	29457.98
616.76	29750.55
616.92	29263.72
617.07	29633.52
617.22	29170.10
617.37	29289.46
617.53	29256.70
617.68	29422.87
617.83	29083.50
617.99	28926.68
618.14	28985.19
618.29	29209.89
618.45	29076.48
618.60	29041.37
618.75	29097.54
618.90	29315.21
619.06	29174.78
619.21	29015.62
619.36	29153.71
619.51	29048.39
619.67	28800.29
619.82	28746.46
619.97	28886.89
620.12	28849.44
620.28	29041.37
620.43	28879.87
620.58	29156.05
620.73	29008.60
620.89	29280.10
621.04	29130.31
621.19	29158.39
621.34	28861.15
621.49	29036.69
621.65	28936.04
621.80	29074.13
621.95	28858.81
622.10	29050.73
622.25	28898.59
622.41	28910.30
622.56	28713.69
622.71	29476.71
622.86	28746.46
623.01	28858.81
623.16	28514.75
623.32	28847.10
623.47	28732.42
623.62	28484.32
623.77	28819.02
623.92	28861.15
624.07	28954.77
624.23	28470.28
624.38	28669.22
624.53	28620.07
624.68	28739.44
624.83	28774.55
624.98	28765.18
625.13	28624.75
625.29	28882.21
625.44	28645.82
625.59	28435.17
625.74	28016.21
625.89	28383.68
626.04	28341.55
626.19	28561.56
626.34	28486.66
626.49	28252.61
626.65	28451.55
626.80	28772.21
626.95	28402.40
627.10	28472.62
627.25	28304.10
627.40	28203.46
627.55	28290.06
627.70	27828.97
627.85	27812.59
628.00	27999.83
628.15	27882.80
628.30	28219.84
628.45	28156.64
628.60	28130.90
628.76	28046.64
628.91	28264.31
629.06	27941.32
629.21	28439.85
629.36	28011.53
629.51	28070.04
629.66	28088.77
629.81	27709.60
629.96	27714.28
630.11	27948.34
630.26	27615.98
630.41	27513.00
630.56	27737.69
630.71	27711.94
630.86	27782.16
631.01	27969.40
631.16	28039.62
631.31	27852.38
631.46	27704.92
631.61	27948.34
631.76	27885.14
631.91	27999.83
632.06	27498.95
632.21	27491.93
632.36	27838.33
632.51	27360.86
632.66	28023.23
632.81	27335.12
632.96	27653.43
633.10	27927.27
633.25	27967.06
633.40	27620.66
633.55	27761.09
633.70	27452.14
633.85	27845.35
634.00	27253.20
634.15	27714.28
634.30	27288.31
634.45	27360.86
634.60	27190.00
634.75	27424.06
634.90	27410.01
635.05	27538.74
635.19	27101.06
635.34	27777.48
635.49	27267.24
635.64	27431.08
635.79	27864.08
635.94	27115.11
636.09	27625.34
636.24	27255.54
636.39	27140.85
636.53	27199.37
636.68	27131.49
636.83	27232.13
636.98	27140.85
637.13	27297.67
637.28	27384.27
637.43	27175.96
637.57	27470.87
637.72	27337.46
637.87	27150.21
638.02	27119.79
638.17	27161.92
638.32	27047.23
638.46	26738.28
638.61	26757.00
638.76	26855.31
638.91	26611.89
639.06	27000.42
639.20	26838.92
639.35	27084.68
639.50	27005.10
639.65	27115.11
639.80	27094.04
639.94	27143.19
640.09	27061.27
640.24	26878.71
640.39	26651.68
640.54	26590.83
640.68	26927.86
640.83	26621.25
640.98	26728.92
641.13	26438.69
641.27	26417.63
641.42	26663.38
641.57	26815.52
641.72	26644.66
641.86	26558.06
642.01	26391.88
642.16	26616.57
642.31	26483.16
642.45	26707.85
642.60	26408.26
642.75	26319.32
642.90	26405.92
643.04	26478.48
643.19	26478.48
643.34	26242.09
643.48	26199.96
643.63	26363.79
643.78	26242.09
643.93	26382.52
644.07	26700.83
644.22	26309.96
644.37	26462.10
644.51	26197.62
644.66	26686.79
644.81	25991.65
644.95	26127.40
645.10	26342.73
645.25	25867.60
645.39	26347.41
645.54	26043.14
645.69	25766.96
645.83	26080.59
645.98	26366.13
646.13	26253.79
646.27	26260.81
646.42	26410.60
646.57	26216.34
646.71	26485.50
646.86	25905.05
647.00	25937.82
647.15	26197.62
647.30	25883.98
647.44	25308.21
647.59	25867.60
647.74	25933.14
647.88	26103.99
648.03	26211.66
648.17	26293.58
648.32	26246.77
648.47	25949.52
648.61	26019.74
648.76	25891.01
648.90	25891.01
649.05	25979.95
649.20	25949.52
649.34	25738.87
649.49	25809.09
649.63	25724.83
649.78	25720.15
649.92	25715.47
650.07	25827.81
650.21	25486.09
650.36	25755.26
650.51	25455.67
650.65	25935.48
650.80	25710.78
650.94	25977.61
651.09	25582.06
651.23	25511.84
651.38	25350.34
651.52	25701.42
651.67	25422.90
651.81	25486.09
651.96	25558.65
652.10	25568.01
652.25	25514.18
652.39	25649.93
652.54	25668.66
652.68	25422.90
652.83	25528.22
652.97	25565.67
653.12	25331.62
653.26	25268.42
653.41	25570.35
653.55	25355.02
653.70	25387.79
653.84	25046.07
653.99	25188.85
654.13	25493.12
654.27	25027.35
654.42	24931.39
654.56	25411.20
654.71	25247.36
654.85	25329.28
655.00	25256.72
655.14	25010.96
655.29	24868.19
655.43	25415.88
655.57	24915.00
655.72	24671.59
655.86	24994.58
656.01	24875.21
656.15	24938.41
656.30	25188.85
656.44	24889.26
656.58	24697.33
656.73	24929.05
656.87	24994.58
657.01	25230.98
657.16	25177.14
657.30	24964.15
657.45	25064.80
657.59	25219.27
657.73	24540.52
657.88	24594.35
658.02	24690.31
658.16	24713.72
658.31	24767.55
658.45	24489.03
658.60	24533.50
658.74	24493.71
658.88	24517.11
659.03	24505.41
659.17	24709.04
659.31	24748.82
659.46	24606.05
659.60	24664.57
659.74	24685.63
659.89	24594.35
660.03	24250.29
660.17	24348.59
660.32	24180.07
660.46	24357.96
660.60	23793.89
660.74	24226.89
660.89	24264.33
661.03	23948.36
661.17	24046.66
661.32	24191.78
661.46	24247.95
661.60	24271.36
661.74	24041.98
661.89	24105.18
662.03	24208.16
662.17	23812.61
662.31	23768.14
662.46	24056.03
662.60	23859.42
662.74	23800.91
662.88	23985.81
663.03	23468.55
663.17	23779.84
663.31	23466.21
663.45	23477.91
663.60	23608.98
663.74	23501.32
663.88	23414.72
664.02	23655.79
664.17	23807.93
664.31	23363.23
664.45	23550.47
664.59	23569.19
664.73	23711.97
664.88	23419.40
665.02	23281.31
665.16	23115.13
665.30	23386.63
665.44	23194.71
665.59	22761.71
665.73	22906.82
665.87	23152.58
666.01	22958.31
666.15	23133.86
666.29	23183.01
666.44	23117.47
666.58	23035.55
666.72	22780.43
666.86	22927.89
667.00	23117.47
667.14	22827.24
667.28	22693.83
667.43	22862.35
667.57	22780.43
667.71	22714.90
667.85	22494.89
667.99	22253.81
668.13	22682.13
668.27	22885.76
668.41	22834.27
668.56	22356.80
668.70	22478.50
668.84	22551.06
668.98	22647.02
669.12	22621.28
669.26	22553.40
669.40	22530.00
669.54	22555.74
669.68	22366.16
669.82	22246.79
669.96	22036.14
670.10	22017.42
670.25	22298.28
670.39	22143.81
670.53	21701.45
670.67	22082.95
670.81	22258.49
670.95	22235.09
671.09	22075.93
671.23	22054.87
671.37	21706.13
671.51	22052.53
671.65	21933.16
671.79	21565.70
671.93	21783.37
672.07	21699.11
672.21	21586.76
672.35	21532.93
672.49	21762.30
672.63	21451.01
672.77	21652.30
672.91	20936.09
673.05	21535.27
673.19	21296.53
673.33	21380.79
673.47	21331.64
673.61	21352.71
673.75	21315.26
673.89	21301.22
674.03	21247.38
674.17	21179.51
674.31	21289.51
674.45	20893.96
674.59	21111.63
674.73	21025.03
674.87	20879.92
675.01	20917.37
675.15	20594.37
675.29	20592.03
675.43	20634.16
675.56	20697.36
675.70	20505.43
675.84	20423.51
675.98	20194.14
676.12	20697.36
676.26	20470.33
676.40	20559.27
676.54	20498.41
676.68	20269.04
676.82	19885.19
676.96	20088.82
677.10	19836.04
677.23	19910.94
677.37	19789.23
677.51	19903.92
677.65	19768.16
677.79	19585.60
677.93	19459.21
678.07	19459.21
678.21	19686.25
678.34	19702.63
678.48	19286.01
678.62	19606.67
678.76	19286.01
678.90	19300.06
679.04	19274.31
679.18	19452.19
679.31	19096.43
679.45	19129.20
679.59	18871.74
679.73	18948.98
679.87	18602.58
680.00	18801.52
680.14	18895.14
680.28	18927.91
680.42	18600.24
680.56	18604.92
680.70	18586.19
680.83	18651.73
680.97	18794.50
681.11	18621.30
681.25	18574.49
681.39	18230.43
681.52	18436.40
681.66	18427.04
681.80	18349.80
681.94	18057.23
682.07	18118.09
682.21	18256.18
682.35	18136.81
682.49	17806.80
682.62	17994.04
682.76	17977.65
682.90	17657.00
683.04	17788.07
683.17	17841.90
683.31	17872.33
683.45	17825.52
683.59	17631.26
683.72	17593.81
683.86	17755.30
684.00	17628.92
684.13	17603.17
684.27	17123.36
684.41	17097.61
684.55	17287.20
684.68	17006.33
684.82	16783.98
684.96	16889.31
685.09	17003.99
685.23	16802.71
685.37	16788.66
685.50	16842.50
685.64	17057.82
685.78	16833.13
685.91	16781.64
686.05	16772.28
686.19	16643.55
686.32	16666.95
686.46	16465.67
686.60	16369.71
686.73	16453.97
686.87	16252.68
687.01	16154.38
687.14	16107.57
687.28	16058.42
687.42	15974.16
687.55	15782.23
687.69	15800.96
687.82	16086.50
687.96	16077.14
688.10	16130.97
688.23	15686.27
688.37	15866.49
688.50	15908.62
688.64	15737.76
688.78	15475.62
688.91	15424.13
689.05	15452.22
689.18	15604.35
689.32	15173.69
689.46	15199.44
689.59	15112.84
689.73	15267.31
689.86	15005.17
690.00	15028.58
690.13	15119.86
690.27	15110.50
690.41	14841.34
690.54	15091.77
690.68	14930.28
690.81	15002.83
690.95	14932.62
691.08	15087.09
691.22	14747.72
691.35	14794.53
691.49	15002.83
691.62	14862.40
691.76	14321.74
691.89	14317.06
692.03	13954.27
692.16	14235.14
692.30	14286.63
692.43	14211.73
692.57	14132.15
692.70	14059.60
692.84	14190.67
692.97	13720.22
693.11	13816.18
693.24	13970.66
693.38	13907.46
693.51	13923.85
693.65	13804.48
693.78	13654.69
693.92	13685.11
694.05	13661.71
694.19	13586.81
694.32	13437.02
694.45	13366.80
694.59	13507.23
694.72	13511.91
694.86	13163.17
694.99	12912.74
695.13	13107.00
695.26	12933.80
695.39	13034.44
695.53	12945.50
695.66	13233.39
695.80	12835.50
695.93	13146.79
696.07	12723.15
696.20	12753.58
696.33	12929.12
696.47	12517.18
696.60	12503.14
696.73	12613.15
696.87	12428.24
697.00	12428.24
697.14	12386.12
697.27	12299.52
697.40	12107.59
697.54	12236.32
697.67	12152.06
697.80	12011.63
697.94	12025.67
698.07	11808.00
698.21	11971.84
698.34	11964.82
698.47	12194.19
698.61	11822.05
698.74	11936.73
698.87	11843.11
699.01	11669.91
699.14	11520.12
699.27	11503.73
699.40	11686.29
699.54	11524.80
699.67	11435.86
699.80	11700.34
699.94	11473.31
700.07	11367.98
700.20	11344.58
700.34	11140.95
700.47	11087.12
700.60	11239.25
700.73	11115.20
700.87	11208.83
701.00	11098.82
701.13	11087.12
701.26	11246.27
701.40	10942.00
701.53	10977.11
701.66	10956.05
701.79	10752.42
701.93	10597.95
702.06	10597.95
702.19	10429.43
702.32	10740.72
702.46	10520.71
702.59	10518.37
702.72	10214.10
702.85	10408.36
702.99	10134.52
703.12	10258.57
703.25	10087.71
703.38	10057.28
703.51	10181.33
703.65	10300.70
703.78	10015.15
703.91	10001.11
704.04	10045.58
704.17	10134.52
704.31	9874.72
704.44	9994.09
704.57	9708.54
704.70	9626.62
704.83	9685.14
704.96	9699.18
705.10	9568.11
705.23	9528.32
>>>>>End Processed Spectral Data<<<<<
