SpectraSuite Data File
++++++++++++++++++++++++++++++++++++
Date: Fri Oct 18 13:58:25 GMT-05:00 2013
User: bianchi
Dark Spectrum Present: No
Reference Spectrum Present: No
Number of Sampled Component Spectra: 1
Spectrometers: USB2+H05261
Integration Time (usec): 50000 (USB2+H05261)
Spectra Averaged: 1 (USB2+H05261)
Boxcar Smoothing: 0 (USB2+H05261)
Correct for Electrical Dark: No (USB2+H05261)
Strobe/Lamp Enabled: No (USB2+H05261)
Correct for Detector Non-linearity: No (USB2+H05261)
Correct for Stray Light: No (USB2+H05261)
Number of Pixels in Processed Spectrum: 2048
>>>>>Begin Processed Spectral Data<<<<<
365.73	0.00
365.92	0.00
366.12	0.00
366.32	0.00
366.52	0.00
366.72	0.00
366.91	0.00
367.11	0.00
367.31	0.00
367.51	0.00
367.70	0.00
367.90	0.00
368.10	0.00
368.30	0.00
368.49	0.00
368.69	0.00
368.89	0.00
369.09	0.00
369.28	0.00
369.48	0.00
369.68	0.00
369.87	0.00
370.07	0.00
370.27	0.00
370.47	0.00
370.66	49.15
370.86	11.70
371.06	163.84
371.25	163.84
371.45	187.24
371.65	173.20
371.84	145.11
372.04	161.50
372.24	168.52
372.44	140.43
372.63	241.08
372.83	187.24
373.03	189.58
373.22	191.92
373.42	222.35
373.62	184.90
373.81	299.59
374.01	203.63
374.21	234.05
374.40	229.37
374.60	222.35
374.79	229.37
374.99	255.12
375.19	250.44
375.38	191.92
375.58	215.33
375.78	271.50
375.97	348.74
376.17	257.46
376.37	290.23
376.56	252.78
376.76	245.76
376.95	269.16
377.15	257.46
377.35	287.89
377.54	248.10
377.74	248.10
377.93	269.16
378.13	234.05
378.33	315.97
378.52	287.89
378.72	276.18
378.91	210.65
379.11	280.86
379.31	315.97
379.50	283.20
379.70	224.69
379.89	362.78
380.09	383.85
380.28	301.93
380.48	287.89
380.68	252.78
380.87	259.80
381.07	273.84
381.26	444.70
381.46	379.17
381.65	311.29
381.85	344.06
382.04	337.04
382.24	287.89
382.43	285.55
382.63	276.18
382.83	315.97
383.02	339.38
383.22	339.38
383.41	393.21
383.61	365.12
383.80	374.49
384.00	397.89
384.19	351.08
384.39	402.57
384.58	386.19
384.78	360.44
384.97	416.62
385.17	404.91
385.36	290.23
385.56	311.29
385.75	390.87
385.95	365.12
386.14	397.89
386.34	418.96
386.53	440.02
386.72	369.80
386.92	386.19
387.11	433.00
387.31	468.11
387.50	402.57
387.70	442.36
387.89	470.45
388.09	416.62
388.28	425.98
388.48	433.00
388.67	493.85
388.86	486.83
389.06	433.00
389.25	404.91
389.45	369.80
389.64	367.46
389.84	390.87
390.03	442.36
390.22	409.59
390.42	491.51
390.61	493.85
390.81	545.34
391.00	519.60
391.19	528.96
391.39	533.64
391.58	477.47
391.78	503.22
391.97	559.39
392.16	505.56
392.36	535.98
392.55	578.11
392.75	547.69
392.94	496.19
393.13	526.62
393.33	615.56
393.52	505.56
393.71	566.41
393.91	559.39
394.10	528.96
394.29	540.66
394.49	554.71
394.68	610.88
394.88	594.50
395.07	636.63
395.26	650.67
395.46	636.63
395.65	608.54
395.84	596.84
396.04	578.11
396.23	617.90
396.42	713.86
396.62	592.16
396.81	629.60
397.00	653.01
397.19	706.84
397.39	695.14
397.58	692.80
397.77	709.18
397.97	634.29
398.16	767.70
398.35	671.73
398.55	727.91
398.74	704.50
398.93	704.50
399.12	704.50
399.32	737.27
399.51	739.61
399.70	676.41
399.90	690.46
400.09	788.76
400.28	791.10
400.47	695.14
400.67	800.46
400.86	807.48
401.05	760.67
401.24	748.97
401.44	767.70
401.63	805.14
401.82	858.98
402.01	805.14
402.21	774.72
402.40	880.04
402.59	758.33
402.78	770.04
402.97	901.11
403.17	751.31
403.36	873.02
403.55	933.87
403.74	931.53
403.93	809.83
404.13	823.87
404.32	938.55
404.51	903.45
404.70	889.40
404.89	868.34
405.09	978.34
405.28	922.17
405.47	880.04
405.66	940.90
405.85	968.98
406.05	990.05
406.24	980.68
406.43	1001.75
406.62	959.62
406.81	1050.90
407.00	1078.99
407.20	1013.45
407.39	961.96
407.58	1053.24
407.77	1029.84
407.96	1081.33
408.15	1128.14
408.34	1067.28
408.54	1104.73
408.73	1090.69
408.92	1088.35
409.11	1050.90
409.30	1083.67
409.49	1172.61
409.68	1165.59
409.87	1160.91
410.07	1214.74
410.26	1170.27
410.45	1193.67
410.64	1252.19
410.83	1203.04
411.02	1107.07
411.21	1210.06
411.40	1177.29
411.59	1205.38
411.78	1221.76
411.98	1254.53
412.17	1308.36
412.36	1364.53
412.55	1275.59
412.74	1348.15
412.93	1315.38
413.12	1320.06
413.31	1481.56
413.50	1369.21
413.69	1369.21
413.88	1409.00
414.07	1390.28
414.26	1507.30
414.45	1404.32
414.64	1406.66
414.83	1500.28
415.02	1481.56
415.22	1519.01
415.41	1547.09
415.60	1467.52
415.79	1558.80
415.98	1570.50
416.17	1607.95
416.36	1596.25
416.55	1760.08
416.74	1638.38
416.93	1514.33
417.12	1589.22
417.31	1675.82
417.50	1614.97
417.69	1743.70
417.88	1785.83
418.07	1696.89
418.26	1694.55
418.45	1696.89
418.64	1764.76
418.83	1685.19
419.02	1762.42
419.21	1722.63
419.39	1687.53
419.58	1760.08
419.77	1842.00
419.96	1804.55
420.15	1849.02
420.34	1900.52
420.53	1811.57
420.72	1739.02
420.91	1884.13
421.10	1956.69
421.29	1966.05
421.48	1797.53
421.67	2001.16
421.86	1956.69
422.05	1994.14
422.24	1944.99
422.43	1970.73
422.61	2024.56
422.80	2043.29
422.99	1872.43
423.18	2012.86
423.37	2012.86
423.56	2029.24
423.75	1937.96
423.94	2029.24
424.13	1888.81
424.32	1923.92
424.50	2033.93
424.69	1998.82
424.88	2106.48
425.07	1975.41
425.26	2045.63
425.45	2062.01
425.64	1923.92
425.83	1980.09
426.01	2157.97
426.20	2087.76
426.39	2031.58
426.58	2022.22
426.77	1973.07
426.96	2108.82
427.15	2115.84
427.33	2120.53
427.52	2118.18
427.71	2193.08
427.90	2090.10
428.09	2157.97
428.28	2047.97
428.46	2057.33
428.65	2169.68
428.84	2183.72
429.03	2321.81
429.22	2253.94
429.40	2300.75
429.59	2209.47
429.78	2108.82
429.97	2169.68
430.16	2165.00
430.34	2312.45
430.53	2258.62
430.72	2279.68
430.91	2305.43
431.10	2249.25
431.28	2363.94
431.47	2450.54
431.66	2431.82
431.85	2436.50
432.03	2455.22
432.22	2537.14
432.41	2377.98
432.60	2457.56
432.79	2373.30
432.97	2438.84
433.16	2410.75
433.35	2452.88
433.54	2513.74
433.72	2605.02
433.91	2417.77
434.10	2431.82
434.28	2349.90
434.47	2504.37
434.66	2541.82
434.85	2534.80
435.03	2516.08
435.22	2602.68
435.41	2595.65
435.59	2560.55
435.78	2679.91
435.97	2466.92
436.16	2555.86
436.34	2555.86
436.53	2656.51
436.72	2675.23
436.90	2633.10
437.09	2693.96
437.28	2562.89
437.46	2698.64
437.65	2726.72
437.84	2750.13
438.02	2818.00
438.21	2738.43
438.40	2705.66
438.58	2878.86
438.77	2949.08
438.96	2808.64
439.14	2771.19
439.33	2803.96
439.52	2916.31
439.70	2967.80
439.89	3028.65
440.08	3059.08
440.26	3030.99
440.45	3038.02
440.63	3119.93
440.82	3176.11
441.01	3087.17
441.19	3087.17
441.38	3089.51
441.57	3229.94
441.75	3199.51
441.94	3152.70
442.12	3419.52
442.31	3417.18
442.50	3180.79
442.68	3293.13
442.87	3316.54
443.05	3311.86
443.24	3293.13
443.43	3403.14
443.61	3435.91
443.80	3417.18
443.98	3412.50
444.17	3304.84
444.35	3332.92
444.54	3396.12
444.73	3517.83
444.91	3391.44
445.10	3293.13
445.28	3358.67
445.47	3531.87
445.65	3363.35
445.84	3461.65
446.02	3538.89
446.21	3365.69
446.39	3449.95
446.58	3459.31
446.77	3583.36
446.95	3480.38
447.14	3454.63
447.32	3459.31
447.51	3445.27
447.69	3480.38
447.88	3435.91
448.06	3449.95
448.25	3637.19
448.43	3506.12
448.62	3529.53
448.80	3517.83
448.99	3485.06
449.17	3529.53
449.36	3583.36
449.54	3623.15
449.73	3651.24
449.91	3775.28
450.10	3660.60
450.28	3716.77
450.46	3742.52
450.65	3714.43
450.83	3623.15
451.02	3686.34
451.20	3728.47
451.39	3840.82
451.57	3747.20
451.76	3648.90
451.94	3801.03
452.13	3969.55
452.31	3815.07
452.49	3733.15
452.68	3899.33
452.86	3824.44
453.05	3824.44
453.23	3906.35
453.42	3679.32
453.60	3805.71
453.78	3936.78
453.97	3798.69
454.15	3801.03
454.34	3810.39
454.52	3995.29
454.70	4035.08
454.89	3990.61
455.07	3899.33
455.26	4044.45
455.44	4255.09
455.62	4037.42
455.81	4088.92
455.99	4217.65
456.17	4051.47
456.36	4198.92
456.54	4229.35
456.73	4063.17
456.91	4248.07
457.09	4334.67
457.28	4409.57
457.46	4208.28
457.64	4308.93
457.83	4365.10
458.01	4170.83
458.19	4283.18
458.38	4201.26
458.56	4372.12
458.74	4369.78
458.93	4416.59
459.11	4404.89
459.29	4353.40
459.48	4318.29
459.66	4416.59
459.84	4535.96
460.03	4479.79
460.21	4461.06
460.39	4627.24
460.57	4479.79
460.76	4547.66
460.94	4557.02
461.12	4484.47
461.31	4489.15
461.49	4542.98
461.67	4482.13
461.85	4660.01
462.04	4578.09
462.22	4723.20
462.40	4704.48
462.59	4748.95
462.77	4863.63
462.95	4709.16
463.13	4732.56
463.32	4837.89
463.50	4800.44
463.68	4664.69
463.86	4744.27
464.05	4755.97
464.23	4880.02
464.41	4926.83
464.59	4765.33
464.78	5090.67
464.96	4807.46
465.14	4863.63
465.32	4870.65
465.50	4931.51
465.69	5050.88
465.87	4856.61
466.05	4877.68
466.23	4994.70
466.41	4828.53
466.60	5090.67
466.78	5018.11
466.96	5022.79
467.14	4915.12
467.32	4990.02
467.51	5181.95
467.69	4992.36
467.87	5100.03
468.05	5121.09
468.23	5114.07
468.41	4961.94
468.60	5081.30
468.78	5177.26
468.96	5174.92
469.14	5226.42
469.32	5195.99
469.50	5095.35
469.69	5394.93
469.87	5305.99
470.05	5343.44
470.23	5394.93
470.41	5418.34
470.59	5486.22
470.77	5383.23
470.95	5392.59
471.14	5626.65
471.32	5586.86
471.50	5495.58
471.68	5586.86
471.86	5561.11
472.04	5577.50
472.22	5643.03
472.40	5465.15
472.58	5701.54
472.77	5755.38
472.95	5687.50
473.13	5865.38
473.31	5738.99
473.49	5699.20
473.67	5813.89
473.85	5781.12
474.03	6040.92
474.21	5912.19
474.39	6059.65
474.57	6066.67
474.75	6193.06
474.93	6024.54
475.12	6064.33
475.30	6221.14
475.48	6061.99
475.66	6143.91
475.84	5991.77
476.02	6097.10
476.20	6282.00
476.38	6312.42
476.56	6525.41
476.74	6590.95
476.92	6368.60
477.10	6427.11
477.28	6738.40
477.46	6576.91
477.64	6796.92
477.82	6724.36
478.00	6724.36
478.18	7021.61
478.36	6888.20
478.54	6932.67
478.72	6850.75
478.90	7030.97
479.08	6979.48
479.26	7269.70
479.44	7173.74
479.62	7208.85
479.80	7559.93
479.98	7426.52
480.16	7442.90
480.34	7569.29
480.52	7478.01
480.70	7620.78
480.88	7536.52
481.06	7686.32
481.24	7569.29
481.41	7903.99
481.59	7915.69
481.77	7941.44
481.95	7920.37
482.13	8152.09
482.31	7873.56
482.49	8121.66
482.67	8152.09
482.85	8236.35
483.03	8435.29
483.21	8362.73
483.39	8294.86
483.57	8404.86
483.74	8430.61
483.92	8540.61
484.10	8608.49
484.28	8872.97
484.46	8943.19
484.64	9062.55
484.82	8823.82
485.00	9156.18
485.18	9118.73
485.35	9345.76
485.53	9146.81
485.71	9226.39
485.89	9565.77
486.07	9467.47
486.25	9689.82
486.43	9528.32
486.61	9813.87
486.78	9781.10
486.96	9727.27
487.14	10097.07
487.32	9818.55
487.50	9984.73
487.68	9975.36
487.85	10333.47
488.03	10092.39
488.21	10424.75
488.39	10597.95
488.57	10520.71
488.75	10661.14
488.92	10874.13
489.10	10792.21
489.28	10918.60
489.46	10930.30
489.64	10726.68
489.81	11000.52
489.99	11138.61
490.17	11147.97
490.35	11234.57
490.53	11176.06
490.70	11555.22
490.88	11529.48
491.06	11681.61
491.24	11744.81
491.41	11632.46
491.59	11576.29
491.77	11662.89
491.95	11873.54
492.13	12088.87
492.30	12070.14
492.48	12166.10
492.66	12086.53
492.84	12159.08
493.01	12320.58
493.19	12336.96
493.37	12657.62
493.54	12524.21
493.72	12442.29
493.90	12723.15
494.08	12910.40
494.25	12961.89
494.43	12968.91
494.61	13060.19
494.79	13235.73
494.96	13151.47
495.14	12903.37
495.32	13348.08
495.49	13415.95
495.67	13322.33
495.85	13664.05
496.02	13820.86
496.20	13848.95
496.38	13734.26
496.55	13668.73
496.73	14209.39
496.91	14295.99
497.09	14303.01
497.26	14057.26
497.44	14108.75
497.62	14160.24
497.79	14382.59
497.97	14431.74
498.14	14785.16
498.32	14920.92
498.50	14700.90
498.67	14817.93
498.85	14878.79
499.03	14757.08
499.20	14946.66
499.38	14728.99
499.56	15087.09
499.73	15014.54
499.91	15176.03
500.08	15129.22
500.26	15192.42
500.44	15349.23
500.61	15349.23
500.79	15337.53
500.97	15393.70
501.14	15662.86
501.32	15630.10
501.49	15676.91
501.67	15822.02
501.84	15812.66
502.02	15784.57
502.20	15889.90
502.37	15908.62
502.55	15974.16
502.72	15852.45
502.90	16285.45
503.07	15896.92
503.25	16463.33
503.43	16184.80
503.60	16587.38
503.78	16086.50
503.95	16341.62
504.13	16542.91
504.30	16180.12
504.48	16332.26
504.65	16746.53
504.83	16996.97
505.01	16816.75
505.18	16453.97
505.36	16744.19
505.53	16666.95
505.71	16854.20
505.88	16779.30
506.06	16819.09
506.23	17144.42
506.41	17198.26
506.58	17224.00
506.76	17336.35
506.93	17420.61
507.11	17167.83
507.28	17280.18
507.46	17191.23
507.63	17376.14
507.81	17706.15
507.98	17371.46
508.16	17460.40
508.33	17607.85
508.50	17425.29
508.68	17638.28
508.85	17919.14
509.03	17900.42
509.20	17980.00
509.38	17951.91
509.55	17968.29
509.73	18207.03
509.90	18125.11
510.08	18127.45
510.25	18286.61
510.42	18319.37
510.60	18462.15
510.77	18389.59
510.95	18576.83
511.12	18483.21
511.30	18518.32
511.47	18874.08
511.64	18731.31
511.82	18803.86
511.99	18794.50
512.17	18995.79
512.34	18682.16
512.51	18991.11
512.69	19115.16
512.86	18876.42
513.04	19267.29
513.21	19101.11
513.38	19218.14
513.56	19393.68
513.73	19290.70
513.90	19601.99
514.08	19328.14
514.25	19552.84
514.43	19407.72
514.60	19417.08
514.77	19676.88
514.95	19552.84
515.12	19648.80
515.29	19721.35
515.47	19639.44
515.64	19920.30
515.81	19728.38
515.99	20128.61
516.16	19749.44
516.33	19822.00
516.51	20219.89
516.68	20051.37
516.85	19924.98
517.03	20208.19
517.20	20339.26
517.37	20325.21
517.54	20194.14
517.72	20540.54
517.89	20365.00
518.06	20184.78
518.24	20283.08
518.41	20266.70
518.58	20299.47
518.75	20699.70
518.93	21020.35
519.10	20587.35
519.27	20854.17
519.45	20676.29
519.62	20482.03
519.79	20460.96
519.96	20905.66
520.14	21018.01
520.31	21214.62
520.48	20769.91
520.65	21172.49
520.83	21013.33
521.00	21153.76
521.17	20842.47
521.34	21195.89
521.52	21273.13
521.69	21366.75
521.86	21654.64
522.03	21273.13
522.20	21715.49
522.38	21659.32
522.55	21640.59
522.72	21846.56
522.89	21661.66
523.07	21944.86
523.24	21830.18
523.41	21869.97
523.58	21743.58
523.75	21909.75
523.92	21809.11
524.10	21926.14
524.27	22157.85
524.44	22628.30
524.61	22125.08
524.78	22279.56
524.96	22438.72
525.13	21958.91
525.30	22286.58
525.47	22363.82
525.64	22647.02
525.81	22403.61
525.98	22478.50
526.16	22679.79
526.33	22560.42
526.50	22834.27
526.67	22487.87
526.84	22499.57
527.01	22551.06
527.18	22764.05
527.36	22860.01
527.53	22951.29
527.70	23005.13
527.87	22855.33
528.04	22621.28
528.21	22934.91
528.38	22838.95
528.55	23073.00
528.72	22984.06
528.89	23314.08
529.07	23040.23
529.24	23000.44
529.41	23222.80
529.58	23297.69
529.75	23112.79
529.92	23431.10
530.09	22960.66
530.26	23384.29
530.43	23332.80
530.60	23314.08
530.77	23646.43
530.94	23339.82
531.11	23442.81
531.28	23248.54
531.46	23346.84
531.63	24098.16
531.80	23644.09
531.97	23887.51
532.14	24086.45
532.31	24121.56
532.48	23714.31
532.65	24236.25
532.82	23786.86
532.99	24070.07
533.16	23962.40
533.33	24184.76
533.50	24095.82
533.67	24100.50
533.84	24180.07
534.01	24166.03
534.18	24123.90
534.35	24381.36
534.52	24156.67
534.69	24353.27
534.86	24634.14
535.03	24372.00
535.20	24435.19
535.37	24577.97
535.54	24636.48
535.71	24112.20
535.88	24446.90
536.05	24486.68
536.22	24458.60
536.38	24704.35
536.55	24659.88
536.72	24779.25
536.89	24601.37
537.06	24648.18
537.23	24713.72
537.40	24900.96
537.57	24807.34
537.74	25102.25
537.91	25118.63
538.08	25027.35
538.25	25172.46
538.42	24992.24
538.59	25245.02
538.75	24849.47
538.92	24999.26
539.09	24774.57
539.26	25074.16
539.43	24926.71
539.60	25088.20
539.77	25542.27
539.94	25546.95
540.11	25216.93
540.28	25032.03
540.44	24945.43
540.61	25326.94
540.78	25195.87
540.95	25259.06
541.12	25261.40
541.29	25542.27
541.46	25207.57
541.62	25343.32
541.79	25170.12
541.96	25270.76
542.13	25713.13
542.30	25696.74
542.47	25642.91
542.63	26108.68
542.80	25827.81
542.97	26019.74
543.14	26176.55
543.31	26157.83
543.48	25853.56
543.64	26111.02
543.81	26450.39
543.98	26387.20
544.15	26164.85
544.32	26412.95
544.48	26274.85
544.65	26246.77
544.82	26464.44
544.99	25954.20
545.16	26237.41
545.32	25993.99
545.49	26319.32
545.66	26731.26
545.83	26642.32
546.00	26649.34
546.16	26459.76
546.33	26300.60
546.50	26464.44
546.67	26356.77
546.83	26228.04
547.00	26698.49
547.17	26424.65
547.34	26389.54
547.50	26817.86
547.67	26794.45
547.84	27014.46
548.00	26630.62
548.17	26677.43
548.34	26745.30
548.51	26932.54
548.67	26899.78
548.84	26494.86
549.01	27035.53
549.18	26691.47
549.34	26834.24
549.51	27058.93
549.68	27030.85
549.84	27192.34
550.01	26962.97
550.18	27070.64
550.34	27419.38
550.51	26930.20
550.68	27742.37
550.84	27295.33
551.01	27194.68
551.18	27021.48
551.34	26955.95
551.51	27606.62
551.68	27157.24
551.84	27381.93
552.01	27470.87
552.18	27215.75
552.34	27157.24
552.51	27344.48
552.68	27206.39
552.84	27417.04
553.01	27367.88
553.18	27180.64
553.34	27363.20
553.51	27672.15
553.67	27953.02
553.84	28018.55
554.01	27786.84
554.17	27615.98
554.34	27559.81
554.51	27623.00
554.67	27758.75
554.84	27892.16
555.00	27679.18
555.17	27742.37
555.33	27641.73
555.50	27723.65
555.67	27859.40
555.83	28067.70
556.00	27826.63
556.16	28231.54
556.33	27828.97
556.50	27484.91
556.66	27906.21
556.83	28006.85
556.99	28074.73
557.16	28334.53
557.32	27960.04
557.49	28217.50
557.65	27749.39
557.82	27728.33
557.98	28154.30
558.15	27782.16
558.32	28332.18
558.48	28311.12
558.65	28357.93
558.81	28364.95
558.98	28402.40
559.14	28437.51
559.31	28261.97
559.47	28430.49
559.64	28168.35
559.80	28545.17
559.97	28357.93
560.13	28423.47
560.30	28514.75
560.46	28613.05
560.63	28400.06
560.79	28498.36
560.96	28540.49
561.12	28149.62
561.29	28381.34
561.45	28350.91
561.61	28758.16
561.78	28486.66
561.94	28411.76
562.11	28709.01
562.27	28549.85
562.44	28477.30
562.60	28278.35
562.77	28498.36
562.93	28418.78
563.10	28591.98
563.26	28793.27
563.42	28779.23
563.59	28779.23
563.75	28753.48
563.92	28542.83
564.08	28130.90
564.24	28491.34
564.41	28526.45
564.57	28559.22
564.74	28716.03
564.90	28746.46
565.07	28765.18
565.23	29039.03
565.39	28645.82
565.56	29006.26
565.72	29029.66
565.88	28671.56
566.05	28877.53
566.21	28809.65
566.38	28987.53
566.54	28779.23
566.70	29015.62
566.87	29088.18
567.03	28856.46
567.19	29261.38
567.36	29378.40
567.52	28910.30
567.68	28910.30
567.85	28765.18
568.01	29263.72
568.17	29240.31
568.34	29191.16
568.50	29111.58
568.66	28992.22
568.83	29486.07
568.99	28882.21
569.15	29022.64
569.32	28868.17
569.48	28884.55
569.64	29160.73
569.81	29127.97
569.97	29165.42
570.13	29476.71
570.30	29268.40
570.46	29015.62
570.62	29230.95
570.78	29165.42
570.95	28929.02
571.11	29092.86
571.27	29095.20
571.43	28936.04
571.60	29134.99
571.76	29111.58
571.92	29275.42
572.09	29331.59
572.25	29329.25
572.41	29710.76
572.57	29064.77
572.74	29116.26
572.90	29076.48
573.06	29001.58
573.22	29071.79
573.38	29432.24
573.55	29116.26
573.71	29415.85
573.87	29177.12
574.03	29142.01
574.20	29270.74
574.36	28882.21
574.52	29118.60
574.68	28992.22
574.84	29298.83
575.01	29205.20
575.17	29397.13
575.33	28769.86
575.49	29319.89
575.65	29287.12
575.82	29530.54
575.98	29074.13
576.14	29193.50
576.30	29336.27
576.46	29095.20
576.62	29490.75
576.79	29364.36
576.95	29537.56
577.11	29593.73
577.27	29563.31
577.43	29532.88
577.59	29408.83
577.75	29355.00
577.92	29490.75
578.08	29268.40
578.24	29567.99
578.40	29474.37
578.56	28877.53
578.72	29795.02
578.88	29567.99
579.04	29474.37
579.21	29436.92
579.37	29792.68
579.53	29495.43
579.69	29399.47
579.85	29230.95
580.01	29193.50
580.17	29092.86
580.33	29223.93
580.49	29790.34
580.65	29280.10
580.82	29586.71
580.98	29383.09
581.14	29521.18
581.30	29593.73
581.46	29518.84
581.62	29628.84
581.78	29319.89
581.94	29551.60
582.10	29434.58
582.26	28975.83
582.42	29743.53
582.58	29734.17
582.74	29525.86
582.90	29617.14
583.06	29626.50
583.22	29369.04
583.38	29614.80
583.54	29413.51
583.70	29324.57
583.86	29392.45
584.02	29256.70
584.18	29645.23
584.34	29425.22
584.50	29659.27
584.66	29216.91
584.82	29315.21
584.98	29287.12
585.14	29516.50
585.30	29383.09
585.46	29556.28
585.62	29144.35
585.78	29591.39
585.94	29621.82
586.10	29869.92
586.26	29888.64
586.42	29764.59
586.58	29813.74
586.74	29722.46
586.90	29355.00
587.06	29790.34
587.22	29530.54
587.38	29844.17
587.54	29717.78
587.70	29558.63
587.86	29572.67
588.02	29626.50
588.18	29837.15
588.34	29893.32
588.49	29996.31
588.65	29982.26
588.81	29504.79
588.97	29706.08
589.13	29589.05
589.29	29734.17
589.45	29717.78
589.61	29773.95
589.77	29883.96
589.93	29993.97
590.08	30012.69
590.24	29841.83
590.40	29872.26
590.56	30010.35
590.72	29694.38
590.88	29614.80
591.04	29780.98
591.20	29930.77
591.35	30157.80
591.51	30380.15
591.67	29961.20
591.83	30232.70
591.99	29865.24
592.15	30370.79
592.31	29912.05
592.46	29591.39
592.62	29626.50
592.78	29724.80
592.94	30068.86
593.10	29692.04
593.26	30122.69
593.41	30167.16
593.57	30092.27
593.73	29792.68
593.89	29773.95
594.05	30038.44
594.20	29579.69
594.36	29942.47
594.52	30059.50
594.68	29645.23
594.84	29900.34
594.99	30019.71
595.15	29495.43
595.31	30003.33
595.47	29944.81
595.62	30260.79
595.78	30277.17
595.94	30068.86
596.10	30167.16
596.25	29771.61
596.41	30101.63
596.57	29865.24
596.73	29677.99
596.88	30235.04
597.04	30384.83
597.20	30209.29
597.36	30012.69
597.51	30141.42
597.67	29963.54
597.83	30019.71
597.99	30218.66
598.14	30197.59
598.30	30050.14
598.46	30253.76
598.61	30061.84
598.77	29954.18
598.93	30164.82
599.09	30216.32
599.24	30649.32
599.40	30476.12
599.56	30274.83
599.71	29923.75
599.87	30270.15
600.03	30026.73
600.18	30064.18
600.34	29930.77
600.50	29923.75
600.65	30162.48
600.81	30476.12
600.97	30394.20
601.12	30518.25
601.28	30143.76
601.44	30265.47
601.59	30492.50
601.75	29993.97
601.91	30497.18
602.06	30033.75
602.22	30244.40
602.37	30000.99
602.53	29949.50
602.69	30256.11
602.84	30284.19
603.00	30260.79
603.16	29865.24
603.31	30569.74
603.47	30005.67
603.62	30183.55
603.78	30195.25
603.94	30394.20
604.09	30120.35
604.25	30286.53
604.40	30361.43
604.56	29895.66
604.71	30157.80
604.87	30384.83
605.03	30354.41
605.18	30349.73
605.34	30099.29
605.49	30075.88
605.65	30162.48
605.80	29797.36
605.96	29935.45
606.12	29921.41
606.27	30302.92
606.43	30057.16
606.58	30129.72
606.74	30462.07
606.89	29886.30
607.05	30038.44
607.20	29989.28
607.36	29832.47
607.51	30019.71
607.67	29949.50
607.82	29717.78
607.98	30221.00
608.13	29956.52
608.29	29745.87
608.44	30174.19
608.60	29979.92
608.75	30284.19
608.91	30075.88
609.06	30047.80
609.22	30033.75
609.37	29848.85
609.53	29954.18
609.68	29991.62
609.84	29717.78
609.99	29935.45
610.15	29577.35
610.30	29916.73
610.46	29617.14
610.61	30134.40
610.76	30022.05
610.92	29577.35
611.07	29851.19
611.23	29600.76
611.38	29785.66
611.54	29825.45
611.69	29582.03
611.84	29432.24
612.00	29876.94
612.15	29488.41
612.31	30087.59
612.46	29827.79
612.62	29792.68
612.77	29766.93
612.92	29769.27
613.08	29872.26
613.23	29560.97
613.39	29362.02
613.54	29362.02
613.69	29621.82
613.85	29254.36
614.00	29413.51
614.15	29764.59
614.31	29212.23
614.46	29893.32
614.62	29390.11
614.77	29518.84
614.92	29507.13
615.08	29420.53
615.23	29539.90
615.38	29399.47
615.54	29535.22
615.69	29109.24
615.84	29619.48
616.00	29537.56
616.15	29273.08
616.30	29350.32
616.46	29266.06
616.61	29619.48
616.76	29797.36
616.92	29324.57
617.07	29521.18
617.22	29184.14
617.37	29392.45
617.53	29446.28
617.68	29401.81
617.83	28922.00
617.99	28980.51
618.14	28706.67
618.29	29589.05
618.45	28840.08
618.60	29111.58
618.75	29490.75
618.90	29214.57
619.06	29167.76
619.21	28952.43
619.36	29207.55
619.51	28645.82
619.67	28982.85
619.82	28914.98
619.97	28811.99
620.12	28992.22
620.28	28987.53
620.43	28751.14
620.58	29415.85
620.73	29139.67
620.89	29102.22
621.04	29291.80
621.19	28872.85
621.34	29149.03
621.49	28914.98
621.65	28725.39
621.80	29156.05
621.95	28898.59
622.10	28847.10
622.25	28797.95
622.41	28622.41
622.56	28720.71
622.71	28760.50
622.86	29127.97
623.01	28673.90
623.16	28697.31
623.32	28591.98
623.47	28489.00
623.62	28591.98
623.77	28767.52
623.92	29118.60
624.07	28397.72
624.23	28278.35
624.38	28535.81
624.53	28669.22
624.68	28919.66
624.83	28306.44
624.98	28870.51
625.13	28741.78
625.29	28540.49
625.44	28638.80
625.59	28334.53
625.74	28563.90
625.89	28339.21
626.04	28245.58
626.19	28357.93
626.34	28496.02
626.49	28212.82
626.65	28222.18
626.80	28318.14
626.95	28477.30
627.10	28430.49
627.25	28182.39
627.40	27922.59
627.55	28013.87
627.70	27880.46
627.85	27948.34
628.00	27955.36
628.15	28079.41
628.30	27885.14
628.45	27824.29
628.60	27655.77
628.76	28084.09
628.91	28072.39
629.06	27941.32
629.21	28273.67
629.36	28009.19
629.51	27747.05
629.66	28163.67
629.81	27608.96
629.96	27559.81
630.11	27566.83
630.26	27662.79
630.41	27807.90
630.56	27360.86
630.71	27852.38
630.86	27992.81
631.01	27522.36
631.16	27936.63
631.31	28032.60
631.46	27498.95
631.61	28180.05
631.76	27786.84
631.91	27513.00
632.06	27335.12
632.21	27281.28
632.36	27814.93
632.51	27297.67
632.66	27763.43
632.81	27550.45
632.96	27384.27
633.10	27604.28
633.25	27749.39
633.40	27660.45
633.55	27761.09
633.70	27297.67
633.85	27239.15
634.00	27491.93
634.15	27510.66
634.30	27274.26
634.45	27314.05
634.60	27419.38
634.75	27414.69
634.90	27014.46
635.05	27379.59
635.19	27454.48
635.34	27552.79
635.49	27627.68
635.64	27604.28
635.79	27218.09
635.94	27281.28
636.09	26991.06
636.24	27122.13
636.39	26953.61
636.53	27023.83
636.68	27040.21
636.83	27274.26
636.98	27234.47
637.13	27185.32
637.28	27243.84
637.43	27297.67
637.57	27047.23
637.72	27098.72
637.87	26984.04
638.02	27353.84
638.17	26899.78
638.32	26607.21
638.46	27080.00
638.61	26881.05
638.76	26452.73
638.91	26597.85
639.06	26595.51
639.20	26899.78
639.35	26740.62
639.50	26778.07
639.65	26906.80
639.80	27068.30
639.94	26647.00
640.09	26960.63
640.24	26937.23
640.39	26513.59
640.54	26759.34
640.68	26719.56
640.83	26766.37
640.98	26450.39
641.13	26480.82
641.27	27028.51
641.42	26562.74
641.57	26429.33
641.72	26661.04
641.86	26522.95
642.01	26464.44
642.16	26349.75
642.31	26073.57
642.45	26354.43
642.60	26251.45
642.75	26162.51
642.90	26265.49
643.04	26309.96
643.19	26242.09
643.34	26333.37
643.48	26256.13
643.63	26232.72
643.78	26415.29
643.93	26625.93
644.07	26328.69
644.22	26651.68
644.37	25886.32
644.51	26345.07
644.66	26246.77
644.81	26246.77
644.95	26300.60
645.10	25755.26
645.25	26047.82
645.39	26118.04
645.54	26148.46
645.69	25898.03
645.83	26352.09
645.98	26206.98
646.13	25984.63
646.27	26291.24
646.42	26111.02
646.57	25991.65
646.71	25998.67
646.86	25752.91
647.00	26031.44
647.15	25935.48
647.30	26113.36
647.44	25874.62
647.59	26047.82
647.74	25858.24
647.88	26010.37
648.03	25984.63
648.17	25832.49
648.32	25972.92
648.47	25919.09
648.61	25876.96
648.76	25797.38
648.90	25736.53
649.05	25795.04
649.20	25696.74
649.34	25546.95
649.49	25642.91
649.63	25474.39
649.78	25422.90
649.92	25369.07
650.07	25954.20
650.21	25575.03
650.36	25706.10
650.51	25453.33
650.65	25666.31
650.80	25905.05
650.94	25706.10
651.09	25713.13
651.23	25460.35
651.38	25380.77
651.52	25607.80
651.67	25373.75
651.81	25479.07
651.96	25415.88
652.10	25369.07
652.25	25202.89
652.39	25584.40
652.54	25699.08
652.68	25422.90
652.83	25439.28
652.97	25535.24
653.12	25336.30
653.26	25085.86
653.41	25235.66
653.55	25106.93
653.70	24973.52
653.84	25132.67
653.99	25085.86
654.13	25263.74
654.27	25289.49
654.42	24961.81
654.56	25289.49
654.71	25135.01
654.85	25076.50
655.00	25212.25
655.14	25158.42
655.29	25163.10
655.43	25207.57
655.57	25366.73
655.72	25186.50
655.86	24812.02
656.01	24987.56
656.15	25118.63
656.30	24856.49
656.44	24765.21
656.58	24964.15
656.73	24950.11
656.87	24641.16
657.01	24912.66
657.16	24797.98
657.30	25132.67
657.45	24720.74
657.59	24830.74
657.73	24573.28
657.88	24912.66
658.02	24327.53
658.16	24826.06
658.31	24910.32
658.45	24599.03
658.60	24592.01
658.74	24517.11
658.88	24524.13
659.03	24325.19
659.17	24636.48
659.31	24397.74
659.46	24503.07
659.60	24561.58
659.74	24236.25
659.89	24257.31
660.03	24435.19
660.17	24638.82
660.32	24032.62
660.46	24299.44
660.60	24091.13
660.74	24027.94
660.89	24386.04
661.03	23857.08
661.17	24027.94
661.32	23936.66
661.46	23861.76
661.60	23824.31
661.74	24137.94
661.89	24009.22
662.03	23742.39
662.17	23737.71
662.31	23662.82
662.46	24070.07
662.60	23903.89
662.74	23716.65
662.88	23751.76
663.03	23482.59
663.17	23817.29
663.31	23637.07
663.45	23482.59
663.60	23601.96
663.74	23339.82
663.88	23508.34
664.02	23445.15
664.17	23681.54
664.31	23185.35
664.45	23318.76
664.59	23318.76
664.73	23190.03
664.88	23590.26
665.02	22944.27
665.16	23187.69
665.30	23276.63
665.44	23321.10
665.59	22967.68
665.73	23089.38
665.87	22878.74
666.01	23077.68
666.15	22977.04
666.29	23112.79
666.44	22927.89
666.58	23136.20
666.72	23061.30
666.86	23087.04
667.00	22848.31
667.14	23005.13
667.28	22733.62
667.43	22504.25
667.57	22654.05
667.71	22553.40
667.85	22431.69
667.99	22625.96
668.13	22611.92
668.27	22288.92
668.41	22398.93
668.56	22307.65
668.70	22974.70
668.84	22651.70
668.98	22471.48
669.12	22794.48
669.26	22469.14
669.40	22239.77
669.54	22195.30
669.68	22164.87
669.82	22125.08
669.96	21898.05
670.10	21858.26
670.25	22356.80
670.39	22256.15
670.53	21832.52
670.67	21954.22
670.81	22082.95
670.95	22089.98
671.09	22335.73
671.23	21982.31
671.37	22068.91
671.51	21724.85
671.65	21748.26
671.79	21853.58
671.93	21582.08
672.07	22061.89
672.21	21455.69
672.35	21507.18
672.49	21259.09
672.63	21280.15
672.77	21474.42
672.91	21490.80
673.05	21336.32
673.19	21184.19
673.33	21268.45
673.47	21256.75
673.61	21151.42
673.75	21441.65
673.89	21331.64
674.03	21076.52
674.17	21001.63
674.31	21104.61
674.45	21020.35
674.59	20807.36
674.73	20823.75
674.87	20638.84
675.01	20753.53
675.15	20460.96
675.29	20716.08
675.43	20711.40
675.56	20648.21
675.70	20503.09
675.84	20444.58
675.98	19871.15
676.12	20269.04
676.26	20566.29
676.40	20524.16
676.54	20205.84
676.68	20376.70
676.82	19922.64
676.96	20173.08
677.10	19899.23
677.23	19983.49
677.37	19524.75
677.51	19789.23
677.65	19775.19
677.79	19814.98
677.93	19714.33
678.07	19613.69
678.21	19672.20
678.34	19501.34
678.48	19410.06
678.62	19267.29
678.76	19159.63
678.90	19171.33
679.04	19058.98
679.18	19187.71
679.31	18775.78
679.45	19094.09
679.59	19281.33
679.73	18881.10
679.87	18853.02
680.00	18808.54
680.14	18630.66
680.28	18614.28
680.42	18616.62
680.56	18984.09
680.70	19044.94
680.83	18572.15
680.97	18710.24
681.11	18733.65
681.25	18530.02
681.39	18377.89
681.52	18335.76
681.66	18338.10
681.80	18047.87
681.94	18279.58
682.07	18242.14
682.21	18167.24
682.35	18169.58
682.49	17591.47
682.62	17860.63
682.76	17614.87
682.90	17675.73
683.04	17589.13
683.17	17949.57
683.31	17696.79
683.45	17436.99
683.59	17713.17
683.72	17696.79
683.86	17603.17
684.00	17460.40
684.13	17444.01
684.27	17280.18
684.41	17053.14
684.55	16870.58
684.68	17128.04
684.82	16844.84
684.96	16706.74
685.09	17008.67
685.23	16585.04
685.37	16725.47
685.50	16872.92
685.64	16802.71
685.78	16821.43
685.91	16439.92
686.05	16926.75
686.19	16453.97
686.32	16720.79
686.46	16343.96
686.60	16159.06
686.73	16147.36
686.87	16011.60
687.01	16294.81
687.14	16353.32
687.28	15826.70
687.42	16248.00
687.55	15889.90
687.69	15999.90
687.82	15866.49
687.96	15920.32
688.10	15815.00
688.23	15765.85
688.37	15536.48
688.50	15609.03
688.64	15693.29
688.78	15704.99
688.91	15435.83
689.05	15473.28
689.18	15255.61
689.32	14885.81
689.46	15370.30
689.59	15094.11
689.73	15005.17
689.86	15145.61
690.00	15096.46
690.13	15066.03
690.27	15005.17
690.41	15110.50
690.54	14768.78
690.68	14909.21
690.81	14853.04
690.95	14808.57
691.08	14895.17
691.22	14630.69
691.35	14857.72
691.49	14368.55
691.62	14422.38
691.76	14473.87
691.89	14169.60
692.03	14389.61
692.16	14211.73
692.30	14068.96
692.43	13980.02
692.57	14169.60
692.70	14122.79
692.84	13973.00
692.97	13844.27
693.11	13874.70
693.24	13671.07
693.38	13830.23
693.51	13577.45
693.65	13626.60
693.78	13474.46
693.92	13422.97
694.05	13535.32
694.19	13439.36
694.32	13371.48
694.45	13369.14
694.59	13345.73
694.72	13291.90
694.86	13083.59
694.99	13050.83
695.13	12964.23
695.26	13046.15
695.39	12945.50
695.53	13111.68
695.66	13022.74
695.80	12905.71
695.93	12849.54
696.07	12945.50
696.20	12980.61
696.33	12835.50
696.47	12765.28
696.60	12430.59
696.73	12531.23
696.87	12538.25
697.00	12564.00
697.14	12241.00
697.27	12194.19
697.40	12278.45
697.54	12184.83
697.67	12063.12
697.80	11999.93
697.94	11892.26
698.07	12114.61
698.21	11861.84
698.34	11953.12
698.47	11943.75
698.61	11868.86
698.74	11847.79
698.87	11690.98
699.01	11646.51
699.14	11665.23
699.27	11578.63
699.40	11665.23
699.54	11421.81
699.67	11449.90
699.80	11452.24
699.94	11197.12
700.07	11218.19
700.20	11173.72
700.34	11073.07
700.47	10913.92
700.60	11042.65
700.73	11194.78
700.87	10963.07
701.00	10799.23
701.13	11126.91
701.26	10963.07
701.40	11089.46
701.53	10967.75
701.66	10895.19
701.79	10679.86
701.93	10773.49
702.06	10642.42
702.19	10558.16
702.32	10387.30
702.46	10401.34
702.59	10384.96
702.72	10342.83
702.85	10120.48
702.99	10284.31
703.12	10335.81
703.25	10122.82
703.38	10218.78
703.51	10249.21
703.65	10164.95
703.78	10071.33
703.91	10073.67
704.04	10193.03
704.17	10026.86
704.31	9909.83
704.44	9844.29
704.57	9809.19
704.70	9745.99
704.83	9537.68
704.96	9575.13
705.10	9624.28
705.23	9289.59
>>>>>End Processed Spectral Data<<<<<
