SpectraSuite Data File
++++++++++++++++++++++++++++++++++++
Date: Fri Oct 18 13:58:07 GMT-05:00 2013
User: bianchi
Dark Spectrum Present: No
Reference Spectrum Present: No
Number of Sampled Component Spectra: 1
Spectrometers: USB2+H05261
Integration Time (usec): 50000 (USB2+H05261)
Spectra Averaged: 1 (USB2+H05261)
Boxcar Smoothing: 0 (USB2+H05261)
Correct for Electrical Dark: No (USB2+H05261)
Strobe/Lamp Enabled: No (USB2+H05261)
Correct for Detector Non-linearity: No (USB2+H05261)
Correct for Stray Light: No (USB2+H05261)
Number of Pixels in Processed Spectrum: 2048
>>>>>Begin Processed Spectral Data<<<<<
365.73	0.00
365.92	0.00
366.12	0.00
366.32	0.00
366.52	0.00
366.72	0.00
366.91	0.00
367.11	0.00
367.31	0.00
367.51	0.00
367.70	0.00
367.90	0.00
368.10	0.00
368.30	0.00
368.49	0.00
368.69	0.00
368.89	0.00
369.09	0.00
369.28	0.00
369.48	0.00
369.68	0.00
369.87	0.00
370.07	0.00
370.27	0.00
370.47	0.00
370.66	114.69
370.86	105.32
371.06	79.58
371.25	175.54
371.45	140.43
371.65	168.52
371.84	135.75
372.04	161.50
372.24	159.16
372.44	121.71
372.63	210.65
372.83	173.20
373.03	215.33
373.22	187.24
373.42	252.78
373.62	208.31
373.81	182.56
374.01	252.78
374.21	269.16
374.40	238.73
374.60	287.89
374.79	224.69
374.99	292.57
375.19	306.61
375.38	271.50
375.58	299.59
375.78	255.12
375.97	318.31
376.17	259.80
376.37	203.63
376.56	271.50
376.76	285.55
376.95	315.97
377.15	320.65
377.35	332.36
377.54	315.97
377.74	292.57
377.93	271.50
378.13	224.69
378.33	283.20
378.52	313.63
378.72	292.57
378.91	339.38
379.11	252.78
379.31	308.95
379.50	208.31
379.70	255.12
379.89	313.63
380.09	306.61
380.28	318.31
380.48	344.06
380.68	315.97
380.87	271.50
381.07	311.29
381.26	386.19
381.46	292.57
381.65	334.70
381.85	386.19
382.04	311.29
382.24	383.85
382.43	330.02
382.63	409.59
382.83	362.78
383.02	365.12
383.22	327.68
383.41	322.99
383.61	327.68
383.80	355.76
384.00	365.12
384.19	470.45
384.39	339.38
384.58	404.91
384.78	397.89
384.97	397.89
385.17	362.78
385.36	400.23
385.56	449.38
385.75	358.10
385.95	430.66
386.14	437.68
386.34	383.85
386.53	449.38
386.72	379.17
386.92	409.59
387.11	423.64
387.31	468.11
387.50	447.04
387.70	479.81
387.89	367.46
388.09	348.74
388.28	388.53
388.48	433.00
388.67	484.49
388.86	330.02
389.06	351.08
389.25	479.81
389.45	430.66
389.64	500.87
389.84	458.74
390.03	428.32
390.22	468.11
390.42	484.49
390.61	526.62
390.81	475.13
391.00	521.94
391.19	578.11
391.39	503.22
391.58	447.04
391.78	557.05
391.97	564.07
392.16	554.71
392.36	594.50
392.55	627.26
392.75	531.30
392.94	528.96
393.13	582.79
393.33	622.58
393.52	594.50
393.71	564.07
393.91	493.85
394.10	608.54
394.29	519.60
394.49	575.77
394.68	615.56
394.88	620.24
395.07	603.86
395.26	573.43
395.46	653.01
395.65	683.44
395.84	713.86
396.04	699.82
396.23	650.67
396.42	620.24
396.62	674.07
396.81	725.57
397.00	657.69
397.19	767.70
397.39	704.50
397.58	627.26
397.77	676.41
397.97	599.18
398.16	725.57
398.35	727.91
398.55	711.52
398.74	791.10
398.93	774.72
399.12	718.54
399.32	676.41
399.51	758.33
399.70	821.53
399.90	774.72
400.09	798.12
400.28	732.59
400.47	737.27
400.67	744.29
400.86	819.19
401.05	791.10
401.24	784.08
401.44	805.14
401.63	755.99
401.82	812.17
402.01	770.04
402.21	765.36
402.40	770.04
402.59	786.42
402.78	758.33
402.97	851.96
403.17	816.85
403.36	917.49
403.55	807.48
403.74	952.60
403.93	880.04
404.13	863.66
404.32	940.90
404.51	1015.79
404.70	983.02
404.89	922.17
405.09	905.79
405.28	898.77
405.47	1041.54
405.66	1053.24
405.85	1011.11
406.05	1034.52
406.24	915.15
406.43	1013.45
406.62	1081.33
406.81	1074.31
407.00	1011.11
407.20	1025.15
407.39	1064.94
407.58	1069.62
407.77	1102.39
407.96	1029.84
408.15	1048.56
408.34	1046.22
408.54	1086.01
408.73	1062.60
408.92	1139.84
409.11	1153.88
409.30	1137.50
409.49	1109.41
409.68	1160.91
409.87	1090.69
410.07	1181.97
410.26	1184.31
410.45	1149.20
410.64	1219.42
410.83	1247.51
411.02	1261.55
411.21	1289.64
411.40	1327.08
411.59	1214.74
411.78	1366.87
411.98	1329.42
412.17	1324.74
412.36	1369.21
412.55	1228.78
412.74	1385.60
412.93	1355.17
413.12	1247.51
413.31	1444.11
413.50	1376.24
413.69	1409.00
413.88	1467.52
414.07	1425.39
414.26	1409.00
414.45	1486.24
414.64	1519.01
414.83	1458.15
415.02	1554.12
415.22	1558.80
415.41	1579.86
415.60	1593.90
415.79	1535.39
415.98	1582.20
416.17	1570.50
416.36	1643.06
416.55	1596.25
416.74	1685.19
416.93	1629.01
417.12	1668.80
417.31	1699.23
417.50	1788.17
417.69	1790.51
417.88	1689.87
418.07	1781.15
418.26	1797.53
418.45	1832.64
418.64	1823.28
418.83	1774.13
419.02	1832.64
419.21	1842.00
419.39	1870.09
419.58	1849.02
419.77	1834.98
419.96	1774.13
420.15	1888.81
420.34	1811.57
420.53	1905.20
420.72	2012.86
420.91	1966.05
421.10	1888.81
421.29	2094.78
421.48	1895.83
421.67	1860.73
421.86	1877.11
422.05	1888.81
422.24	1952.01
422.43	1961.37
422.61	1940.30
422.80	2155.63
422.99	2099.46
423.18	1935.62
423.37	2165.00
423.56	1998.82
423.75	2106.48
423.94	2024.56
424.13	1954.35
424.32	1865.41
424.50	2012.86
424.69	2026.90
424.88	2139.25
425.07	1968.39
425.26	2033.93
425.45	2040.95
425.64	1994.14
425.83	1994.14
426.01	2094.78
426.20	2047.97
426.39	2036.27
426.58	2050.31
426.77	2190.74
426.96	2069.03
427.15	2094.78
427.33	2141.59
427.52	2111.16
427.71	2188.40
427.90	2197.76
428.09	2218.83
428.28	2237.55
428.46	2183.72
428.65	2176.70
428.84	2267.98
429.03	2232.87
429.22	2284.36
429.40	2284.36
429.59	2204.78
429.78	2120.53
429.97	2122.87
430.16	2253.94
430.34	2216.49
430.53	2389.69
430.72	2307.77
430.91	2363.94
431.10	2438.84
431.28	2431.82
431.47	2434.16
431.66	2422.45
431.85	2328.83
432.03	2436.50
432.22	2401.39
432.41	2576.93
432.60	2480.97
432.79	2368.62
432.97	2480.97
433.16	2504.37
433.35	2497.35
433.54	2548.84
433.72	2480.97
433.91	2445.86
434.10	2544.16
434.28	2574.59
434.47	2516.08
434.66	2661.19
434.85	2504.37
435.03	2705.66
435.22	2523.10
435.41	2719.70
435.59	2651.83
435.78	2738.43
435.97	2642.46
436.16	2572.25
436.34	2724.38
436.53	2780.56
436.72	2789.92
436.90	2726.72
437.09	2836.73
437.28	2768.85
437.46	2771.19
437.65	2684.59
437.84	2867.16
438.02	2761.83
438.21	2846.09
438.40	2829.71
438.58	2892.90
438.77	2944.39
438.96	2888.22
439.14	2949.08
439.33	3038.02
439.52	2963.12
439.70	2928.01
439.89	2935.03
440.08	2995.89
440.26	3169.09
440.45	3171.43
440.63	3133.98
440.82	3119.93
441.01	2963.12
441.19	3159.72
441.38	3215.90
441.57	3225.26
441.75	3218.24
441.94	3262.71
442.12	3297.81
442.31	3229.94
442.50	3344.63
442.68	3321.22
442.87	3321.22
443.05	3246.32
443.24	3349.31
443.43	3309.52
443.61	3368.03
443.80	3471.01
443.98	3346.97
444.17	3353.99
444.35	3520.17
444.54	3398.46
444.73	3665.28
444.91	3442.93
445.10	3431.23
445.28	3414.84
445.47	3410.16
445.65	3506.12
445.84	3438.25
446.02	3585.70
446.21	3520.17
446.39	3599.74
446.58	3487.40
446.77	3571.66
446.95	3433.57
447.14	3555.27
447.32	3695.71
447.51	3566.98
447.69	3566.98
447.88	3541.23
448.06	3688.68
448.25	3712.09
448.43	3707.41
448.62	3592.72
448.80	3618.47
448.99	3719.11
449.17	3611.45
449.36	3662.94
449.54	3747.20
449.73	3726.13
449.91	3894.65
450.10	3794.01
450.28	3695.71
450.46	3812.73
450.65	3756.56
450.83	3889.97
451.02	3742.52
451.20	3819.75
451.39	3709.75
451.57	3911.04
451.76	3812.73
451.94	3878.27
452.13	3920.40
452.31	3840.82
452.49	3819.75
452.68	3861.88
452.86	3861.88
453.05	4011.68
453.23	4009.34
453.42	3854.86
453.60	3786.99
453.78	4011.68
453.97	4044.45
454.15	4014.02
454.34	3904.01
454.52	4025.72
454.70	4056.15
454.89	4074.87
455.07	3992.95
455.26	4252.75
455.44	4046.79
455.62	4114.66
455.81	4142.75
455.99	4264.46
456.17	4175.52
456.36	4294.88
456.54	4344.03
456.73	4381.48
456.91	4301.90
457.09	4299.56
457.28	4365.10
457.46	4210.62
457.64	4503.19
457.83	4559.36
458.01	4369.78
458.19	4341.69
458.38	4554.68
458.56	4482.13
458.74	4372.12
458.93	4482.13
459.11	4383.82
459.29	4624.90
459.48	4547.66
459.66	4603.83
459.84	4685.75
460.03	4662.35
460.21	4493.83
460.39	4573.41
460.57	4423.61
460.76	4734.90
460.94	4587.45
461.12	4751.29
461.31	4695.11
461.49	4641.28
461.67	4737.24
461.85	4791.08
462.04	4826.18
462.22	4980.66
462.40	4873.00
462.59	4812.14
462.77	4873.00
462.95	4950.23
463.13	4814.48
463.32	4737.24
463.50	4936.19
463.68	4985.34
463.86	4819.16
464.05	4772.35
464.23	4880.02
464.41	5053.22
464.59	4650.64
464.78	4919.81
464.96	5032.15
465.14	4809.80
465.32	5067.26
465.50	4990.02
465.69	5043.85
465.87	5006.41
466.05	4987.68
466.23	5022.79
466.41	5071.94
466.60	5341.10
466.78	5135.14
466.96	5090.67
467.14	5011.09
467.32	5083.64
467.51	5275.57
467.69	5015.77
467.87	5111.73
468.05	5193.65
468.23	5167.90
468.41	5081.30
468.60	5270.89
468.78	5214.71
468.96	5228.76
469.14	5380.89
469.32	5430.04
469.50	5380.89
469.69	5455.79
469.87	5483.88
470.05	5516.64
470.23	5479.19
470.41	5549.41
470.59	5537.71
470.77	5490.90
470.95	5607.92
471.14	5570.48
471.32	5416.00
471.50	5748.36
471.68	5518.98
471.86	5795.17
472.04	5682.82
472.22	5837.30
472.40	5717.93
472.58	5930.92
472.77	5991.77
472.95	5849.00
473.13	6113.48
473.31	5881.77
473.49	5818.57
473.67	5991.77
473.85	6033.90
474.03	6141.57
474.21	6115.82
474.39	6150.93
474.57	6164.97
474.75	6342.85
474.93	6197.74
475.12	6230.51
475.30	6368.60
475.48	6230.51
475.66	6539.46
475.84	6298.38
476.02	6331.15
476.20	6569.88
476.38	6490.31
476.56	6684.57
476.74	6609.67
476.92	6668.19
477.10	6698.61
477.28	6757.13
477.46	6700.95
477.64	6904.58
477.82	6963.09
478.00	7056.72
478.18	6991.18
478.36	7016.93
478.54	7035.65
478.72	7208.85
478.90	7082.46
479.08	7143.32
479.26	7211.19
479.44	7475.67
479.62	7323.54
479.80	7452.27
479.98	7393.75
480.16	7861.86
480.34	7517.80
480.52	7761.22
480.70	7836.11
480.88	7527.16
481.06	7683.98
481.24	7859.52
481.41	7878.24
481.59	7969.52
481.77	8004.63
481.95	8285.50
482.13	8201.24
482.31	8201.24
482.49	8163.79
482.67	8386.14
482.85	8470.40
483.03	8830.84
483.21	8624.87
483.39	8851.91
483.57	8730.20
483.74	8620.19
483.92	8758.28
484.10	8795.73
484.28	9123.41
484.46	9275.54
484.64	9221.71
484.82	9198.31
485.00	9095.32
485.18	9336.40
485.35	9563.43
485.53	9621.94
485.71	9612.58
485.89	9706.20
486.07	9640.67
486.25	9703.86
486.43	9596.20
486.61	9853.66
486.78	10122.82
486.96	10143.88
487.14	10038.56
487.32	10340.49
487.50	10120.48
487.68	10450.49
487.85	10611.99
488.03	10537.09
488.21	10750.08
488.39	10864.77
488.57	10595.61
488.75	10663.48
488.92	10944.34
489.10	11091.80
489.28	11005.20
489.46	11419.47
489.64	11215.85
489.81	11412.45
489.99	11386.71
490.17	11398.41
490.35	11573.95
490.53	11630.12
490.70	11838.43
490.88	11789.28
491.06	11786.94
491.24	11637.14
491.41	12002.27
491.59	12095.89
491.77	12142.70
491.95	12259.73
492.13	12341.64
492.30	12283.13
492.48	12322.92
492.66	12535.91
492.84	12475.06
493.01	12851.88
493.19	12842.52
493.37	12837.84
493.54	12741.88
493.72	13132.75
493.90	13006.36
494.08	13160.83
494.25	13303.60
494.43	13352.76
494.61	13317.65
494.79	13303.60
494.96	13287.22
495.14	13792.78
495.32	13710.86
495.49	13551.70
495.67	13940.23
495.85	13832.57
496.02	14017.47
496.20	14305.35
496.38	14312.38
496.55	14075.98
496.73	14731.33
496.91	14197.69
497.09	14630.69
497.26	14562.81
497.44	14354.51
497.62	14387.27
497.79	14890.49
497.97	14892.83
498.14	15227.53
498.32	15190.08
498.50	15028.58
498.67	15372.64
498.85	15030.92
499.03	14806.23
499.20	15269.66
499.38	14904.53
499.56	15269.66
499.73	15810.32
499.91	15318.81
500.08	15693.29
500.26	15630.10
500.44	15714.36
500.61	15646.48
500.79	15735.42
500.97	15838.41
501.14	15943.73
501.32	16093.52
501.49	16222.25
501.67	16189.49
501.84	16196.51
502.02	16166.08
502.20	16236.30
502.37	16362.69
502.55	16360.34
502.72	16187.14
502.90	16542.91
503.07	16311.19
503.25	16842.50
503.43	16664.61
503.60	17036.76
503.78	16772.28
503.95	17036.76
504.13	16985.27
504.30	16943.14
504.48	17027.40
504.65	16943.14
504.83	17186.55
505.01	17376.14
505.18	17121.02
505.36	17322.30
505.53	17102.29
505.71	17380.82
505.88	17441.67
506.06	17273.15
506.23	17610.19
506.41	17535.29
506.58	17631.26
506.76	17371.46
506.93	17797.43
507.11	17830.20
507.28	17554.02
507.46	17678.07
507.63	18033.83
507.81	18085.32
507.98	18008.08
508.16	18174.26
508.33	18054.89
508.50	18015.10
508.68	18164.90
508.85	18333.42
509.03	18410.65
509.20	18703.22
509.38	18480.87
509.55	18445.76
509.73	18403.63
509.90	18682.16
510.08	18752.37
510.25	18712.58
510.42	18684.50
510.60	18904.51
510.77	19009.83
510.95	19241.54
511.12	18787.48
511.30	18958.34
511.47	19176.01
511.64	19058.98
511.82	19515.39
511.99	19536.45
512.17	19548.15
512.34	19260.27
512.51	19559.86
512.69	19648.80
512.86	19578.58
513.04	19770.51
513.21	19957.75
513.38	19896.89
513.56	19908.60
513.73	19779.87
513.90	19800.93
514.08	19765.82
514.25	20217.55
514.43	20423.51
514.60	20109.88
514.77	20336.91
514.95	20369.68
515.12	20238.61
515.29	20152.01
515.47	20297.13
515.64	20325.21
515.81	20168.40
515.99	20505.43
516.16	20826.09
516.33	20634.16
516.51	20613.10
516.68	20482.03
516.85	20683.31
517.03	20690.34
517.20	20793.32
517.37	20882.26
517.54	20482.03
517.72	20725.44
517.89	20877.58
518.06	21184.19
518.24	20835.45
518.41	20989.92
518.58	21202.91
518.75	21177.17
518.93	21404.20
519.10	21205.25
519.27	21341.00
519.45	21553.99
519.62	21385.47
519.79	21322.28
519.96	21549.31
520.14	21479.10
520.31	21525.91
520.48	21778.68
520.65	21425.26
520.83	21799.75
521.00	21954.22
521.17	21696.77
521.34	21956.57
521.52	21783.37
521.69	22022.10
521.86	22174.24
522.03	22038.48
522.20	22359.14
522.38	21949.54
522.55	22115.72
522.72	21933.16
522.89	22384.88
523.07	22602.55
523.24	22359.14
523.41	22373.18
523.58	22111.04
523.75	22658.73
523.92	22492.55
524.10	22497.23
524.27	22813.20
524.44	22787.46
524.61	22724.26
524.78	22621.28
524.96	22712.56
525.13	22909.16
525.30	22757.03
525.47	22778.09
525.64	23047.26
525.81	23035.55
525.98	23349.18
526.16	23232.16
526.33	23140.88
526.50	23335.14
526.67	23136.20
526.84	23311.74
527.01	23225.14
527.18	23515.36
527.36	23330.46
527.53	23625.37
527.70	23784.52
527.87	23770.48
528.04	23840.70
528.21	23339.82
528.38	23590.26
528.55	23726.01
528.72	23489.62
528.89	23854.74
529.07	23793.89
529.24	24049.00
529.41	24039.64
529.58	23793.89
529.75	23749.42
529.92	24013.90
530.09	24016.24
530.26	23990.49
530.43	24510.09
530.60	23908.57
530.77	24224.54
530.94	24327.53
531.11	24210.50
531.28	23971.77
531.46	24233.91
531.63	24414.13
531.80	24250.29
531.97	24486.68
532.14	24531.15
532.31	24683.29
532.48	24395.40
532.65	24711.38
532.82	24521.79
532.99	24510.09
533.16	24718.40
533.33	24809.68
533.50	24886.92
533.67	24528.81
533.84	24676.27
534.01	24917.34
534.18	24517.11
534.35	24875.21
534.52	24966.49
534.69	25163.10
534.86	24898.62
535.03	24746.48
535.20	25151.40
535.37	25458.01
535.54	25099.90
535.71	24910.32
535.88	25097.56
536.05	25003.94
536.22	25413.54
536.38	25678.02
536.55	25549.29
536.72	25476.73
536.89	25432.26
537.06	25652.27
537.23	25652.27
537.40	25434.60
537.57	25165.44
537.74	25738.87
537.91	25741.21
538.08	25586.74
538.25	25439.28
538.42	25701.42
538.59	25844.20
538.75	25406.52
538.92	25649.93
539.09	25841.85
539.26	25401.83
539.43	26075.91
539.60	25619.50
539.77	25717.81
539.94	26096.97
540.11	25781.00
540.28	26029.10
540.44	26221.02
540.61	25781.00
540.78	25984.63
540.95	26291.24
541.12	25869.94
541.29	26668.06
541.46	26103.99
541.62	26408.26
541.79	26574.44
541.96	25909.73
542.13	26298.26
542.30	26178.89
542.47	26553.38
542.63	26555.72
542.80	26499.55
542.97	26972.33
543.14	26654.02
543.31	26656.36
543.48	26848.29
543.64	27262.56
543.81	27051.91
543.98	27080.00
544.15	26986.38
544.32	27152.55
544.48	27152.55
544.65	26885.73
544.82	27131.49
544.99	26576.78
545.16	26897.44
545.32	26955.95
545.49	27484.91
545.66	27143.19
545.83	27246.18
546.00	27344.48
546.16	26876.37
546.33	27159.58
546.50	27115.11
546.67	27197.02
546.83	27037.87
547.00	27541.08
547.17	27473.21
547.34	27330.44
547.50	27510.66
547.67	27810.25
547.84	27592.58
548.00	27524.70
548.17	27672.15
548.34	27632.36
548.51	27915.57
548.67	27779.82
548.84	28105.15
549.01	27826.63
549.18	27300.01
549.34	27648.75
549.51	28098.13
549.68	27594.92
549.84	27538.74
550.01	27845.35
550.18	27990.47
550.34	27992.81
550.51	28163.67
550.68	28105.15
550.84	27835.99
551.01	28161.33
551.18	27466.19
551.34	27632.36
551.51	28327.50
551.68	28105.15
551.84	28107.49
552.01	27941.32
552.18	28254.95
552.34	28463.25
552.51	28245.58
552.68	28091.11
552.84	28325.16
553.01	28645.82
553.18	28119.20
553.34	28360.27
553.51	28254.95
553.67	28266.65
553.84	28430.49
554.01	28556.88
554.17	28716.03
554.34	28430.49
554.51	28451.55
554.67	28599.01
554.84	28596.67
555.00	28552.20
555.17	28566.24
555.33	28795.61
555.50	28449.21
555.67	28847.10
555.83	28753.48
556.00	28622.41
556.16	29280.10
556.33	28826.04
556.50	28891.57
556.66	29282.44
556.83	28985.19
556.99	29273.08
557.16	28952.43
557.32	29132.65
557.49	29237.97
557.65	28851.78
557.82	28725.39
557.98	28713.69
558.15	29024.98
558.32	28819.02
558.48	29046.05
558.65	29457.98
558.81	29331.59
558.98	29020.30
559.14	29029.66
559.31	29123.29
559.47	29142.01
559.64	29071.79
559.80	29567.99
559.97	29493.09
560.13	29149.03
560.30	29488.41
560.46	29439.26
560.63	29687.36
560.79	29235.63
560.96	29373.72
561.12	29319.89
561.29	29193.50
561.45	29612.46
561.61	29425.22
561.78	29493.09
561.94	29350.32
562.11	29118.60
562.27	29319.89
562.44	29338.62
562.60	29556.28
562.77	29469.69
562.93	29024.98
563.10	29514.16
563.26	29645.23
563.42	30075.88
563.59	29563.31
563.75	29598.41
563.92	29579.69
564.08	29092.86
564.24	29752.89
564.41	29296.49
564.57	29668.63
564.74	29750.55
564.90	29841.83
565.07	29731.83
565.23	29652.25
565.39	29724.80
565.56	29752.89
565.72	29635.86
565.88	29827.79
566.05	29434.58
566.21	29949.50
566.38	29979.92
566.54	29572.67
566.70	29984.60
566.87	30199.93
567.03	29778.64
567.19	29982.26
567.36	29998.65
567.52	29764.59
567.68	30148.44
567.85	30366.11
568.01	30221.00
568.17	29998.65
568.34	29935.45
568.50	29930.77
568.66	30398.88
568.83	30068.86
568.99	30281.85
569.15	30288.87
569.32	30129.72
569.48	29558.63
569.64	30178.87
569.81	30176.53
569.97	29921.41
570.13	29979.92
570.30	30286.53
570.46	30366.11
570.62	29769.27
570.78	29907.37
570.95	30331.00
571.11	29795.02
571.27	29521.18
571.43	29942.47
571.60	30281.85
571.76	29874.60
571.92	30003.33
572.09	29802.04
572.25	30291.21
572.41	30230.36
572.57	30202.27
572.74	30134.40
572.90	29944.81
573.06	30036.09
573.22	30113.33
573.38	30497.18
573.55	30192.91
573.71	30403.56
573.87	30293.55
574.03	30457.39
574.20	30054.82
574.36	30532.29
574.52	30543.99
574.68	29989.28
574.84	29677.99
575.01	30398.88
575.17	30169.51
575.33	30078.22
575.49	29930.77
575.65	30473.78
575.82	30323.98
575.98	30258.45
576.14	30464.41
576.30	30473.78
576.46	29935.45
576.62	30424.62
576.79	29993.97
576.95	29996.31
577.11	30143.76
577.27	30314.62
577.43	30677.40
577.59	30232.70
577.75	30169.51
577.92	30057.16
578.08	30174.19
578.24	30356.75
578.40	30441.01
578.56	30417.60
578.72	30260.79
578.88	30581.44
579.04	30478.46
579.21	30242.06
579.37	30347.39
579.53	30700.81
579.69	30506.54
579.85	30415.26
580.01	30387.18
580.17	30157.80
580.33	30661.02
580.49	30632.93
580.65	30607.19
580.82	30721.87
580.98	30382.49
581.14	30291.21
581.30	30377.81
581.46	30567.40
581.62	30419.94
581.78	30253.76
581.94	30216.32
582.10	30487.82
582.26	30672.72
582.42	30398.88
582.58	30555.69
582.74	30651.66
582.90	30520.59
583.06	30485.48
583.22	30710.17
583.38	30197.59
583.54	30307.60
583.70	30569.74
583.86	30614.21
584.02	30300.58
584.18	30342.70
584.34	30864.64
584.50	30836.56
584.66	30314.62
584.82	30665.70
584.98	30279.51
585.14	30745.28
585.30	30209.29
585.46	30576.76
585.62	30555.69
585.78	30810.81
585.94	30321.64
586.10	30625.91
586.26	30658.68
586.42	31019.12
586.58	30850.60
586.74	30508.88
586.90	30213.98
587.06	30307.60
587.22	30808.47
587.38	30558.03
587.54	30850.60
587.70	30869.33
587.86	30499.52
588.02	30761.66
588.18	30506.54
588.34	30789.75
588.49	30398.88
588.65	30476.12
588.81	30483.14
588.97	30539.31
589.13	30008.01
589.29	30356.75
589.45	30895.07
589.61	30761.66
589.77	31323.39
589.93	31105.72
590.08	30869.33
590.24	30735.92
590.40	30686.76
590.56	31161.89
590.72	30522.93
590.88	30838.90
591.04	30672.72
591.20	31117.42
591.35	31026.14
591.51	31449.78
591.67	31379.56
591.83	31070.61
591.99	31124.44
592.15	31131.47
592.31	30871.67
592.46	30785.07
592.62	30277.17
592.78	30930.18
592.94	30740.60
593.10	30951.24
593.26	30637.61
593.41	31171.25
593.57	31213.38
593.73	30923.16
593.89	31197.00
594.05	31070.61
594.20	30724.21
594.36	31351.48
594.52	30705.49
594.68	30855.28
594.84	30787.41
594.99	31124.44
595.15	31000.40
595.31	31122.10
595.47	31470.84
595.62	31122.10
595.78	31213.38
595.94	30895.07
596.10	31040.18
596.25	30862.30
596.41	30806.13
596.57	30984.01
596.73	31292.96
596.88	31112.74
597.04	31140.83
597.20	31421.69
597.36	31206.36
597.51	31484.89
597.67	31138.49
597.83	31370.20
597.99	31171.25
598.14	30967.63
598.30	31019.12
598.46	30642.29
598.61	31159.55
598.77	30773.36
598.93	31456.80
599.09	31250.83
599.24	31585.53
599.40	31419.35
599.56	31349.14
599.71	31159.55
599.87	31014.44
600.03	30925.50
600.18	31143.17
600.34	31054.23
600.50	31119.76
600.65	31477.86
600.81	31337.43
600.97	31222.75
601.12	31487.23
601.28	31440.42
601.44	31222.75
601.59	31253.17
601.75	31253.17
601.91	31108.06
602.06	30974.65
602.22	31262.54
602.37	31189.98
602.53	31122.10
602.69	31449.78
602.84	31372.54
603.00	31330.41
603.16	31257.85
603.31	31236.79
603.47	31391.26
603.62	30911.46
603.78	31084.65
603.94	31058.91
604.09	31152.53
604.25	31101.04
604.40	30927.84
604.56	30520.59
604.71	31307.01
604.87	31325.73
605.03	31606.59
605.18	30955.93
605.34	31512.97
605.49	31157.21
605.65	31435.74
605.80	31063.59
605.96	31150.19
606.12	30827.20
606.27	31159.55
606.43	31082.31
606.58	31077.63
606.74	31157.21
606.89	31154.87
607.05	31260.20
607.20	31545.74
607.36	31150.19
607.51	31152.53
607.67	30635.27
607.82	30773.36
607.98	31061.25
608.13	31016.78
608.29	31075.29
608.44	31218.07
608.60	31487.23
608.75	31077.63
608.91	31211.04
609.06	31068.27
609.22	31098.70
609.37	30649.32
609.53	31072.95
609.68	30756.98
609.84	30984.01
609.99	30403.56
610.15	30871.67
610.30	30635.27
610.46	30862.30
610.61	31211.04
610.76	30998.06
610.92	30962.95
611.07	30775.70
611.23	30932.52
611.38	30937.20
611.54	30658.68
611.69	30583.78
611.84	30529.95
612.00	30520.59
612.15	30415.26
612.31	30878.69
612.46	30742.94
612.62	31009.76
612.77	30593.14
612.92	31126.78
613.08	30848.26
613.23	30838.90
613.39	30654.00
613.54	30244.40
613.69	30534.63
613.85	30593.14
614.00	30841.24
614.15	30551.01
614.31	30543.99
614.46	30703.15
614.62	30567.40
614.77	30742.94
614.92	30686.76
615.08	30534.63
615.23	30410.58
615.38	30639.95
615.54	30267.81
615.69	30146.10
615.84	30441.01
616.00	30295.89
616.15	30394.20
616.30	30794.43
616.46	30225.68
616.61	30022.05
616.76	30604.84
616.92	30597.82
617.07	30623.57
617.22	29970.56
617.37	30150.78
617.53	30480.80
617.68	30146.10
617.83	30010.35
617.99	30045.46
618.14	30202.27
618.29	30455.05
618.45	30106.31
618.60	30352.07
618.75	30316.96
618.90	30349.73
619.06	30417.60
619.21	29961.20
619.36	30192.91
619.51	30295.89
619.67	29771.61
619.82	30045.46
619.97	29851.19
620.12	29670.97
620.28	29972.90
620.43	30089.93
620.58	30340.36
620.73	30080.56
620.89	29764.59
621.04	29956.52
621.19	29963.54
621.34	29797.36
621.49	29476.71
621.65	29624.16
621.80	30202.27
621.95	29572.67
622.10	29839.49
622.25	29593.73
622.41	29841.83
622.56	29958.86
622.71	29928.43
622.86	29708.42
623.01	29806.72
623.16	29598.41
623.32	29118.60
623.47	30099.29
623.62	29757.57
623.77	29631.18
623.92	29645.23
624.07	29965.88
624.23	29780.98
624.38	28973.49
624.53	29720.12
624.68	29811.40
624.83	29668.63
624.98	30068.86
625.13	29626.50
625.29	29397.13
625.44	29577.35
625.59	29493.09
625.74	29537.56
625.89	29146.69
626.04	29261.38
626.19	29453.30
626.34	29039.03
626.49	29013.28
626.65	28966.47
626.80	29287.12
626.95	29287.12
627.10	29350.32
627.25	29177.12
627.40	28940.72
627.55	29392.45
627.70	28985.19
627.85	28610.71
628.00	29277.76
628.15	29134.99
628.30	29207.55
628.45	29198.18
628.60	29099.88
628.76	29092.86
628.91	28856.46
629.06	28893.91
629.21	29223.93
629.36	29120.95
629.51	28971.15
629.66	28725.39
629.81	28563.90
629.96	28727.74
630.11	28748.80
630.26	28966.47
630.41	28570.92
630.56	28362.61
630.71	28814.34
630.86	28683.27
631.01	29057.75
631.16	29036.69
631.31	28615.39
631.46	28610.71
631.61	28823.70
631.76	28755.82
631.91	28290.06
632.06	28608.37
632.21	28411.76
632.36	28709.01
632.51	28786.25
632.66	28404.74
632.81	28217.50
632.96	28666.88
633.10	28753.48
633.25	28624.75
633.40	28861.15
633.55	28474.96
633.70	28074.73
633.85	27978.76
634.00	28531.13
634.15	28395.38
634.30	28393.04
634.45	28098.13
634.60	28116.86
634.75	28278.35
634.90	27875.78
635.05	28095.79
635.19	28458.57
635.34	28304.10
635.49	28638.80
635.64	28435.17
635.79	28547.51
635.94	28470.28
636.09	28629.43
636.24	28217.50
636.39	27683.86
636.53	28254.95
636.68	28025.57
636.83	27817.27
636.98	28140.26
637.13	27868.76
637.28	28219.84
637.43	28423.47
637.57	28128.56
637.72	28053.66
637.87	28184.73
638.02	27941.32
638.17	27779.82
638.32	27747.05
638.46	27681.52
638.61	27971.74
638.76	27665.13
638.91	27878.12
639.06	27564.49
639.20	28023.23
639.35	27969.40
639.50	27826.63
639.65	28046.64
639.80	28102.81
639.94	28056.00
640.09	27594.92
640.24	27885.14
640.39	27346.82
640.54	27438.10
640.68	27564.49
640.83	27763.43
640.98	27241.50
641.13	27197.02
641.27	27569.17
641.42	27608.96
641.57	27503.64
641.72	27779.82
641.86	27424.06
642.01	27447.46
642.16	27220.43
642.31	27730.67
642.45	27651.09
642.60	26953.61
642.75	27433.42
642.90	27328.10
643.04	27215.75
643.19	27136.17
643.34	27351.50
643.48	27164.26
643.63	27349.16
643.78	27152.55
643.93	27489.59
644.07	27608.96
644.22	27276.60
644.37	27094.04
644.51	27424.06
644.66	27215.75
644.81	27000.42
644.95	26981.70
645.10	27049.57
645.25	26913.82
645.39	27281.28
645.54	27410.01
645.69	26780.41
645.83	26944.25
645.98	26867.01
646.13	27367.88
646.27	26827.22
646.42	27117.45
646.57	27033.19
646.71	27197.02
646.86	26890.41
647.00	27115.11
647.15	26939.57
647.30	26836.58
647.44	26726.58
647.59	27047.23
647.74	26857.65
647.88	26827.22
648.03	26944.25
648.17	27133.83
648.32	26869.35
648.47	27138.51
648.61	26375.50
648.76	26895.10
648.90	27012.12
649.05	26726.58
649.20	26424.65
649.34	26625.93
649.49	26319.32
649.63	26338.05
649.78	26986.38
649.92	26190.59
650.07	26529.97
650.21	26586.15
650.36	26726.58
650.51	26843.60
650.65	26726.58
650.80	26925.52
650.94	26632.96
651.09	26190.59
651.23	26321.66
651.38	26293.58
651.52	26389.54
651.67	26396.56
651.81	26286.56
651.96	26368.48
652.10	26382.52
652.25	26279.54
652.39	26340.39
652.54	26239.75
652.68	26469.12
652.83	26286.56
652.97	26548.70
653.12	26658.70
653.26	26263.15
653.41	26370.82
653.55	26478.48
653.70	26164.85
653.84	26115.70
653.99	26057.18
654.13	26045.48
654.27	26225.70
654.42	26085.27
654.56	26040.80
654.71	26190.59
654.85	26375.50
655.00	26202.30
655.14	25951.86
655.29	26003.35
655.43	25893.35
655.57	25811.43
655.72	26143.78
655.86	25720.15
656.01	25883.98
656.15	25656.95
656.30	25965.90
656.44	26228.04
656.58	25907.39
656.73	25757.60
656.87	25500.14
657.01	25792.70
657.16	25848.88
657.30	25860.58
657.45	25944.84
657.59	25710.78
657.73	25757.60
657.88	25799.73
658.02	25687.38
658.16	25568.01
658.31	25671.00
658.45	25331.62
658.60	25177.14
658.74	25371.41
658.88	25762.28
659.03	25411.20
659.17	25617.16
659.31	25195.87
659.46	25619.50
659.60	25432.26
659.74	25259.06
659.89	25177.14
660.03	25022.67
660.17	25221.61
660.32	25137.35
660.46	25219.27
660.60	25282.47
660.74	25078.84
660.89	25170.12
661.03	25263.74
661.17	25078.84
661.32	24837.76
661.46	25184.16
661.60	25025.01
661.74	24814.36
661.89	25317.57
662.03	24842.45
662.17	24783.93
662.31	24854.15
662.46	24879.89
662.60	24657.54
662.74	24781.59
662.88	24762.87
663.03	24474.98
663.17	24428.17
663.31	24341.57
663.45	24439.87
663.60	24627.12
663.74	24620.10
663.88	24400.08
664.02	24580.31
664.17	24741.80
664.31	24318.17
664.45	24629.46
664.59	24196.46
664.73	24357.96
664.88	24456.26
665.02	24240.93
665.16	24393.06
665.30	24224.54
665.44	24037.30
665.59	24173.05
665.73	23868.78
665.87	23665.16
666.01	24032.62
666.15	23814.95
666.29	24013.90
666.44	23641.75
666.58	23761.12
666.72	23674.52
666.86	24144.97
667.00	23995.17
667.14	23616.01
667.28	23852.40
667.43	24046.66
667.57	23571.54
667.71	23393.65
667.85	23735.37
667.99	23538.77
668.13	23662.82
668.27	23456.85
668.41	23332.80
668.56	23508.34
668.70	23637.07
668.84	23290.67
668.98	23215.77
669.12	23407.70
669.26	23318.76
669.40	23339.82
669.54	23166.62
669.68	23178.33
669.82	22712.56
669.96	22885.76
670.10	22665.75
670.25	23103.43
670.39	22689.15
670.53	22855.33
670.67	22761.71
670.81	22841.29
670.95	22869.37
671.09	22714.90
671.23	22937.25
671.37	22738.30
671.51	22710.22
671.65	22745.33
671.79	22827.24
671.93	22782.77
672.07	22450.42
672.21	22232.75
672.35	22331.05
672.49	22207.00
672.63	22265.52
672.77	22118.06
672.91	22188.28
673.05	22162.53
673.19	22342.75
673.33	22520.63
673.47	21837.20
673.61	22494.89
673.75	22019.76
673.89	22019.76
674.03	21783.37
674.17	21958.91
674.31	21734.21
674.45	21965.93
674.59	21916.78
674.73	21666.34
674.87	21692.08
675.01	21392.50
675.15	21415.90
675.29	21408.88
675.43	21823.16
675.56	21422.92
675.70	21441.65
675.84	21731.87
675.98	20933.75
676.12	21156.10
676.26	21439.31
676.40	21305.90
676.54	20865.88
676.68	20971.20
676.82	20947.79
676.96	21205.25
677.10	20713.74
677.23	20688.00
677.37	20936.09
677.51	20322.87
677.65	20332.23
677.79	20570.97
677.93	20418.83
678.07	20489.05
678.21	20180.10
678.34	20439.90
678.48	19995.20
678.62	20381.38
678.76	20308.83
678.90	20203.50
679.04	20411.81
679.18	20250.32
679.31	19740.08
679.45	19623.05
679.59	19686.25
679.73	19737.74
679.87	19445.17
680.00	19721.35
680.14	19278.99
680.28	19314.10
680.42	19632.41
680.56	19704.97
680.70	19527.09
680.83	19346.87
680.97	19520.07
681.11	19267.29
681.25	19187.71
681.39	19274.31
681.52	19117.50
681.66	18885.78
681.80	18860.04
681.94	18815.57
682.07	18789.82
682.21	18677.48
682.35	18314.69
682.49	18766.42
682.62	18616.62
682.76	18801.52
682.90	18476.19
683.04	18326.39
683.17	18530.02
683.31	18721.95
683.45	18434.06
683.59	18363.84
683.72	18345.12
683.86	18118.09
684.00	17710.83
684.13	18225.75
684.27	17961.27
684.41	17860.63
684.55	17802.11
684.68	17551.68
684.82	17575.08
684.96	17767.01
685.09	17806.80
685.23	17612.53
685.37	17797.43
685.50	17448.69
685.64	17612.53
685.78	17357.41
685.91	17673.39
686.05	17474.44
686.19	17392.52
686.32	17422.95
686.46	17181.87
686.60	16781.64
686.73	16849.52
686.87	16769.94
687.01	16695.04
687.14	16908.03
687.28	16500.78
687.42	16573.33
687.55	16470.35
687.69	16507.80
687.82	16580.36
687.96	16570.99
688.10	16503.12
688.23	16187.14
688.37	16465.67
688.50	16388.43
688.64	16350.98
688.78	16358.00
688.91	16280.77
689.05	16259.70
689.18	16058.42
689.32	15929.69
689.46	15723.72
689.59	15749.46
689.73	15613.71
689.86	15999.90
690.00	15442.85
690.13	15510.73
690.27	15730.74
690.41	15627.76
690.54	15599.67
690.68	15386.68
690.81	15676.91
690.95	15440.51
691.08	15559.88
691.22	15068.37
691.35	15171.35
691.49	15283.70
691.62	15094.11
691.76	15147.95
691.89	15103.48
692.03	14775.80
692.16	14860.06
692.30	14796.87
692.43	14396.64
692.57	14464.51
692.70	14438.76
692.84	14892.83
692.97	14710.27
693.11	14478.55
693.24	14572.18
693.38	14375.57
693.51	14511.32
693.65	14178.97
693.78	13965.98
693.92	14075.98
694.05	14256.20
694.19	14375.57
694.32	14099.39
694.45	13909.80
694.59	13905.12
694.72	13540.00
694.86	13579.79
694.99	13565.74
695.13	13642.98
695.26	13635.96
695.39	13387.86
695.53	13565.74
695.66	13635.96
695.80	13610.22
695.93	13565.74
696.07	13582.13
696.20	13287.22
696.33	13355.10
696.47	13011.04
696.60	13032.10
696.73	13160.83
696.87	12720.81
697.00	12924.44
697.14	12919.76
697.27	12851.88
697.40	12666.98
697.54	12603.78
697.67	12617.83
697.80	12400.16
697.94	12681.02
698.07	12386.12
698.21	12451.65
698.34	12622.51
698.47	12549.95
698.61	12201.21
698.74	12587.40
698.87	12472.71
699.01	11934.39
699.14	12114.61
699.27	11903.96
699.40	12119.29
699.54	12081.85
699.67	11892.26
699.80	12051.42
699.94	11791.62
700.07	11974.18
700.20	11595.01
700.34	11482.67
700.47	11487.35
700.60	11620.76
700.73	11599.70
700.87	11424.15
701.00	11625.44
701.13	11461.60
701.26	11438.20
701.40	11318.83
701.53	11239.25
701.66	11232.23
701.79	11009.88
701.93	11218.19
702.06	11115.20
702.19	11040.31
702.32	10834.34
702.46	10876.47
702.59	10614.33
702.72	10981.79
702.85	10789.87
702.99	10450.49
703.12	10572.20
703.25	10504.32
703.38	10389.64
703.51	10541.77
703.65	10642.42
703.78	10464.54
703.91	10380.28
704.04	10370.91
704.17	10478.58
704.31	10422.41
704.44	10373.25
704.57	10183.67
704.70	10141.54
704.83	9860.68
704.96	10026.86
705.10	9975.36
705.23	10029.20
>>>>>End Processed Spectral Data<<<<<
