SpectraSuite Data File
++++++++++++++++++++++++++++++++++++
Date: Fri Oct 18 13:58:14 GMT-05:00 2013
User: bianchi
Dark Spectrum Present: No
Reference Spectrum Present: No
Number of Sampled Component Spectra: 1
Spectrometers: USB2+H05261
Integration Time (usec): 50000 (USB2+H05261)
Spectra Averaged: 1 (USB2+H05261)
Boxcar Smoothing: 0 (USB2+H05261)
Correct for Electrical Dark: No (USB2+H05261)
Strobe/Lamp Enabled: No (USB2+H05261)
Correct for Detector Non-linearity: No (USB2+H05261)
Correct for Stray Light: No (USB2+H05261)
Number of Pixels in Processed Spectrum: 2048
>>>>>Begin Processed Spectral Data<<<<<
365.73	0.00
365.92	0.00
366.12	0.00
366.32	0.00
366.52	0.00
366.72	0.00
366.91	0.00
367.11	0.00
367.31	0.00
367.51	0.00
367.70	0.00
367.90	0.00
368.10	0.00
368.30	0.00
368.49	0.00
368.69	0.00
368.89	0.00
369.09	0.00
369.28	0.00
369.48	0.00
369.68	0.00
369.87	0.00
370.07	0.00
370.27	0.00
370.47	0.00
370.66	140.43
370.86	107.66
371.06	128.73
371.25	117.03
371.45	131.07
371.65	135.75
371.84	210.65
372.04	163.84
372.24	180.22
372.44	208.31
372.63	215.33
372.83	138.09
373.03	145.11
373.22	182.56
373.42	248.10
373.62	313.63
373.81	222.35
374.01	224.69
374.21	248.10
374.40	231.71
374.60	287.89
374.79	238.73
374.99	210.65
375.19	234.05
375.38	208.31
375.58	278.52
375.78	205.97
375.97	243.42
376.17	212.99
376.37	203.63
376.56	245.76
376.76	227.03
376.95	250.44
377.15	236.39
377.35	259.80
377.54	236.39
377.74	285.55
377.93	215.33
378.13	250.44
378.33	292.57
378.52	248.10
378.72	360.44
378.91	220.01
379.11	264.48
379.31	327.68
379.50	250.44
379.70	266.82
379.89	287.89
380.09	292.57
380.28	327.68
380.48	278.52
380.68	287.89
380.87	320.65
381.07	311.29
381.26	409.59
381.46	330.02
381.65	322.99
381.85	299.59
382.04	346.40
382.24	262.14
382.43	297.25
382.63	334.70
382.83	397.89
383.02	285.55
383.22	285.55
383.41	442.36
383.61	372.15
383.80	360.44
384.00	313.63
384.19	315.97
384.39	367.46
384.58	433.00
384.78	332.36
384.97	332.36
385.17	374.49
385.36	393.21
385.56	390.87
385.75	437.68
385.95	395.55
386.14	355.76
386.34	461.09
386.53	383.85
386.72	414.27
386.92	463.43
387.11	435.34
387.31	365.12
387.50	404.91
387.70	386.19
387.89	493.85
388.09	493.85
388.28	416.62
388.48	435.34
388.67	416.62
388.86	489.17
389.06	421.30
389.25	454.06
389.45	489.17
389.64	507.90
389.84	470.45
390.03	507.90
390.22	390.87
390.42	498.53
390.61	517.26
390.81	367.46
391.00	528.96
391.19	517.26
391.39	503.22
391.58	468.11
391.78	528.96
391.97	582.79
392.16	517.26
392.36	521.94
392.55	550.03
392.75	645.99
392.94	475.13
393.13	650.67
393.33	514.92
393.52	521.94
393.71	543.00
393.91	561.73
394.10	486.83
394.29	662.37
394.49	552.37
394.68	599.18
394.88	615.56
395.07	669.39
395.26	571.09
395.46	629.60
395.65	620.24
395.84	589.82
396.04	653.01
396.23	643.65
396.42	645.99
396.62	678.76
396.81	751.31
397.00	657.69
397.19	643.65
397.39	667.05
397.58	770.04
397.77	746.63
397.97	662.37
398.16	676.41
398.35	774.72
398.55	702.16
398.74	706.84
398.93	784.08
399.12	758.33
399.32	709.18
399.51	774.72
399.70	730.25
399.90	770.04
400.09	725.57
400.28	795.78
400.47	734.93
400.67	770.04
400.86	847.27
401.05	819.19
401.24	765.36
401.44	744.29
401.63	835.57
401.82	887.06
402.01	844.93
402.21	814.51
402.40	840.25
402.59	798.12
402.78	936.21
402.97	866.00
403.17	847.27
403.36	791.10
403.55	936.21
403.74	880.04
403.93	901.11
404.13	924.51
404.32	947.92
404.51	894.08
404.70	971.32
404.89	1029.84
405.09	858.98
405.28	954.94
405.47	929.19
405.66	964.30
405.85	1025.15
406.05	971.32
406.24	912.81
406.43	994.73
406.62	987.71
406.81	1076.65
407.00	959.62
407.20	1036.86
407.39	1043.88
407.58	1046.22
407.77	968.98
407.96	1170.27
408.15	1032.18
408.34	1090.69
408.54	1100.05
408.73	1057.92
408.92	1100.05
409.11	1107.07
409.30	1158.57
409.49	1203.04
409.68	1163.25
409.87	1153.88
410.07	1228.78
410.26	1238.14
410.45	1193.67
410.64	1181.97
410.83	1153.88
411.02	1212.40
411.21	1294.32
411.40	1231.12
411.59	1291.98
411.78	1217.08
411.98	1296.66
412.17	1409.00
412.36	1352.83
412.55	1383.26
412.74	1352.83
412.93	1460.49
413.12	1369.21
413.31	1394.96
413.50	1320.06
413.69	1371.55
413.88	1453.47
414.07	1549.43
414.26	1427.73
414.45	1432.41
414.64	1483.90
414.83	1490.92
415.02	1523.69
415.22	1544.75
415.41	1519.01
415.60	1584.54
415.79	1547.09
415.98	1530.71
416.17	1563.48
416.36	1591.56
416.55	1619.65
416.74	1675.82
416.93	1603.27
417.12	1778.81
417.31	1633.69
417.50	1729.66
417.69	1701.57
417.88	1722.63
418.07	1703.91
418.26	1802.21
418.45	1804.55
418.64	1865.41
418.83	1736.68
419.02	1708.59
419.21	1827.96
419.39	1952.01
419.58	1816.26
419.77	1844.34
419.96	1834.98
420.15	1937.96
420.34	1834.98
420.53	1825.62
420.72	1877.11
420.91	1902.86
421.10	1914.56
421.29	1891.15
421.48	1973.07
421.67	1954.35
421.86	1919.24
422.05	1973.07
422.24	1937.96
422.43	2012.86
422.61	1987.11
422.80	2059.67
422.99	2115.84
423.18	2087.76
423.37	2015.20
423.56	2069.03
423.75	2062.01
423.94	2076.06
424.13	1877.11
424.32	1870.09
424.50	2024.56
424.69	2080.74
424.88	2207.13
425.07	2064.35
425.26	1980.09
425.45	2122.87
425.64	2003.50
425.83	2015.20
426.01	2085.42
426.20	2012.86
426.39	2073.71
426.58	2094.78
426.77	2209.47
426.96	2092.44
427.15	2136.91
427.33	2181.38
427.52	2120.53
427.71	2230.53
427.90	2099.46
428.09	2275.00
428.28	2300.75
428.46	2134.57
428.65	2176.70
428.84	2141.59
429.03	2298.41
429.22	2197.76
429.40	2331.17
429.59	2221.17
429.78	2204.78
429.97	2143.93
430.16	2174.36
430.34	2232.87
430.53	2356.92
430.72	2394.37
430.91	2361.60
431.10	2312.45
431.28	2377.98
431.47	2410.75
431.66	2394.37
431.85	2317.13
432.03	2553.52
432.22	2480.97
432.41	2518.42
432.60	2539.48
432.79	2490.33
432.97	2389.69
433.16	2579.27
433.35	2502.03
433.54	2478.63
433.72	2546.50
433.91	2427.14
434.10	2495.01
434.28	2539.48
434.47	2677.57
434.66	2654.17
434.85	2614.38
435.03	2586.29
435.22	2576.93
435.41	2747.79
435.59	2670.55
435.78	2597.99
435.97	2677.57
436.16	2663.53
436.34	2661.19
436.53	2656.51
436.72	2855.45
436.90	2595.65
437.09	2733.75
437.28	2574.59
437.46	2834.39
437.65	2654.17
437.84	2785.24
438.02	2792.26
438.21	2920.99
438.40	2768.85
438.58	2930.35
438.77	2871.84
438.96	2953.76
439.14	2939.71
439.33	2930.35
439.52	2984.18
439.70	2995.89
439.89	3108.23
440.08	3101.21
440.26	3052.06
440.45	3136.32
440.63	3101.21
440.82	3178.45
441.01	3166.74
441.19	3180.79
441.38	3201.85
441.57	3105.89
441.75	3124.62
441.94	3375.05
442.12	3351.65
442.31	3489.74
442.50	3293.13
442.68	3321.22
442.87	3410.16
443.05	3328.24
443.24	3391.44
443.43	3433.57
443.61	3335.26
443.80	3456.97
443.98	3351.65
444.17	3372.71
444.35	3442.93
444.54	3389.10
444.73	3494.42
444.91	3492.08
445.10	3449.95
445.28	3461.65
445.47	3358.67
445.65	3419.52
445.84	3459.31
446.02	3564.64
446.21	3454.63
446.39	3417.18
446.58	3524.85
446.77	3602.08
446.95	3480.38
447.14	3513.14
447.32	3625.49
447.51	3604.42
447.69	3559.95
447.88	3522.51
448.06	3438.25
448.25	3588.04
448.43	3581.02
448.62	3503.78
448.80	3452.29
448.99	3574.00
449.17	3599.74
449.36	3602.08
449.54	3667.62
449.73	3641.87
449.91	3705.07
450.10	3733.15
450.28	3791.67
450.46	3707.41
450.65	3669.96
450.83	3784.65
451.02	3786.99
451.20	3880.61
451.39	3768.26
451.57	3808.05
451.76	3808.05
451.94	3740.18
452.13	3918.06
452.31	3801.03
452.49	3817.41
452.68	4030.40
452.86	3889.97
453.05	3920.40
453.23	4065.51
453.42	3920.40
453.60	4009.34
453.78	3932.10
453.97	3880.61
454.15	4093.60
454.34	3974.23
454.52	4049.13
454.70	3950.82
454.89	4093.60
455.07	4077.21
455.26	4161.47
455.44	4224.67
455.62	4072.53
455.81	4117.00
455.99	4198.92
456.17	4156.79
456.36	4203.60
456.54	4362.76
456.73	4283.18
456.91	4313.61
457.09	4259.78
457.28	4365.10
457.46	4283.18
457.64	4461.06
457.83	4559.36
458.01	4297.22
458.19	4292.54
458.38	4351.06
458.56	4465.74
458.74	4365.10
458.93	4496.17
459.11	4531.28
459.29	4414.25
459.48	4657.67
459.66	4468.08
459.84	4521.92
460.03	4535.96
460.21	4538.30
460.39	4674.05
460.57	4699.80
460.76	4627.24
460.94	4507.87
461.12	4608.51
461.31	4793.42
461.49	4678.73
461.67	4643.62
461.85	4727.88
462.04	4702.14
462.22	5114.07
462.40	4723.20
462.59	4786.40
462.77	4770.01
462.95	4781.71
463.13	4798.10
463.32	4968.96
463.50	4816.82
463.68	4945.55
463.86	4905.76
464.05	4870.65
464.23	4999.38
464.41	4880.02
464.59	4826.18
464.78	4975.98
464.96	5050.88
465.14	4851.93
465.32	5041.51
465.50	5062.58
465.69	4966.62
465.87	4940.87
466.05	4990.02
466.23	5036.83
466.41	5060.24
466.60	5301.31
466.78	5139.82
466.96	5107.05
467.14	5322.38
467.32	5156.20
467.51	5488.56
467.69	5029.81
467.87	5104.71
468.05	5114.07
468.23	5228.76
468.41	5205.35
468.60	5277.91
468.78	5504.94
468.96	5345.78
469.14	5224.08
469.32	5343.44
469.50	5413.66
469.69	5348.12
469.87	5437.06
470.05	5418.34
470.23	5451.11
470.41	5401.96
470.59	5420.68
470.77	5472.17
470.95	5518.98
471.14	5654.73
471.32	5528.35
471.50	5647.71
471.68	5507.28
471.86	5668.78
472.04	5483.88
472.22	5921.56
472.40	5799.85
472.58	5839.64
472.77	5664.10
472.95	5968.37
473.13	5980.07
473.31	5820.91
473.49	5858.36
473.67	5891.13
473.85	5867.72
474.03	6176.67
474.21	6024.54
474.39	6230.51
474.57	6076.03
474.75	6143.91
474.93	6286.68
475.12	6293.70
475.30	6307.74
475.48	6207.10
475.66	6382.64
475.84	6225.82
476.02	6464.56
476.20	6296.04
476.38	6586.27
476.56	6380.30
476.74	6523.07
476.92	6572.22
477.10	6518.39
477.28	6729.04
477.46	6815.64
477.64	6782.87
477.82	6686.91
478.00	7129.27
478.18	6984.16
478.36	6965.43
478.54	7075.44
478.72	7281.41
478.90	7159.70
479.08	7206.51
479.26	7428.86
479.44	7461.63
479.62	7485.03
479.80	7606.74
479.98	7410.14
480.16	7630.15
480.34	7693.34
480.52	7569.29
480.70	7822.07
480.88	7838.45
481.06	7737.81
481.24	7850.16
481.41	7845.48
481.59	8112.30
481.77	8219.96
481.95	7992.93
482.13	8081.87
482.31	8273.79
482.49	8168.47
482.67	8344.01
482.85	8589.77
483.03	8772.33
483.21	8589.77
483.39	8524.23
483.57	8748.92
483.74	8791.05
483.92	8725.52
484.10	8641.26
484.28	8987.66
484.46	9114.05
484.64	9350.44
484.82	9181.92
485.00	9289.59
485.18	9238.09
485.35	9383.21
485.53	9486.19
485.71	9495.55
485.89	9628.96
486.07	9664.07
486.25	9771.74
486.43	9685.14
486.61	10141.54
486.78	9919.19
486.96	10134.52
487.14	10057.28
487.32	10202.40
487.50	10186.01
487.68	10459.85
487.85	10347.51
488.03	10551.14
488.21	10721.99
488.39	10675.18
488.57	10883.49
488.75	10892.85
488.92	11056.69
489.10	10876.47
489.28	11026.26
489.46	11014.56
489.64	10942.00
489.81	11433.52
489.99	11480.33
490.17	11253.30
490.35	11882.90
490.53	11597.35
490.70	11833.75
490.88	11716.72
491.06	11843.11
491.24	11943.75
491.41	11913.33
491.59	12191.85
491.77	11868.86
491.95	12336.96
492.13	12365.05
492.30	12547.61
492.48	12517.18
492.66	12512.50
492.84	12407.18
493.01	12746.56
493.19	12889.33
493.37	12931.46
493.54	12732.51
493.72	13001.68
493.90	12938.48
494.08	13032.10
494.25	13132.75
494.43	13202.96
494.61	13378.50
494.79	13467.44
494.96	13495.53
495.14	13600.85
495.32	13853.63
495.49	13734.26
495.67	13916.83
495.85	14036.19
496.02	13935.55
496.20	14141.52
496.38	14181.31
496.55	14162.58
496.73	14508.98
496.91	14270.25
497.09	14642.39
497.26	14342.80
497.44	14527.71
497.62	14359.19
497.79	14637.71
497.97	15014.54
498.14	14918.57
498.32	14721.97
498.50	14869.42
498.67	15143.27
498.85	15267.31
499.03	14993.47
499.20	14970.07
499.38	15396.04
499.56	15248.59
499.73	15716.70
499.91	15597.33
500.08	15555.20
500.26	15358.60
500.44	15452.22
500.61	15683.93
500.79	15690.95
500.97	15892.24
501.14	15932.03
501.32	16030.33
501.49	15955.43
501.67	15943.73
501.84	16248.00
502.02	16177.78
502.20	16109.91
502.37	16039.69
502.55	16243.32
502.72	16395.45
502.90	16446.94
503.07	16554.61
503.25	16538.23
503.43	16395.45
503.60	16802.71
503.78	16608.44
503.95	16620.14
504.13	16791.00
504.30	16858.88
504.48	16805.05
504.65	16826.11
504.83	17102.29
505.01	17434.65
505.18	17221.66
505.36	17193.58
505.53	17254.43
505.71	17366.78
505.88	17364.43
506.06	17034.42
506.23	17607.85
506.41	17795.09
506.58	17547.00
506.76	17738.92
506.93	17591.47
507.11	17757.64
507.28	17743.60
507.46	17841.90
507.63	17881.69
507.81	18150.85
507.98	17954.25
508.16	18120.43
508.33	18272.56
508.50	18396.61
508.68	18087.66
508.85	18312.35
509.03	18267.88
509.20	18532.36
509.38	18525.34
509.55	18405.97
509.73	18665.77
509.90	18401.29
510.08	18377.89
510.25	18508.96
510.42	18710.24
510.60	19094.09
510.77	19014.51
510.95	19283.67
511.12	19014.51
511.30	18965.36
511.47	19105.79
511.64	18958.34
511.82	19278.99
511.99	19122.18
512.17	19426.45
512.34	19419.42
512.51	19442.83
512.69	19215.80
512.86	19737.74
513.04	19831.36
513.21	19686.25
513.38	19859.45
513.56	19592.62
513.73	19421.77
513.90	19683.91
514.08	19543.47
514.25	19964.77
514.43	20056.05
514.60	19962.43
514.77	20196.48
514.95	20372.02
515.12	20123.93
515.29	20262.02
515.47	20313.51
515.64	20390.75
515.81	20423.51
515.99	20531.18
516.16	20470.33
516.33	20325.21
516.51	20519.48
516.68	20442.24
516.85	20336.91
517.03	20840.13
517.20	20577.99
517.37	20861.19
517.54	20809.70
517.72	20837.79
517.89	20851.83
518.06	20891.62
518.24	20999.29
518.41	20741.83
518.58	20994.61
518.75	20790.98
518.93	21247.38
519.10	21200.57
519.27	21219.30
519.45	21219.30
519.62	21441.65
519.79	21221.64
519.96	21411.22
520.14	21394.84
520.31	21617.19
520.48	21717.83
520.65	21539.95
520.83	21575.06
521.00	21603.14
521.17	21823.16
521.34	21589.10
521.52	21696.77
521.69	21514.20
521.86	22113.38
522.03	22185.94
522.20	22089.98
522.38	22148.49
522.55	22317.01
522.72	22253.81
522.89	22029.12
523.07	22272.54
523.24	22232.75
523.41	22417.65
523.58	22059.55
523.75	22522.98
523.92	22490.21
524.10	22558.08
524.27	22773.41
524.44	22808.52
524.61	22998.10
524.78	22773.41
524.96	22567.45
525.13	22635.32
525.30	22780.43
525.47	23068.32
525.64	22560.42
525.81	22810.86
525.98	22958.31
526.16	23049.60
526.33	22955.97
526.50	23323.44
526.67	22848.31
526.84	23152.58
527.01	22955.97
527.18	23496.64
527.36	23634.73
527.53	23496.64
527.70	23948.36
527.87	23669.84
528.04	23641.75
528.21	23431.10
528.38	23414.72
528.55	23269.61
528.72	23653.45
528.89	23623.03
529.07	23646.43
529.24	24070.07
529.41	24276.04
529.58	23936.66
529.75	23887.51
529.92	23695.58
530.09	23838.36
530.26	24056.03
530.43	24030.28
530.60	23988.15
530.77	23910.91
530.94	23871.12
531.11	23969.43
531.28	23814.95
531.46	24011.56
531.63	24037.30
531.80	24498.39
531.97	24306.46
532.14	24662.22
532.31	24231.57
532.48	24437.53
532.65	24442.21
532.82	24194.12
532.99	24746.48
533.16	24449.24
533.33	24460.94
533.50	25158.42
533.67	24657.54
533.84	24594.35
534.01	24257.31
534.18	24549.88
534.35	24671.59
534.52	25010.96
534.69	24819.04
534.86	25149.06
535.03	25102.25
535.20	25378.43
535.37	25041.39
535.54	25170.12
535.71	24833.08
535.88	25366.73
536.05	24802.66
536.22	25247.36
536.38	25467.37
536.55	25156.08
536.72	25200.55
536.89	25113.95
537.06	25216.93
537.23	25301.19
537.40	25275.45
537.57	25294.17
537.74	25558.65
537.91	25701.42
538.08	25291.83
538.25	25797.38
538.42	25862.92
538.59	25605.46
538.75	25612.48
538.92	25640.57
539.09	25963.56
539.26	25689.72
539.43	25771.64
539.60	26221.02
539.77	25706.10
539.94	26024.42
540.11	25661.63
540.28	25867.60
540.44	25991.65
540.61	26003.35
540.78	26001.01
540.95	25951.86
541.12	26068.89
541.29	25860.58
541.46	26185.91
541.62	26541.68
541.79	26132.08
541.96	25979.95
542.13	26340.39
542.30	26270.17
542.47	26455.08
542.63	26309.96
542.80	26831.90
542.97	26836.58
543.14	26834.24
543.31	26581.46
543.48	26895.10
543.64	26878.71
543.81	27246.18
543.98	27028.51
544.15	27002.76
544.32	27068.30
544.48	27276.60
544.65	26747.64
544.82	26883.39
544.99	26764.03
545.16	27072.98
545.32	26960.63
545.49	27227.45
545.66	27124.47
545.83	27094.04
546.00	27150.21
546.16	26988.72
546.33	27182.98
546.50	27014.46
546.67	27608.96
546.83	26735.94
547.00	27190.00
547.17	27290.65
547.34	27477.89
547.50	27435.76
547.67	27538.74
547.84	27309.37
548.00	27557.47
548.17	27557.47
548.34	27510.66
548.51	27725.99
548.67	27754.07
548.84	27601.94
549.01	27438.10
549.18	27606.62
549.34	27456.82
549.51	27777.48
549.68	27599.60
549.84	27491.93
550.01	27866.42
550.18	27742.37
550.34	27871.10
550.51	27983.44
550.68	28231.54
550.84	27733.01
551.01	28140.26
551.18	27756.41
551.34	27646.41
551.51	27667.47
551.68	28079.41
551.84	28217.50
552.01	27936.63
552.18	27878.12
552.34	28025.57
552.51	28166.01
552.68	27950.68
552.84	28280.69
553.01	28481.98
553.18	27983.44
553.34	28474.96
553.51	27999.83
553.67	28332.18
553.84	28418.78
554.01	28268.99
554.17	28599.01
554.34	28514.75
554.51	28163.67
554.67	28357.93
554.84	28566.24
555.00	28290.06
555.17	28624.75
555.33	28631.77
555.50	28533.47
555.67	28320.48
555.83	28610.71
556.00	28435.17
556.16	28826.04
556.33	28781.57
556.50	28589.64
556.66	28994.56
556.83	28397.72
556.99	28734.76
557.16	29198.18
557.32	28879.87
557.49	29392.45
557.65	28577.94
557.82	28732.42
557.98	28957.11
558.15	28999.24
558.32	28856.46
558.48	28994.56
558.65	29443.94
558.81	28947.75
558.98	28968.81
559.14	28816.68
559.31	29177.12
559.47	28947.75
559.64	29284.78
559.80	28912.64
559.97	29507.13
560.13	28985.19
560.30	29247.33
560.46	29160.73
560.63	29319.89
560.79	29317.55
560.96	29350.32
561.12	29282.44
561.29	29333.93
561.45	29387.77
561.61	29584.37
561.78	29603.10
561.94	29132.65
562.11	29502.45
562.27	29539.90
562.44	29390.11
562.60	29434.58
562.77	29130.31
562.93	29205.20
563.10	29720.12
563.26	29376.06
563.42	30000.99
563.59	29565.65
563.75	29186.48
563.92	29755.23
564.08	29518.84
564.24	29462.66
564.41	29371.38
564.57	29649.91
564.74	29656.93
564.90	29881.62
565.07	29816.08
565.23	29603.10
565.39	29418.19
565.56	30029.07
565.72	29432.24
565.88	29743.53
566.05	29392.45
566.21	29750.55
566.38	29434.58
566.54	30061.84
566.70	29872.26
566.87	29883.96
567.03	29752.89
567.19	29996.31
567.36	29668.63
567.52	29769.27
567.68	29706.08
567.85	29514.16
568.01	29958.86
568.17	29462.66
568.34	29673.31
568.50	29890.98
568.66	30108.65
568.83	30359.09
568.99	29858.21
569.15	29682.67
569.32	29701.40
569.48	29591.39
569.64	30359.09
569.81	30054.82
569.97	29902.68
570.13	29956.52
570.30	29743.53
570.46	30106.31
570.62	29888.64
570.78	29799.70
570.95	29745.87
571.11	30129.72
571.27	29483.73
571.43	30176.53
571.60	29874.60
571.76	30057.16
571.92	29862.90
572.09	29909.71
572.25	30160.14
572.41	29928.43
572.57	30239.72
572.74	30089.93
572.90	29916.73
573.06	29799.70
573.22	29975.24
573.38	29916.73
573.55	30232.70
573.71	30333.34
573.87	30291.21
574.03	30153.12
574.20	29989.28
574.36	29888.64
574.52	29832.47
574.68	29640.54
574.84	30005.67
575.01	30321.64
575.17	30225.68
575.33	29670.97
575.49	30349.73
575.65	30256.11
575.82	30216.32
575.98	30000.99
576.14	30314.62
576.30	30281.85
576.46	29970.56
576.62	29914.39
576.79	30129.72
576.95	30146.10
577.11	30370.79
577.27	30462.07
577.43	30438.67
577.59	29996.31
577.75	30457.39
577.92	30225.68
578.08	30085.25
578.24	29869.92
578.40	30347.39
578.56	30061.84
578.72	30281.85
578.88	30316.96
579.04	30508.88
579.21	30216.32
579.37	30221.00
579.53	30139.08
579.69	29940.13
579.85	30043.12
580.01	30333.34
580.17	30052.48
580.33	30803.79
580.49	30195.25
580.65	30551.01
580.82	30387.18
580.98	30394.20
581.14	30323.98
581.30	30457.39
581.46	30309.94
581.62	30061.84
581.78	30071.20
581.94	30672.72
582.10	30312.28
582.26	30518.25
582.42	30572.08
582.58	30658.68
582.74	30441.01
582.90	30321.64
583.06	30696.13
583.22	30148.44
583.38	30260.79
583.54	30464.41
583.70	30242.06
583.86	30607.19
584.02	30113.33
584.18	30450.37
584.34	30635.27
584.50	30588.46
584.66	30693.79
584.82	30075.88
584.98	30424.62
585.14	30412.92
585.30	30295.89
585.46	30328.66
585.62	30087.59
585.78	30632.93
585.94	30066.52
586.10	30471.43
586.26	30630.59
586.42	30934.86
586.58	30735.92
586.74	30478.46
586.90	30221.00
587.06	30265.47
587.22	30551.01
587.38	30445.69
587.54	30581.44
587.70	30569.74
587.86	30808.47
588.02	31054.23
588.18	31037.84
588.34	30780.39
588.49	30733.57
588.65	30551.01
588.81	30366.11
588.97	30448.03
589.13	30504.20
589.29	30764.00
589.45	30738.26
589.61	30579.10
589.77	30808.47
589.93	30511.22
590.08	30766.34
590.24	30471.43
590.40	30639.95
590.56	30944.22
590.72	30471.43
590.88	30909.11
591.04	30363.77
591.20	30806.13
591.35	30941.88
591.51	30918.48
591.67	31175.94
591.83	31168.91
591.99	30806.13
592.15	30419.94
592.31	31185.30
592.46	30534.63
592.62	30874.01
592.78	30644.63
592.94	30668.04
593.10	30967.63
593.26	31133.81
593.41	31084.65
593.57	30590.80
593.73	31105.72
593.89	31164.23
594.05	31145.51
594.20	31000.40
594.36	30649.32
594.52	30742.94
594.68	30651.66
594.84	31030.82
594.99	31026.14
595.15	31042.53
595.31	31173.60
595.47	30862.30
595.62	31019.12
595.78	30869.33
595.94	30824.86
596.10	30909.11
596.25	30969.97
596.41	30998.06
596.57	30829.54
596.73	30986.35
596.88	30869.33
597.04	30972.31
597.20	30962.95
597.36	31288.28
597.51	31028.48
597.67	30614.21
597.83	31079.97
597.99	31079.97
598.14	30810.81
598.30	30953.58
598.46	31033.16
598.61	31112.74
598.77	31094.02
598.93	30934.86
599.09	30932.52
599.24	31669.79
599.40	31379.56
599.56	31498.93
599.71	31044.87
599.87	30967.63
600.03	30911.46
600.18	30756.98
600.34	31414.67
600.50	30761.66
600.65	30883.37
600.81	31391.26
600.97	31049.55
601.12	31047.21
601.28	31349.14
601.44	31440.42
601.59	31466.16
601.75	31145.51
601.91	31206.36
602.06	30960.61
602.22	31285.94
602.37	30916.14
602.53	31299.98
602.69	31405.31
602.84	30831.88
603.00	31468.50
603.16	31482.55
603.31	31154.87
603.47	31285.94
603.62	31297.64
603.78	31051.89
603.94	30787.41
604.09	30789.75
604.25	30972.31
604.40	30937.20
604.56	30885.71
604.71	30948.90
604.87	31145.51
605.03	31012.10
605.18	31068.27
605.34	30925.50
605.49	31070.61
605.65	31035.50
605.80	30710.17
605.96	30768.68
606.12	31143.17
606.27	31283.60
606.43	30876.35
606.58	31178.28
606.74	30988.69
606.89	31068.27
607.05	31058.91
607.20	31321.05
607.36	31091.68
607.51	30991.03
607.67	30941.88
607.82	31012.10
607.98	30614.21
608.13	30864.64
608.29	30930.18
608.44	30771.02
608.60	30806.13
608.75	30773.36
608.91	31157.21
609.06	30955.93
609.22	30979.33
609.37	30780.39
609.53	30909.11
609.68	30532.29
609.84	30698.47
609.99	30611.87
610.15	30911.46
610.30	30206.95
610.46	30672.72
610.61	30712.51
610.76	30967.63
610.92	30422.28
611.07	30810.81
611.23	30740.60
611.38	30658.68
611.54	30513.56
611.69	30483.14
611.84	30396.54
612.00	30782.73
612.15	30569.74
612.31	30808.47
612.46	30543.99
612.62	30595.48
612.77	30223.34
612.92	30801.45
613.08	31239.13
613.23	30480.80
613.39	30822.51
613.54	30274.83
613.69	30174.19
613.85	30689.10
614.00	30501.86
614.15	30312.28
614.31	30424.62
614.46	30672.72
614.62	30139.08
614.77	30635.27
614.92	30721.87
615.08	30494.84
615.23	30431.65
615.38	30445.69
615.54	30345.05
615.69	30375.47
615.84	30459.73
616.00	30274.83
616.15	30340.36
616.30	30576.76
616.46	29958.86
616.61	30340.36
616.76	30204.61
616.92	30195.25
617.07	30192.91
617.22	30192.91
617.37	30057.16
617.53	30536.97
617.68	29848.85
617.83	30237.38
617.99	30188.23
618.14	29979.92
618.29	30047.80
618.45	30003.33
618.60	30094.61
618.75	29926.09
618.90	30242.06
619.06	30232.70
619.21	29816.08
619.36	29958.86
619.51	29752.89
619.67	29860.55
619.82	30108.65
619.97	29813.74
620.12	29851.19
620.28	29350.32
620.43	29888.64
620.58	30281.85
620.73	29804.38
620.89	30171.85
621.04	29958.86
621.19	29780.98
621.34	29970.56
621.49	29722.46
621.65	29567.99
621.80	29656.93
621.95	29685.01
622.10	29795.02
622.25	29347.98
622.41	29411.17
622.56	29961.20
622.71	30026.73
622.86	29610.12
623.01	29699.06
623.16	29355.00
623.32	29223.93
623.47	29614.80
623.62	29392.45
623.77	29673.31
623.92	30064.18
624.07	29766.93
624.23	29443.94
624.38	29689.70
624.53	29766.93
624.68	29661.61
624.83	29598.41
624.98	29436.92
625.13	29523.52
625.29	29383.09
625.44	29539.90
625.59	29500.11
625.74	29191.16
625.89	29338.62
626.04	28982.85
626.19	29085.84
626.34	29188.82
626.49	28929.02
626.65	29191.16
626.80	29273.08
626.95	29195.84
627.10	29163.08
627.25	29017.96
627.40	29006.26
627.55	28922.00
627.70	28769.86
627.85	28996.90
628.00	28905.62
628.15	28938.38
628.30	28961.79
628.45	28802.63
628.60	28734.76
628.76	29205.20
628.91	28886.89
629.06	29123.29
629.21	28945.41
629.36	28617.73
629.51	29064.77
629.66	28905.62
629.81	28734.76
629.96	28638.80
630.11	28694.97
630.26	28732.42
630.41	28180.05
630.56	28608.37
630.71	28830.72
630.86	28636.45
631.01	28404.74
631.16	29127.97
631.31	28554.54
631.46	28573.26
631.61	28678.58
631.76	28856.46
631.91	28528.79
632.06	28524.11
632.21	28673.90
632.36	28851.78
632.51	28107.49
632.66	28339.21
632.81	28535.81
632.96	28697.31
633.10	28772.21
633.25	28423.47
633.40	28091.11
633.55	28755.82
633.70	28266.65
633.85	28163.67
634.00	28252.61
634.15	28531.13
634.30	28032.60
634.45	28362.61
634.60	28004.51
634.75	27873.44
634.90	28025.57
635.05	28191.75
635.19	28156.64
635.34	28521.77
635.49	28477.30
635.64	28374.31
635.79	28156.64
635.94	27850.03
636.09	28123.88
636.24	28264.31
636.39	28268.99
636.53	28332.18
636.68	27847.69
636.83	27880.46
636.98	28107.49
637.13	28390.70
637.28	27861.74
637.43	27901.53
637.57	27824.29
637.72	27866.42
637.87	27756.41
638.02	27592.58
638.17	27477.89
638.32	27674.49
638.46	27505.98
638.61	27632.36
638.76	27721.30
638.91	27534.06
639.06	27812.59
639.20	27510.66
639.35	27927.27
639.50	27630.02
639.65	28442.19
639.80	27910.89
639.94	28034.94
640.09	27620.66
640.24	27440.44
640.39	27433.42
640.54	27281.28
640.68	27213.41
640.83	27534.06
640.98	27480.23
641.13	27517.68
641.27	27590.24
641.42	27491.93
641.57	27271.92
641.72	27311.71
641.86	27168.94
642.01	27412.35
642.16	27168.94
642.31	27070.64
642.45	26902.12
642.60	27147.87
642.75	27206.39
642.90	26937.23
643.04	26941.91
643.19	27084.68
643.34	27339.80
643.48	27250.86
643.63	27597.26
643.78	27424.06
643.93	27199.37
644.07	27360.86
644.22	27424.06
644.37	27208.73
644.51	27257.88
644.66	27239.15
644.81	26946.59
644.95	27190.00
645.10	26991.06
645.25	27143.19
645.39	26848.29
645.54	27016.80
645.69	27239.15
645.83	27220.43
645.98	26967.65
646.13	26817.86
646.27	26738.28
646.42	26991.06
646.57	27002.76
646.71	26789.77
646.86	26857.65
647.00	26719.56
647.15	27037.87
647.30	27115.11
647.44	26471.46
647.59	27007.44
647.74	26906.80
647.88	26831.90
648.03	27215.75
648.17	26768.71
648.32	26679.77
648.47	27016.80
648.61	26862.33
648.76	26988.72
648.90	26885.73
649.05	26747.64
649.20	26527.63
649.34	26686.79
649.49	26595.51
649.63	26480.82
649.78	26347.41
649.92	26312.30
650.07	26780.41
650.21	26771.05
650.36	26609.55
650.51	26508.91
650.65	26632.96
650.80	26728.92
650.94	26721.90
651.09	26286.56
651.23	26263.15
651.38	26661.04
651.52	26309.96
651.67	26335.71
651.81	26169.53
651.96	26153.15
652.10	26309.96
652.25	26059.52
652.39	26529.97
652.54	26412.95
652.68	26452.73
652.83	26354.43
652.97	26384.86
653.12	26111.02
653.26	26286.56
653.41	26401.24
653.55	26122.72
653.70	26288.90
653.84	26204.64
653.99	25942.50
654.13	25837.17
654.27	25596.10
654.42	25759.94
654.56	25752.91
654.71	26176.55
654.85	25799.73
655.00	26043.14
655.14	25951.86
655.29	26008.03
655.43	26057.18
655.57	26036.12
655.72	25743.55
655.86	25848.88
656.01	25858.24
656.15	25839.51
656.30	25628.87
656.44	25883.98
656.58	25895.69
656.73	25729.51
656.87	25813.77
657.01	25766.96
657.16	25579.71
657.30	25883.98
657.45	25912.07
657.59	25584.40
657.73	25788.02
657.88	25853.56
658.02	25472.05
658.16	25848.88
658.31	25221.61
658.45	25544.61
658.60	25216.93
658.74	25163.10
658.88	25294.17
659.03	25186.50
659.17	24959.47
659.31	25235.66
659.46	25008.62
659.60	25621.84
659.74	25135.01
659.89	25202.89
660.03	25172.46
660.17	25092.88
660.32	25104.59
660.46	24917.34
660.60	24596.69
660.74	24734.78
660.89	24877.55
661.03	24830.74
661.17	24978.20
661.32	24805.00
661.46	24861.17
661.60	24973.52
661.74	24809.68
661.89	24659.88
662.03	25158.42
662.17	24842.45
662.31	24503.07
662.46	24833.08
662.60	24779.25
662.74	24599.03
662.88	24381.36
663.03	24388.38
663.17	24439.87
663.31	24355.61
663.45	24446.90
663.60	24400.08
663.74	24229.23
663.88	24355.61
664.02	24208.16
664.17	24929.05
664.31	24599.03
664.45	24100.50
664.59	24381.36
664.73	24032.62
664.88	24212.84
665.02	23878.15
665.16	23964.75
665.30	24095.82
665.44	24060.71
665.59	23828.99
665.73	23934.32
665.87	23536.43
666.01	24023.26
666.15	23906.23
666.29	23901.55
666.44	24002.19
666.58	23875.80
666.72	23726.01
666.86	24006.87
667.00	23707.29
667.14	24016.24
667.28	23571.54
667.43	23520.04
667.57	23468.55
667.71	23466.21
667.85	23548.13
667.99	23604.30
668.13	23339.82
668.27	23447.49
668.41	23440.47
668.56	23269.61
668.70	23325.78
668.84	23246.20
668.98	23435.78
669.12	22958.31
669.26	23358.55
669.40	23042.57
669.54	23520.04
669.68	22977.04
669.82	22843.63
669.96	22796.82
670.10	22904.48
670.25	22759.37
670.39	23023.85
670.53	22827.24
670.67	22593.19
670.81	22721.92
670.95	22656.39
671.09	22682.13
671.23	22686.81
671.37	22874.06
671.51	22473.82
671.65	22494.89
671.79	22485.53
671.93	22305.31
672.07	22443.40
672.21	22354.46
672.35	22106.36
672.49	22384.88
672.63	22487.87
672.77	21837.20
672.91	22064.23
673.05	22136.79
673.19	21799.75
673.33	22118.06
673.47	22092.32
673.61	22078.27
673.75	21963.59
673.89	22001.04
674.03	21961.25
674.17	21610.17
674.31	21944.86
674.45	21736.56
674.59	21841.88
674.73	22026.78
674.87	21516.54
675.01	21458.03
675.15	21481.44
675.29	21355.05
675.43	21312.92
675.56	21352.71
675.70	21516.54
675.84	21284.83
675.98	20900.98
676.12	21656.98
676.26	21247.38
676.40	21200.57
676.54	21411.22
676.68	21195.89
676.82	20657.57
676.96	20802.68
677.10	20627.14
677.23	20779.28
677.37	20908.01
677.51	20828.43
677.65	20243.29
677.79	20402.45
677.93	20346.28
678.07	19992.86
678.21	19962.43
678.34	20173.08
678.48	20280.74
678.62	20107.54
678.76	19885.19
678.90	20329.89
679.04	19974.13
679.18	19988.18
679.31	19798.59
679.45	19709.65
679.59	19697.95
679.73	19726.04
679.87	19349.21
680.00	19482.62
680.14	19524.75
680.28	19583.26
680.42	19648.80
680.56	19513.05
680.70	19461.55
680.83	19494.32
680.97	19190.05
681.11	19302.40
681.25	19255.59
681.39	18948.98
681.52	19171.33
681.66	18963.02
681.80	18956.00
681.94	18960.68
682.07	18665.77
682.21	18923.23
682.35	18359.16
682.49	18551.09
682.62	18457.46
682.76	18588.53
682.90	18501.93
683.04	18270.22
683.17	18188.30
683.31	18368.52
683.45	18478.53
683.59	18036.17
683.72	18104.04
683.86	18010.42
684.00	18092.34
684.13	17848.93
684.27	18181.28
684.41	17781.05
684.55	17729.56
684.68	17563.38
684.82	17642.96
684.96	17624.23
685.09	17418.27
685.23	17591.47
685.37	17256.77
685.50	17406.56
685.64	17495.50
685.78	17385.50
685.91	17425.29
686.05	17390.18
686.19	17301.24
686.32	17362.09
686.46	17273.15
686.60	16898.67
686.73	16908.03
686.87	16779.30
687.01	16439.92
687.14	16919.73
687.28	16472.69
687.42	16451.63
687.55	16425.88
687.69	16528.86
687.82	16315.87
687.96	16276.09
688.10	16397.79
688.23	16456.31
688.37	16027.99
688.50	16058.42
688.64	16140.33
688.78	16313.53
688.91	16210.55
689.05	15845.43
689.18	16077.14
689.32	15681.59
689.46	15786.91
689.59	15840.75
689.73	16016.29
689.86	15616.05
690.00	15583.29
690.13	15702.65
690.27	15564.56
690.41	15510.73
690.54	15328.17
690.68	15417.11
690.81	15225.18
690.95	15384.34
691.08	15281.36
691.22	15042.62
691.35	15044.96
691.49	15059.01
691.62	15091.77
691.76	14888.15
691.89	15059.01
692.03	14846.02
692.16	14752.40
692.30	14548.77
692.43	14780.48
692.57	14567.49
692.70	14843.68
692.84	14427.06
692.97	14436.42
693.11	14305.35
693.24	14413.02
693.38	14258.54
693.51	14253.86
693.65	14466.85
693.78	13923.85
693.92	14340.46
694.05	13930.87
694.19	13937.89
694.32	13975.34
694.45	13820.86
694.59	13963.64
694.72	13685.11
694.86	13668.73
694.99	13792.78
695.13	13551.70
695.26	13570.43
695.39	13460.42
695.53	13525.96
695.66	13467.44
695.80	13497.87
695.93	13282.54
696.07	13434.68
696.20	13383.18
696.33	13263.82
696.47	13102.32
696.60	13277.86
696.73	13074.23
696.87	12793.37
697.00	13029.76
697.14	12559.31
697.27	12582.72
697.40	12521.87
697.54	12575.70
697.67	12390.80
697.80	12449.31
697.94	12306.54
698.07	12217.60
698.21	12184.83
698.34	12355.69
698.47	12152.06
698.61	12219.94
698.74	12229.30
698.87	12381.43
699.01	12173.13
699.14	12198.87
699.27	12088.87
699.40	12121.63
699.54	11990.56
699.67	11693.32
699.80	11885.24
699.94	11793.96
700.07	11798.64
700.20	11686.29
700.34	11660.55
700.47	11396.07
700.60	11641.82
700.73	11721.40
700.87	11510.75
701.00	11456.92
701.13	11587.99
701.26	11260.32
701.40	11377.34
701.53	11337.56
701.66	11414.79
701.79	11131.59
701.93	11080.10
702.06	10920.94
702.19	10956.05
702.32	11019.24
702.46	10874.13
702.59	10705.61
702.72	10569.86
702.85	10733.70
702.99	10541.77
703.12	10637.73
703.25	10572.20
703.38	10665.82
703.51	10565.18
703.65	10380.28
703.78	10246.87
703.91	10527.73
704.04	10499.64
704.17	10401.34
704.31	10314.74
704.44	10083.03
704.57	9884.08
704.70	9818.55
704.83	9937.91
704.96	10001.11
705.10	9916.85
705.23	9851.31
>>>>>End Processed Spectral Data<<<<<
