SpectraSuite Data File
++++++++++++++++++++++++++++++++++++
Date: Fri Oct 18 13:58:05 GMT-05:00 2013
User: bianchi
Dark Spectrum Present: No
Reference Spectrum Present: No
Number of Sampled Component Spectra: 1
Spectrometers: USB2+H05261
Integration Time (usec): 50000 (USB2+H05261)
Spectra Averaged: 1 (USB2+H05261)
Boxcar Smoothing: 0 (USB2+H05261)
Correct for Electrical Dark: No (USB2+H05261)
Strobe/Lamp Enabled: No (USB2+H05261)
Correct for Detector Non-linearity: No (USB2+H05261)
Correct for Stray Light: No (USB2+H05261)
Number of Pixels in Processed Spectrum: 2048
>>>>>Begin Processed Spectral Data<<<<<
365.73	0.00
365.92	0.00
366.12	0.00
366.32	0.00
366.52	0.00
366.72	0.00
366.91	0.00
367.11	0.00
367.31	0.00
367.51	0.00
367.70	0.00
367.90	0.00
368.10	0.00
368.30	0.00
368.49	0.00
368.69	0.00
368.89	0.00
369.09	0.00
369.28	0.00
369.48	0.00
369.68	0.00
369.87	0.00
370.07	0.00
370.27	0.00
370.47	0.00
370.66	133.41
370.86	112.35
371.06	124.05
371.25	173.20
371.45	149.79
371.65	166.18
371.84	140.43
372.04	156.82
372.24	159.16
372.44	163.84
372.63	220.01
372.83	205.97
373.03	175.54
373.22	212.99
373.42	184.90
373.62	208.31
373.81	168.52
374.01	229.37
374.21	250.44
374.40	231.71
374.60	220.01
374.79	269.16
374.99	299.59
375.19	294.91
375.38	241.08
375.58	234.05
375.78	264.48
375.97	227.03
376.17	318.31
376.37	220.01
376.56	325.33
376.76	250.44
376.95	271.50
377.15	194.26
377.35	217.67
377.54	257.46
377.74	210.65
377.93	287.89
378.13	290.23
378.33	299.59
378.52	243.42
378.72	299.59
378.91	351.08
379.11	283.20
379.31	320.65
379.50	259.80
379.70	332.36
379.89	320.65
380.09	344.06
380.28	304.27
380.48	273.84
380.68	280.86
380.87	362.78
381.07	358.10
381.26	304.27
381.46	372.15
381.65	346.40
381.85	334.70
382.04	325.33
382.24	390.87
382.43	294.91
382.63	351.08
382.83	379.17
383.02	395.55
383.22	337.04
383.41	283.20
383.61	421.30
383.80	337.04
384.00	266.82
384.19	376.83
384.39	390.87
384.58	458.74
384.78	421.30
384.97	362.78
385.17	355.76
385.36	428.32
385.56	351.08
385.75	348.74
385.95	379.17
386.14	465.77
386.34	358.10
386.53	437.68
386.72	430.66
386.92	491.51
387.11	358.10
387.31	376.83
387.50	416.62
387.70	425.98
387.89	475.13
388.09	507.90
388.28	407.25
388.48	393.21
388.67	472.79
388.86	463.43
389.06	470.45
389.25	484.49
389.45	512.58
389.64	402.57
389.84	498.53
390.03	498.53
390.22	531.30
390.42	482.15
390.61	421.30
390.81	535.98
391.00	503.22
391.19	486.83
391.39	470.45
391.58	545.34
391.78	482.15
391.97	543.00
392.16	451.72
392.36	552.37
392.55	484.49
392.75	465.77
392.94	550.03
393.13	561.73
393.33	533.64
393.52	645.99
393.71	543.00
393.91	582.79
394.10	573.43
394.29	571.09
394.49	566.41
394.68	615.56
394.88	667.05
395.07	676.41
395.26	610.88
395.46	636.63
395.65	587.47
395.84	713.86
396.04	688.12
396.23	685.78
396.42	674.07
396.62	676.41
396.81	662.37
397.00	657.69
397.19	734.93
397.39	695.14
397.58	688.12
397.77	676.41
397.97	688.12
398.16	653.01
398.35	802.80
398.55	739.61
398.74	763.01
398.93	896.43
399.12	798.12
399.32	669.39
399.51	807.48
399.70	779.40
399.90	751.31
400.09	753.65
400.28	828.55
400.47	814.51
400.67	774.72
400.86	779.40
401.05	795.78
401.24	873.02
401.44	800.46
401.63	814.51
401.82	835.57
402.01	919.83
402.21	830.89
402.40	840.25
402.59	809.83
402.78	812.17
402.97	849.61
403.17	807.48
403.36	929.19
403.55	889.40
403.74	896.43
403.93	882.38
404.13	926.85
404.32	891.74
404.51	936.21
404.70	947.92
404.89	866.00
405.09	933.87
405.28	964.30
405.47	1043.88
405.66	1097.71
405.85	1001.75
406.05	1083.67
406.24	1104.73
406.43	1004.09
406.62	1088.35
406.81	1025.15
407.00	976.00
407.20	1018.13
407.39	1043.88
407.58	1172.61
407.77	1132.82
407.96	1097.71
408.15	1071.97
408.34	1086.01
408.54	1102.39
408.73	1144.52
408.92	1203.04
409.11	1163.25
409.30	1221.76
409.49	1163.25
409.68	1249.85
409.87	1174.95
410.07	1116.44
410.26	1160.91
410.45	1242.82
410.64	1226.44
410.83	1336.45
411.02	1287.29
411.21	1280.27
411.40	1282.61
411.59	1324.74
411.78	1249.85
411.98	1329.42
412.17	1336.45
412.36	1299.00
412.55	1345.81
412.74	1385.60
412.93	1467.52
413.12	1329.42
413.31	1481.56
413.50	1256.87
413.69	1439.43
413.88	1472.20
414.07	1502.62
414.26	1540.07
414.45	1591.56
414.64	1455.81
414.83	1579.86
415.02	1565.82
415.22	1537.73
415.41	1748.38
415.60	1607.95
415.79	1556.46
415.98	1565.82
416.17	1666.46
416.36	1614.97
416.55	1629.01
416.74	1600.93
416.93	1727.32
417.12	1638.38
417.31	1792.85
417.50	1720.29
417.69	1888.81
417.88	1657.10
418.07	1792.85
418.26	1809.23
418.45	1818.60
418.64	1867.75
418.83	1923.92
419.02	1760.08
419.21	1935.62
419.39	1867.75
419.58	1776.47
419.77	1806.89
419.96	1811.57
420.15	1954.35
420.34	1926.26
420.53	1959.03
420.72	1989.46
420.91	1947.33
421.10	2038.61
421.29	1923.92
421.48	2043.29
421.67	2045.63
421.86	2038.61
422.05	2008.18
422.24	2106.48
422.43	2069.03
422.61	2139.25
422.80	2108.82
422.99	2104.14
423.18	2080.74
423.37	2040.95
423.56	2101.80
423.75	2115.84
423.94	1919.24
424.13	2022.22
424.32	2043.29
424.50	2157.97
424.69	2256.28
424.88	2113.50
425.07	2097.12
425.26	2059.67
425.45	1935.62
425.64	1994.14
425.83	2097.12
426.01	2165.00
426.20	2193.08
426.39	2099.46
426.58	2073.71
426.77	2052.65
426.96	2146.27
427.15	2001.16
427.33	2118.18
427.52	2181.38
427.71	2167.34
427.90	2258.62
428.09	2209.47
428.28	2176.70
428.46	2267.98
428.65	2249.25
428.84	2253.94
429.03	2434.16
429.22	2218.83
429.40	2310.11
429.59	2342.88
429.78	2321.81
429.97	2239.89
430.16	2354.58
430.34	2197.76
430.53	2342.88
430.72	2490.33
430.91	2464.58
431.10	2275.00
431.28	2377.98
431.47	2406.07
431.66	2380.32
431.85	2441.18
432.03	2509.05
432.22	2452.88
432.41	2480.97
432.60	2487.99
432.79	2455.22
432.97	2455.22
433.16	2480.97
433.35	2532.46
433.54	2562.89
433.72	2623.74
433.91	2588.63
434.10	2614.38
434.28	2504.37
434.47	2698.64
434.66	2719.70
434.85	2569.91
435.03	2729.06
435.22	2602.68
435.41	2696.30
435.59	2609.70
435.78	2609.70
435.97	2736.09
436.16	2780.56
436.34	2703.32
436.53	2761.83
436.72	2899.92
436.90	2738.43
437.09	2841.41
437.28	2850.77
437.46	2862.48
437.65	2766.51
437.84	2949.08
438.02	2754.81
438.21	2832.05
438.40	2918.65
438.58	2944.39
438.77	2925.67
438.96	2913.97
439.14	2928.01
439.33	2939.71
439.52	2984.18
439.70	2951.42
439.89	3082.49
440.08	3143.34
440.26	3075.46
440.45	3185.47
440.63	3187.81
440.82	3126.96
441.01	3246.32
441.19	3183.13
441.38	3272.07
441.57	3365.69
441.75	3201.85
441.94	3356.33
442.12	3335.26
442.31	3391.44
442.50	3384.41
442.68	3405.48
442.87	3407.82
443.05	3445.27
443.24	3515.48
443.43	3559.95
443.61	3632.51
443.80	3529.53
443.98	3438.25
444.17	3435.91
444.35	3494.42
444.54	3590.38
444.73	3606.77
444.91	3616.13
445.10	3585.70
445.28	3595.06
445.47	3358.67
445.65	3492.08
445.84	3550.59
446.02	3520.17
446.21	3630.17
446.39	3473.36
446.58	3602.08
446.77	3625.49
446.95	3466.33
447.14	3620.81
447.32	3623.15
447.51	3564.64
447.69	3506.12
447.88	3583.36
448.06	3555.27
448.25	3817.41
448.43	3688.68
448.62	3695.71
448.80	3627.83
448.99	3569.32
449.17	3754.22
449.36	3651.24
449.54	3756.56
449.73	3833.80
449.91	3794.01
450.10	3733.15
450.28	3873.59
450.46	3892.31
450.65	3805.71
450.83	3789.33
451.02	3801.03
451.20	3803.37
451.39	3775.28
451.57	3845.50
451.76	3794.01
451.94	3784.65
452.13	3899.33
452.31	3833.80
452.49	3946.14
452.68	4030.40
452.86	3962.53
453.05	3999.98
453.23	4067.85
453.42	3946.14
453.60	4117.00
453.78	4184.88
453.97	3997.64
454.15	4004.66
454.34	4042.11
454.52	4051.47
454.70	4046.79
454.89	4177.86
455.07	4156.79
455.26	4245.73
455.44	4198.92
455.62	4325.31
455.81	4117.00
455.99	4297.22
456.17	4095.94
456.36	4294.88
456.54	4236.37
456.73	4353.40
456.91	4440.00
457.09	4402.55
457.28	4507.87
457.46	4374.46
457.64	4531.28
457.83	4411.91
458.01	4325.31
458.19	4521.92
458.38	4311.27
458.56	4622.56
458.74	4540.64
458.93	4449.36
459.11	4531.28
459.29	4423.61
459.48	4610.86
459.66	4575.75
459.84	4594.47
460.03	4709.16
460.21	4652.98
460.39	4622.56
460.57	4566.39
460.76	4652.98
460.94	4727.88
461.12	4716.18
461.31	4615.54
461.49	4613.20
461.67	4833.21
461.85	4975.98
462.04	4814.48
462.22	5048.54
462.40	4903.42
462.59	4894.06
462.77	4898.74
462.95	5041.51
463.13	4903.42
463.32	4938.53
463.50	4952.57
463.68	4961.94
463.86	4994.70
464.05	5104.71
464.23	5004.07
464.41	5102.37
464.59	4795.76
464.78	4961.94
464.96	4997.04
465.14	5053.22
465.32	5100.03
465.50	5174.92
465.69	5006.41
465.87	4898.74
466.05	4798.10
466.23	5114.07
466.41	5081.30
466.60	5235.78
466.78	5294.29
466.96	5102.37
467.14	5146.84
467.32	5184.29
467.51	5362.17
467.69	5259.18
467.87	5411.32
468.05	5383.23
468.23	5055.56
468.41	5357.49
468.60	5371.53
468.78	5411.32
468.96	5261.52
469.14	5408.98
469.32	5556.43
469.50	5373.87
469.69	5554.09
469.87	5495.58
470.05	5661.76
470.23	5533.03
470.41	5664.10
470.59	5584.52
470.77	5509.62
470.95	5792.83
471.14	5731.97
471.32	5619.63
471.50	5849.00
471.68	5743.67
471.86	5643.03
472.04	5757.72
472.22	5940.28
472.40	5614.95
472.58	5956.66
472.77	6071.35
472.95	6050.28
473.13	6228.17
473.31	5926.24
473.49	6040.92
473.67	6071.35
473.85	6012.84
474.03	6078.37
474.21	6251.57
474.39	6239.87
474.57	6253.91
474.75	6148.59
474.93	6272.64
475.12	6305.40
475.30	6223.48
475.48	6413.07
475.66	6370.94
475.84	6532.44
476.02	6558.18
476.20	6612.01
476.38	6722.02
476.56	6925.65
476.74	6747.76
476.92	6759.47
477.10	6686.91
477.28	6715.00
477.46	6649.46
477.64	6911.60
477.82	6998.20
478.00	7080.12
478.18	6974.80
478.36	7349.28
478.54	7190.13
478.72	7138.63
478.90	7255.66
479.08	7368.01
479.26	7501.42
479.44	7370.35
479.62	7545.89
479.80	7431.20
479.98	7648.87
480.16	7896.97
480.34	7836.11
480.52	7845.48
480.70	7822.07
480.88	7578.65
481.06	7946.12
481.24	7983.57
481.41	8098.25
481.59	8147.40
481.77	8236.35
481.95	8196.56
482.13	8198.90
482.31	8285.50
482.49	8582.74
482.67	8521.89
482.85	8465.72
483.03	8884.67
483.21	8741.90
483.39	8926.80
483.57	8905.74
483.74	9022.77
483.92	9081.28
484.10	9029.79
484.28	9029.79
484.46	9310.65
484.64	9413.63
484.82	9263.84
485.00	9298.95
485.18	9598.54
485.35	9619.60
485.53	9710.88
485.71	9694.50
485.89	9905.15
486.07	9848.97
486.25	9701.52
486.43	9879.40
486.61	9944.94
486.78	10207.08
486.96	10061.96
487.14	10352.19
487.32	10340.49
487.50	10345.17
487.68	10490.28
487.85	10663.48
488.03	10658.80
488.21	10911.58
488.39	10848.38
488.57	11239.25
488.75	11019.24
488.92	11187.76
489.10	11314.15
489.28	11337.56
489.46	11501.39
489.64	11548.20
489.81	11548.20
489.99	11632.46
490.17	11660.55
490.35	11712.04
490.53	11864.18
490.70	11784.60
490.88	12128.66
491.06	12325.26
491.24	12044.40
491.41	12140.36
491.59	12149.72
491.77	12332.28
491.95	12491.44
492.13	12645.91
492.30	12582.72
492.48	12774.64
492.66	12580.38
492.84	12601.44
493.01	13050.83
493.19	13062.53
493.37	13226.37
493.54	13207.64
493.72	13144.45
493.90	13287.22
494.08	13209.98
494.25	13425.31
494.43	13607.87
494.61	13504.89
494.79	13781.07
494.96	13771.71
495.14	13776.39
495.32	13984.70
495.49	14113.43
495.67	14211.73
495.85	14087.68
496.02	14377.91
496.20	14473.87
496.38	14216.41
496.55	14640.05
496.73	14614.30
496.91	14452.81
497.09	14909.21
497.26	14682.18
497.44	14764.10
497.62	14745.38
497.79	14794.53
497.97	15124.54
498.14	15187.74
498.32	15606.69
498.50	15260.29
498.67	15419.45
498.85	15386.68
499.03	15679.25
499.20	15592.65
499.38	15363.28
499.56	15934.37
499.73	15798.62
499.91	15850.11
500.08	16018.63
500.26	15669.89
500.44	16056.08
500.61	15941.39
500.79	15866.49
500.97	16458.65
501.14	16432.90
501.32	16276.09
501.49	16470.35
501.67	16294.81
501.84	16313.53
502.02	16575.67
502.20	16512.48
502.37	16964.20
502.55	16685.68
502.72	16526.52
502.90	16924.41
503.07	16762.92
503.25	16833.13
503.43	16760.58
503.60	16931.44
503.78	17027.40
503.95	16868.24
504.13	16992.29
504.30	17324.65
504.48	17167.83
504.65	17371.46
504.83	17432.31
505.01	17661.68
505.18	17500.19
505.36	17565.72
505.53	17539.97
505.71	17818.50
505.88	17844.24
506.06	17710.83
506.23	17874.67
506.41	17832.54
506.58	17954.25
506.76	18068.94
506.93	18127.45
507.11	17715.51
507.28	18047.87
507.46	18176.60
507.63	18326.39
507.81	18192.98
507.98	17980.00
508.16	18469.17
508.33	18464.49
508.50	18551.09
508.68	18218.73
508.85	18487.89
509.03	18958.34
509.20	18946.64
509.38	18899.83
509.55	19047.28
509.73	18970.04
509.90	18864.72
510.08	19019.19
510.25	18768.76
510.42	19227.50
510.60	18991.11
510.77	19538.79
510.95	19255.59
511.12	19290.70
511.30	19283.67
511.47	19648.80
511.64	19417.08
511.82	19587.94
511.99	19386.66
512.17	19616.03
512.34	19756.46
512.51	19910.94
512.69	19700.29
512.86	19906.26
513.04	19915.62
513.21	19889.87
513.38	20329.89
513.56	20294.79
513.73	19983.49
513.90	20018.60
514.08	20067.75
514.25	20414.15
514.43	20292.44
514.60	20442.24
514.77	20329.89
514.95	20592.03
515.12	20137.97
515.29	20444.58
515.47	20666.93
515.64	20758.21
515.81	20875.24
515.99	20786.30
516.16	21092.91
516.33	20739.49
516.51	21221.64
516.68	21060.14
516.85	20863.54
517.03	21078.86
517.20	20809.70
517.37	21139.72
517.54	21376.11
517.72	21202.91
517.89	21291.85
518.06	21408.88
518.24	21399.52
518.41	21317.60
518.58	21528.25
518.75	21483.78
518.93	21537.61
519.10	21659.32
519.27	21778.68
519.45	21497.82
519.62	21710.81
519.79	21813.79
519.96	22005.72
520.14	21982.31
520.31	21865.28
520.48	22628.30
520.65	21937.84
520.83	21671.02
521.00	21984.65
521.17	22277.22
521.34	22256.15
521.52	21956.57
521.69	22012.74
521.86	22555.74
522.03	22520.63
522.20	22731.28
522.38	22541.70
522.55	22735.96
522.72	22518.29
522.89	22611.92
523.07	22909.16
523.24	22785.12
523.41	23222.80
523.58	22979.38
523.75	22920.87
523.92	22852.99
524.10	22583.83
524.27	22867.03
524.44	22869.37
524.61	23178.33
524.78	22951.29
524.96	23115.13
525.13	23398.34
525.30	23229.82
525.47	23578.56
525.64	23101.09
525.81	23527.06
525.98	23489.62
526.16	23630.05
526.33	23491.96
526.50	23623.03
526.67	23302.37
526.84	23733.03
527.01	23562.17
527.18	23513.02
527.36	23733.03
527.53	23868.78
527.70	24416.47
527.87	24074.75
528.04	23934.32
528.21	23857.08
528.38	24044.32
528.55	24126.24
528.72	24105.18
528.89	23903.89
529.07	24016.24
529.24	24133.26
529.41	24350.93
529.58	24287.74
529.75	24147.31
529.92	24285.40
530.09	24407.11
530.26	24315.83
530.43	24348.59
530.60	24294.76
530.77	24512.43
530.94	24697.33
531.11	24325.19
531.28	24407.11
531.46	24889.26
531.63	24428.17
531.80	25081.18
531.97	24622.44
532.14	24919.68
532.31	24690.31
532.48	25235.66
532.65	24812.02
532.82	24833.08
532.99	25252.04
533.16	25099.90
533.33	25139.69
533.50	25495.46
533.67	24938.41
533.84	25214.59
534.01	25193.53
534.18	25188.85
534.35	25472.05
534.52	25343.32
534.69	25572.69
534.86	25287.15
535.03	25132.67
535.20	25738.87
535.37	25783.34
535.54	25200.55
535.71	25406.52
535.88	25549.29
536.05	25401.83
536.22	26043.14
536.38	25713.13
536.55	25752.91
536.72	25638.23
536.89	25591.42
537.06	25680.36
537.23	26080.59
537.40	25914.41
537.57	25694.40
537.74	26668.06
537.91	26211.66
538.08	26146.12
538.25	26267.83
538.42	25757.60
538.59	26405.92
538.75	25970.58
538.92	26298.26
539.09	26405.92
539.26	26532.31
539.43	26581.46
539.60	26288.90
539.77	26569.76
539.94	26288.90
540.11	26366.13
540.28	26335.71
540.44	26656.36
540.61	26431.67
540.78	26426.99
540.95	26366.13
541.12	26548.70
541.29	26522.95
541.46	26728.92
541.62	26714.87
541.79	26761.69
541.96	26412.95
542.13	26520.61
542.30	26478.48
542.47	26689.13
542.63	26909.14
542.80	27410.01
542.97	27295.33
543.14	27337.46
543.31	27332.78
543.48	27236.81
543.64	27470.87
543.81	27494.27
543.98	27721.30
544.15	27290.65
544.32	27662.79
544.48	28121.54
544.65	27847.69
544.82	27491.93
544.99	27044.89
545.16	27634.71
545.32	27461.51
545.49	27889.82
545.66	28056.00
545.83	28079.41
546.00	27740.03
546.16	27899.19
546.33	27475.55
546.50	27679.18
546.67	27807.90
546.83	27459.16
547.00	27562.15
547.17	27716.62
547.34	28292.40
547.50	28121.54
547.67	28261.97
547.84	27978.76
548.00	28156.64
548.17	28287.71
548.34	28240.90
548.51	28540.49
548.67	28205.80
548.84	28453.89
549.01	28161.33
549.18	28180.05
549.34	28313.46
549.51	28156.64
549.68	28201.11
549.84	28549.85
550.01	28603.69
550.18	28116.86
550.34	28575.60
550.51	28634.11
550.68	28840.08
550.84	28510.07
551.01	28690.29
551.18	28142.60
551.34	28095.79
551.51	28493.68
551.68	28774.55
551.84	28823.70
552.01	28355.59
552.18	28823.70
552.34	28498.36
552.51	28655.18
552.68	29003.92
552.84	28643.48
553.01	28577.94
553.18	28924.34
553.34	28744.12
553.51	29102.22
553.67	28914.98
553.84	29373.72
554.01	28914.98
554.17	29219.25
554.34	28858.81
554.51	28996.90
554.67	29282.44
554.84	29174.78
555.00	29282.44
555.17	29296.49
555.33	29392.45
555.50	29362.02
555.67	28975.83
555.83	28980.51
556.00	28994.56
556.16	29111.58
556.33	29050.73
556.50	29556.28
556.66	29516.50
556.83	28980.51
556.99	29696.72
557.16	29858.21
557.32	29401.81
557.49	29575.01
557.65	29497.77
557.82	29439.26
557.98	29116.26
558.15	29551.60
558.32	29483.73
558.48	29490.75
558.65	29528.20
558.81	30061.84
558.98	29893.32
559.14	30087.59
559.31	30008.01
559.47	29434.58
559.64	29898.00
559.80	29832.47
559.97	29926.09
560.13	29596.07
560.30	30071.20
560.46	29668.63
560.63	30108.65
560.79	29846.51
560.96	29865.24
561.12	29825.45
561.29	29956.52
561.45	29731.83
561.61	29907.37
561.78	29797.36
561.94	29944.81
562.11	30085.25
562.27	29935.45
562.44	30061.84
562.60	29804.38
562.77	30022.05
562.93	29862.90
563.10	30223.34
563.26	30279.51
563.42	30651.66
563.59	30368.45
563.75	30183.55
563.92	30143.76
564.08	29933.11
564.24	29916.73
564.41	30141.42
564.57	29905.02
564.74	29928.43
564.90	30637.61
565.07	30211.64
565.23	30391.86
565.39	30389.52
565.56	30483.14
565.72	30305.26
565.88	30181.21
566.05	30054.82
566.21	30157.80
566.38	30071.20
566.54	30242.06
566.70	30134.40
566.87	30380.15
567.03	30286.53
567.19	30689.10
567.36	30387.18
567.52	30335.68
567.68	30492.50
567.85	30190.57
568.01	30792.09
568.17	30321.64
568.34	30415.26
568.50	30536.97
568.66	30560.37
568.83	30909.11
568.99	30834.22
569.15	30356.75
569.32	30560.37
569.48	30398.88
569.64	30742.94
569.81	30532.29
569.97	30794.43
570.13	30733.57
570.30	30895.07
570.46	30567.40
570.62	30614.21
570.78	31056.57
570.95	30721.87
571.11	30415.26
571.27	30412.92
571.43	30618.89
571.60	30433.99
571.76	30534.63
571.92	30511.22
572.09	30895.07
572.25	30532.29
572.41	30838.90
572.57	30939.54
572.74	30581.44
572.90	30948.90
573.06	30471.43
573.22	30338.02
573.38	30890.39
573.55	30726.55
573.71	30834.22
573.87	30806.13
574.03	30354.41
574.20	30588.46
574.36	30600.16
574.52	30394.20
574.68	30813.15
574.84	31227.43
575.01	30778.04
575.17	30930.18
575.33	30672.72
575.49	30698.47
575.65	30850.60
575.82	30668.04
575.98	31103.38
576.14	31049.55
576.30	30749.96
576.46	30733.57
576.62	30885.71
576.79	30766.34
576.95	30813.15
577.11	30916.14
577.27	30663.36
577.43	31131.47
577.59	30986.35
577.75	30710.17
577.92	30735.92
578.08	30752.30
578.24	31283.60
578.40	30799.11
578.56	30787.41
578.72	30946.56
578.88	31115.08
579.04	31175.94
579.21	30787.41
579.37	31070.61
579.53	31002.74
579.69	30852.94
579.85	30792.09
580.01	30668.04
580.17	31316.37
580.33	31342.11
580.49	31124.44
580.65	31042.53
580.82	31082.31
580.98	31297.64
581.14	30976.99
581.30	31309.35
581.46	30775.70
581.62	30881.03
581.78	31082.31
581.94	31049.55
582.10	30759.32
582.26	31311.69
582.42	31161.89
582.58	30838.90
582.74	31180.62
582.90	31044.87
583.06	30984.01
583.22	31049.55
583.38	30815.49
583.54	31168.91
583.70	31051.89
583.86	31400.63
584.02	31070.61
584.18	31501.27
584.34	31271.90
584.50	31400.63
584.66	31241.47
584.82	30396.54
584.98	31138.49
585.14	31325.73
585.30	30684.42
585.46	30841.24
585.62	30965.29
585.78	31241.47
585.94	30986.35
586.10	31058.91
586.26	31381.90
586.42	31618.30
586.58	30995.71
586.74	31299.98
586.90	30866.98
587.06	31264.88
587.22	30902.09
587.38	31007.42
587.54	31105.72
587.70	31260.20
587.86	31082.31
588.02	31281.26
588.18	31299.98
588.34	31349.14
588.49	31243.81
588.65	31292.96
588.81	31119.76
588.97	31211.04
589.13	31257.85
589.29	31262.54
589.45	31250.83
589.61	31328.07
589.77	31618.30
589.93	31644.04
590.08	31620.64
590.24	31941.29
590.40	31690.85
590.56	31353.82
590.72	31204.02
590.88	31278.92
591.04	31047.21
591.20	31473.18
591.35	31758.73
591.51	31477.86
591.67	31604.25
591.83	31730.64
591.99	31374.88
592.15	31583.19
592.31	31772.77
592.46	30953.58
592.62	31381.90
592.78	31501.27
592.94	31262.54
593.10	31398.29
593.26	31527.02
593.41	31798.52
593.57	31896.82
593.73	31688.51
593.89	31889.80
594.05	31578.51
594.20	31372.54
594.36	31515.31
594.52	31260.20
594.68	31351.48
594.84	31253.17
594.99	31969.38
595.15	31707.24
595.31	32051.30
595.47	31707.24
595.62	31606.59
595.78	31606.59
595.94	31641.70
596.10	31552.76
596.25	31665.11
596.41	31232.11
596.57	31744.69
596.73	31662.77
596.88	31454.46
597.04	32053.64
597.20	31906.18
597.36	31576.17
597.51	31850.01
597.67	31454.46
597.83	31674.47
597.99	32130.87
598.14	31749.37
598.30	31409.99
598.46	31632.34
598.61	31615.96
598.77	31218.07
598.93	31737.66
599.09	31807.88
599.24	32261.94
599.40	31999.80
599.56	31672.13
599.71	31962.36
599.87	32074.70
600.03	32025.55
600.18	31669.79
600.34	31819.58
600.50	32060.66
600.65	32037.25
600.81	32130.87
600.97	32041.93
601.12	32032.57
601.28	31868.73
601.44	32297.05
601.59	32205.77
601.75	31702.56
601.91	31948.31
602.06	31819.58
602.22	31992.78
602.37	31405.31
602.53	31730.64
602.69	31910.86
602.84	32027.89
603.00	31948.31
603.16	31424.03
603.31	31957.67
603.47	31887.46
603.62	31889.80
603.78	31864.05
603.94	31463.82
604.09	31873.42
604.25	31587.87
604.40	31882.78
604.56	31812.56
604.71	31929.59
604.87	32011.51
605.03	32072.36
605.18	31489.57
605.34	32371.95
605.49	31714.26
605.65	31789.16
605.80	31557.44
605.96	31838.31
606.12	32055.98
606.27	31791.50
606.43	31351.48
606.58	31833.63
606.74	31618.30
606.89	31367.86
607.05	32004.49
607.20	32151.94
607.36	31730.64
607.51	31960.02
607.67	31711.92
607.82	31697.88
607.98	31538.72
608.13	31735.32
608.29	31508.29
608.44	31784.48
608.60	31665.11
608.75	31651.06
608.91	31761.07
609.06	31534.04
609.22	31889.80
609.37	31393.61
609.53	31229.77
609.68	31845.33
609.84	31463.82
609.99	31632.34
610.15	31285.94
610.30	31414.67
610.46	31395.95
610.61	31807.88
610.76	31620.64
610.92	31690.85
611.07	31435.74
611.23	31679.15
611.38	31381.90
611.54	31683.83
611.69	31112.74
611.84	31400.63
612.00	31517.65
612.15	31346.79
612.31	31541.06
612.46	31103.38
612.62	31679.15
612.77	31421.69
612.92	31852.35
613.08	31519.99
613.23	31461.48
613.39	31384.24
613.54	30955.93
613.69	31433.39
613.85	31227.43
614.00	31267.22
614.15	31367.86
614.31	30972.31
614.46	31555.10
614.62	30913.80
614.77	31250.83
614.92	31115.08
615.08	31094.02
615.23	30953.58
615.38	31154.87
615.54	31047.21
615.69	31091.68
615.84	30995.71
616.00	30890.39
616.15	31009.76
616.30	31044.87
616.46	31021.46
616.61	31168.91
616.76	31143.17
616.92	30969.97
617.07	30918.48
617.22	31028.48
617.37	30614.21
617.53	30923.16
617.68	30817.83
617.83	30799.11
617.99	30756.98
618.14	30700.81
618.29	30796.77
618.45	31173.60
618.60	30876.35
618.75	30974.65
618.90	30923.16
619.06	31094.02
619.21	30548.67
619.36	30948.90
619.51	30600.16
619.67	30724.21
619.82	30469.09
619.97	30792.09
620.12	30579.10
620.28	30682.08
620.43	30579.10
620.58	30583.78
620.73	31112.74
620.89	30609.53
621.04	30724.21
621.19	30824.86
621.34	30288.87
621.49	30754.64
621.65	30464.41
621.80	30464.41
621.95	30546.33
622.10	30485.48
622.25	30230.36
622.41	30345.05
622.56	30675.06
622.71	30656.34
622.86	30218.66
623.01	30382.49
623.16	30162.48
623.32	30419.94
623.47	30473.78
623.62	30277.17
623.77	30153.12
623.92	30632.93
624.07	30017.37
624.23	30396.54
624.38	30015.03
624.53	30501.86
624.68	30073.54
624.83	30354.41
624.98	30417.60
625.13	30143.76
625.29	30384.83
625.44	30115.67
625.59	30092.27
625.74	30195.25
625.89	30036.09
626.04	29769.27
626.19	29673.31
626.34	29876.94
626.49	29659.27
626.65	29773.95
626.80	30096.95
626.95	30115.67
627.10	29727.14
627.25	29769.27
627.40	29844.17
627.55	29481.39
627.70	29481.39
627.85	29558.63
628.00	29411.17
628.15	29883.96
628.30	29518.84
628.45	29680.33
628.60	29242.65
628.76	29979.92
628.91	29860.55
629.06	29839.49
629.21	29706.08
629.36	29582.03
629.51	29560.97
629.66	29626.50
629.81	29380.74
629.96	29453.30
630.11	29567.99
630.26	29502.45
630.41	29748.21
630.56	29153.71
630.71	29352.66
630.86	29263.72
631.01	29457.98
631.16	29252.02
631.31	29254.36
631.46	29390.11
631.61	29589.05
631.76	29226.27
631.91	29336.27
632.06	29146.69
632.21	29202.86
632.36	29406.49
632.51	29193.50
632.66	29399.47
632.81	28982.85
632.96	29345.64
633.10	29401.81
633.25	29242.65
633.40	29603.10
633.55	29434.58
633.70	29249.67
633.85	28776.89
634.00	28957.11
634.15	29020.30
634.30	28772.21
634.45	28758.16
634.60	28964.13
634.75	28922.00
634.90	28929.02
635.05	28957.11
635.19	28966.47
635.34	29399.47
635.49	28662.20
635.64	28992.22
635.79	29043.71
635.94	28650.50
636.09	28891.57
636.24	28786.25
636.39	28919.66
636.53	28971.15
636.68	28713.69
636.83	28652.84
636.98	29252.02
637.13	28816.68
637.28	28664.54
637.43	28837.74
637.57	28713.69
637.72	28826.04
637.87	28868.17
638.02	28620.07
638.17	28608.37
638.32	28203.46
638.46	28144.94
638.61	28079.41
638.76	28224.52
638.91	28212.82
639.06	28542.83
639.20	28245.58
639.35	28652.84
639.50	28383.68
639.65	28744.12
639.80	28559.22
639.94	28084.09
640.09	28559.22
640.24	27880.46
640.39	28318.14
640.54	27938.97
640.68	28121.54
640.83	27990.47
640.98	27976.42
641.13	28210.48
641.27	28709.01
641.42	28261.97
641.57	28325.16
641.72	28280.69
641.86	27838.33
642.01	27892.16
642.16	27990.47
642.31	27838.33
642.45	28058.34
642.60	27747.05
642.75	27672.15
642.90	27819.61
643.04	27814.93
643.19	27733.01
643.34	27850.03
643.48	27693.22
643.63	27887.48
643.78	27653.43
643.93	28194.09
644.07	27976.42
644.22	27988.13
644.37	28030.26
644.51	27899.19
644.66	27901.53
644.81	27742.37
644.95	28041.96
645.10	27379.59
645.25	27758.75
645.39	27686.20
645.54	27777.48
645.69	27866.42
645.83	27962.38
645.98	27936.63
646.13	27775.14
646.27	27866.42
646.42	27644.07
646.57	27833.65
646.71	27440.44
646.86	27742.37
647.00	27391.29
647.15	27445.12
647.30	27466.19
647.44	27129.15
647.59	27417.04
647.74	27344.48
647.88	27005.10
648.03	27615.98
648.17	27496.61
648.32	27765.78
648.47	27536.40
648.61	27070.64
648.76	27634.71
648.90	27190.00
649.05	27494.27
649.20	27571.51
649.34	26993.40
649.49	27304.69
649.63	26857.65
649.78	27136.17
649.92	26977.01
650.07	27325.75
650.21	27056.59
650.36	27278.94
650.51	27304.69
650.65	27016.80
650.80	27122.13
650.94	27374.91
651.09	27562.15
651.23	26714.87
651.38	27157.24
651.52	27274.26
651.67	26909.14
651.81	27173.62
651.96	27119.79
652.10	27147.87
652.25	27168.94
652.39	27328.10
652.54	27143.19
652.68	26960.63
652.83	26902.12
652.97	27047.23
653.12	26984.04
653.26	26930.20
653.41	27119.79
653.55	26609.55
653.70	26590.83
653.84	26955.95
653.99	26827.22
654.13	26771.05
654.27	26831.90
654.42	26665.72
654.56	26948.93
654.71	26712.53
654.85	26632.96
655.00	26700.83
655.14	26508.91
655.29	26272.51
655.43	26721.90
655.57	26567.42
655.72	26558.06
655.86	26607.21
656.01	26422.31
656.15	26553.38
656.30	26558.06
656.44	26349.75
656.58	25937.82
656.73	26569.76
656.87	26260.81
657.01	26214.00
657.16	26703.17
657.30	26649.34
657.45	26403.58
657.59	26111.02
657.73	26038.46
657.88	26256.13
658.02	26143.78
658.16	25869.94
658.31	26169.53
658.45	25827.81
658.60	25869.94
658.74	25979.95
658.88	26024.42
659.03	26040.80
659.17	26143.78
659.31	25965.90
659.46	25785.68
659.60	25778.66
659.74	26153.15
659.89	25944.84
660.03	25687.38
660.17	25933.14
660.32	25586.74
660.46	25603.12
660.60	25383.11
660.74	25820.79
660.89	25727.17
661.03	25355.02
661.17	25722.49
661.32	25371.41
661.46	25647.59
661.60	25654.61
661.74	25773.98
661.89	25593.76
662.03	25694.40
662.17	25596.10
662.31	25343.32
662.46	25560.99
662.60	25458.01
662.74	25067.14
662.88	25366.73
663.03	25102.25
663.17	25069.48
663.31	25057.78
663.45	24938.41
663.60	24961.81
663.74	25032.03
663.88	24844.79
664.02	25020.33
664.17	25027.35
664.31	24713.72
664.45	24751.17
664.59	24973.52
664.73	24877.55
664.88	25102.25
665.02	24350.93
665.16	24587.33
665.30	24720.74
665.44	24566.26
665.59	24758.19
665.73	24290.08
665.87	24390.72
666.01	24287.74
666.15	24837.76
666.29	24236.25
666.44	24439.87
666.58	24364.98
666.72	24381.36
666.86	23974.11
667.00	24517.11
667.14	23967.09
667.28	24023.26
667.43	24142.63
667.57	24119.22
667.71	24381.36
667.85	23946.02
667.99	23838.36
668.13	24086.45
668.27	24102.84
668.41	24051.34
668.56	23695.58
668.70	23934.32
668.84	23592.60
668.98	23875.80
669.12	23838.36
669.26	23845.38
669.40	23756.44
669.54	23843.04
669.68	23506.00
669.82	23487.28
669.96	23463.87
670.10	23363.23
670.25	23498.98
670.39	23501.32
670.53	23597.28
670.67	23159.60
670.81	23417.06
670.95	23412.38
671.09	23225.14
671.23	23049.60
671.37	23377.27
671.51	23445.15
671.65	23073.00
671.79	22937.25
671.93	22951.29
672.07	22998.10
672.21	22984.06
672.35	22553.40
672.49	22991.08
672.63	22977.04
672.77	22867.03
672.91	22504.25
673.05	22782.77
673.19	22775.75
673.33	22693.83
673.47	22438.72
673.61	22565.10
673.75	22654.05
673.89	22616.60
674.03	22279.56
674.17	22293.60
674.31	22490.21
674.45	22272.54
674.59	22295.94
674.73	22499.57
674.87	22443.40
675.01	22256.15
675.15	22153.17
675.29	22038.48
675.43	21916.78
675.56	21834.86
675.70	22001.04
675.84	21596.12
675.98	21387.82
676.12	22129.77
676.26	22052.53
676.40	21788.05
676.54	21790.39
676.68	21640.59
676.82	21223.98
676.96	21399.52
677.10	21315.26
677.23	21315.26
677.37	20966.52
677.51	20868.22
677.65	20823.75
677.79	21062.48
677.93	21214.62
678.07	20952.48
678.21	20828.43
678.34	20737.15
678.48	20746.51
678.62	20505.43
678.76	20589.69
678.90	20362.66
679.04	20465.64
679.18	20790.98
679.31	20294.79
679.45	20231.59
679.59	19964.77
679.73	20135.63
679.87	20133.29
680.00	20025.62
680.14	19917.96
680.28	19896.89
680.42	19969.45
680.56	19953.07
680.70	19723.69
680.83	20252.66
680.97	19590.28
681.11	20152.01
681.25	19482.62
681.39	19524.75
681.52	19384.32
681.66	19545.81
681.80	19143.24
681.94	19243.88
682.07	19269.63
682.21	19225.16
682.35	19143.24
682.49	19199.41
682.62	18860.04
682.76	18913.87
682.90	18967.70
683.04	19012.17
683.17	18766.42
683.31	18794.50
683.45	18895.14
683.59	18478.53
683.72	18733.65
683.86	18696.20
684.00	18260.86
684.13	18537.04
684.27	18464.49
684.41	18349.80
684.55	17963.61
684.68	18094.68
684.82	17909.78
684.96	18150.85
685.09	18321.71
685.23	17858.29
685.37	17895.74
685.50	18087.66
685.64	17841.90
685.78	17809.14
685.91	17671.04
686.05	17956.59
686.19	17781.05
686.32	17532.95
686.46	17359.75
686.60	17446.35
686.73	17273.15
686.87	17277.83
687.01	17214.64
687.14	17123.36
687.28	17315.28
687.42	17123.36
687.55	16999.31
687.69	17001.65
687.82	17362.09
687.96	16954.84
688.10	16854.20
688.23	16695.04
688.37	16713.77
688.50	16720.79
688.64	16578.01
688.78	16486.73
688.91	16449.28
689.05	16283.11
689.18	16510.14
689.32	15854.79
689.46	16030.33
689.59	16088.84
689.73	16280.77
689.86	16074.80
690.00	16088.84
690.13	16245.66
690.27	15953.09
690.41	15964.79
690.54	15999.90
690.68	15838.41
690.81	15704.99
690.95	15775.21
691.08	15704.99
691.22	15557.54
691.35	15489.67
691.49	15660.52
691.62	15470.94
691.76	15136.24
691.89	15463.92
692.03	15255.61
692.16	14909.21
692.30	15140.93
692.43	14750.06
692.57	14780.48
692.70	14890.49
692.84	14916.23
692.97	14745.38
693.11	14824.95
693.24	14817.93
693.38	14906.87
693.51	14609.62
693.65	14544.09
693.78	14347.48
693.92	14703.25
694.05	14410.68
694.19	14597.92
694.32	14141.52
694.45	14225.78
694.59	14033.85
694.72	13968.32
694.86	13823.20
694.99	13799.80
695.13	13776.39
695.26	13951.93
695.39	14073.64
695.53	13778.73
695.66	13877.04
695.80	13827.88
695.93	13797.46
696.07	13752.99
696.20	13710.86
696.33	13582.13
696.47	13446.38
696.60	13575.11
696.73	13488.51
696.87	13268.50
697.00	13167.85
697.14	13109.34
697.27	12936.14
697.40	12793.37
697.54	13027.42
697.67	12809.75
697.80	12835.50
697.94	12669.32
698.07	12664.64
698.21	12659.96
698.34	12776.98
698.47	12896.35
698.61	12844.86
698.74	12486.76
698.87	12339.30
699.01	12418.88
699.14	12531.23
699.27	12343.99
699.40	12400.16
699.54	12449.31
699.67	12173.13
699.80	12329.94
699.94	12070.14
700.07	12140.36
700.20	12084.19
700.34	11749.49
700.47	12018.65
700.60	11915.67
700.73	11859.49
700.87	11906.31
701.00	11793.96
701.13	11763.53
701.26	11569.27
701.40	11838.43
701.53	11623.10
701.66	11676.93
701.79	11463.94
701.93	11389.05
702.06	11272.02
702.19	11243.93
702.32	11391.39
702.46	11164.36
702.59	10890.51
702.72	10967.75
702.85	11103.50
702.99	10794.55
703.12	11044.99
703.25	10654.12
703.38	10731.36
703.51	10710.29
703.65	10738.38
703.78	10771.15
703.91	10623.69
704.04	10532.41
704.17	10700.93
704.31	10609.65
704.44	10579.22
704.57	10738.38
704.70	10265.59
704.83	10125.16
704.96	10157.92
705.10	10267.93
705.23	10279.63
>>>>>End Processed Spectral Data<<<<<
