SpectraSuite Data File
++++++++++++++++++++++++++++++++++++
Date: Fri Oct 18 13:58:04 GMT-05:00 2013
User: bianchi
Dark Spectrum Present: No
Reference Spectrum Present: No
Number of Sampled Component Spectra: 1
Spectrometers: USB2+H05261
Integration Time (usec): 50000 (USB2+H05261)
Spectra Averaged: 1 (USB2+H05261)
Boxcar Smoothing: 0 (USB2+H05261)
Correct for Electrical Dark: No (USB2+H05261)
Strobe/Lamp Enabled: No (USB2+H05261)
Correct for Detector Non-linearity: No (USB2+H05261)
Correct for Stray Light: No (USB2+H05261)
Number of Pixels in Processed Spectrum: 2048
>>>>>Begin Processed Spectral Data<<<<<
365.73	0.00
365.92	0.00
366.12	0.00
366.32	0.00
366.52	0.00
366.72	0.00
366.91	0.00
367.11	0.00
367.31	0.00
367.51	0.00
367.70	0.00
367.90	0.00
368.10	0.00
368.30	0.00
368.49	0.00
368.69	0.00
368.89	0.00
369.09	0.00
369.28	0.00
369.48	0.00
369.68	0.00
369.87	0.00
370.07	0.00
370.27	0.00
370.47	2.34
370.66	32.77
370.86	72.56
371.06	149.79
371.25	126.39
371.45	131.07
371.65	163.84
371.84	114.69
372.04	154.48
372.24	161.50
372.44	189.58
372.63	102.98
372.83	147.45
373.03	252.78
373.22	210.65
373.42	201.29
373.62	229.37
373.81	133.41
374.01	175.54
374.21	215.33
374.40	276.18
374.60	297.25
374.79	220.01
374.99	292.57
375.19	262.14
375.38	198.95
375.58	212.99
375.78	304.27
375.97	222.35
376.17	222.35
376.37	208.31
376.56	236.39
376.76	262.14
376.95	259.80
377.15	220.01
377.35	266.82
377.54	292.57
377.74	203.63
377.93	320.65
378.13	334.70
378.33	308.95
378.52	299.59
378.72	325.33
378.91	315.97
379.11	283.20
379.31	245.76
379.50	241.08
379.70	313.63
379.89	229.37
380.09	262.14
380.28	283.20
380.48	276.18
380.68	297.25
380.87	320.65
381.07	372.15
381.26	400.23
381.46	393.21
381.65	367.46
381.85	346.40
382.04	297.25
382.24	311.29
382.43	318.31
382.63	327.68
382.83	332.36
383.02	386.19
383.22	374.49
383.41	374.49
383.61	362.78
383.80	367.46
384.00	348.74
384.19	379.17
384.39	386.19
384.58	444.70
384.78	372.15
384.97	388.53
385.17	414.27
385.36	365.12
385.56	339.38
385.75	369.80
385.95	362.78
386.14	393.21
386.34	454.06
386.53	442.36
386.72	339.38
386.92	395.55
387.11	407.25
387.31	444.70
387.50	461.09
387.70	477.47
387.89	458.74
388.09	447.04
388.28	362.78
388.48	472.79
388.67	433.00
388.86	461.09
389.06	470.45
389.25	465.77
389.45	477.47
389.64	461.09
389.84	482.15
390.03	482.15
390.22	507.90
390.42	493.85
390.61	505.56
390.81	454.06
391.00	505.56
391.19	512.58
391.39	566.41
391.58	449.38
391.78	540.66
391.97	526.62
392.16	503.22
392.36	547.69
392.55	559.39
392.75	561.73
392.94	592.16
393.13	561.73
393.33	535.98
393.52	552.37
393.71	486.83
393.91	650.67
394.10	589.82
394.29	592.16
394.49	631.94
394.68	643.65
394.88	599.18
395.07	664.71
395.26	634.29
395.46	660.03
395.65	711.52
395.84	683.44
396.04	589.82
396.23	678.76
396.42	744.29
396.62	636.63
396.81	657.69
397.00	655.35
397.19	720.88
397.39	678.76
397.58	795.78
397.77	741.95
397.97	674.07
398.16	653.01
398.35	737.27
398.55	734.93
398.74	650.67
398.93	716.20
399.12	716.20
399.32	734.93
399.51	734.93
399.70	802.80
399.90	744.29
400.09	748.97
400.28	760.67
400.47	791.10
400.67	753.65
400.86	753.65
401.05	812.17
401.24	777.06
401.44	903.45
401.63	861.32
401.82	819.19
402.01	809.83
402.21	833.23
402.40	814.51
402.59	814.51
402.78	947.92
402.97	828.55
403.17	887.06
403.36	863.66
403.55	884.72
403.74	919.83
403.93	809.83
404.13	812.17
404.32	936.21
404.51	840.25
404.70	884.72
404.89	926.85
405.09	940.90
405.28	973.66
405.47	884.72
405.66	1001.75
405.85	1013.45
406.05	983.02
406.24	1067.28
406.43	1006.43
406.62	1055.58
406.81	1093.03
407.00	929.19
407.20	1025.15
407.39	1062.60
407.58	1053.24
407.77	1071.97
407.96	1123.46
408.15	1130.48
408.34	1057.92
408.54	1144.52
408.73	1132.82
408.92	1109.41
409.11	1125.80
409.30	1174.95
409.49	1114.10
409.68	1146.86
409.87	1128.14
410.07	1172.61
410.26	1156.22
410.45	1203.04
410.64	1210.06
410.83	1235.80
411.02	1252.19
411.21	1317.72
411.40	1254.53
411.59	1324.74
411.78	1200.69
411.98	1270.91
412.17	1263.89
412.36	1256.87
412.55	1275.59
412.74	1387.94
412.93	1397.30
413.12	1394.96
413.31	1416.02
413.50	1385.60
413.69	1397.30
413.88	1394.96
414.07	1378.58
414.26	1523.69
414.45	1432.41
414.64	1526.03
414.83	1528.37
415.02	1455.81
415.22	1516.67
415.41	1708.59
415.60	1483.90
415.79	1621.99
415.98	1605.61
416.17	1659.44
416.36	1598.59
416.55	1575.18
416.74	1654.76
416.93	1636.03
417.12	1614.97
417.31	1678.16
417.50	1643.06
417.69	1673.48
417.88	1816.26
418.07	1764.76
418.26	1952.01
418.45	1776.47
418.64	1844.34
418.83	1881.79
419.02	1788.17
419.21	1694.55
419.39	1792.85
419.58	1736.68
419.77	1879.45
419.96	1846.68
420.15	1893.49
420.34	1797.53
420.53	1907.54
420.72	1966.05
420.91	1790.51
421.10	1933.28
421.29	2062.01
421.48	1935.62
421.67	2015.20
421.86	1937.96
422.05	2015.20
422.24	1966.05
422.43	1984.77
422.61	2104.14
422.80	2113.50
422.99	2106.48
423.18	2047.97
423.37	2165.00
423.56	1977.75
423.75	2059.67
423.94	1935.62
424.13	1912.22
424.32	1874.77
424.50	2069.03
424.69	2115.84
424.88	2139.25
425.07	2090.10
425.26	1891.15
425.45	2076.06
425.64	2073.71
425.83	2083.08
426.01	2101.80
426.20	2120.53
426.39	2022.22
426.58	2064.35
426.77	2080.74
426.96	2106.48
427.15	2186.06
427.33	2160.31
427.52	2083.08
427.71	2193.08
427.90	2172.02
428.09	2279.68
428.28	2172.02
428.46	2160.31
428.65	2232.87
428.84	2188.40
429.03	2228.19
429.22	2160.31
429.40	2328.83
429.59	2284.36
429.78	2239.89
429.97	2122.87
430.16	2235.21
430.34	2293.72
430.53	2424.80
430.72	2375.64
430.91	2279.68
431.10	2232.87
431.28	2532.46
431.47	2513.74
431.66	2452.88
431.85	2415.43
432.03	2441.18
432.22	2466.92
432.41	2410.75
432.60	2403.73
432.79	2450.54
432.97	2417.77
433.16	2483.31
433.35	2548.84
433.54	2511.39
433.72	2485.65
433.91	2511.39
434.10	2607.36
434.28	2502.03
434.47	2497.35
434.66	2658.85
434.85	2693.96
435.03	2595.65
435.22	2579.27
435.41	2785.24
435.59	2656.51
435.78	2647.15
435.97	2686.94
436.16	2846.09
436.34	2736.09
436.53	2719.70
436.72	2750.13
436.90	2771.19
437.09	2761.83
437.28	2696.30
437.46	2729.06
437.65	2810.98
437.84	2867.16
438.02	2700.98
438.21	2729.06
438.40	2888.22
438.58	2848.43
438.77	2878.86
438.96	2967.80
439.14	2871.84
439.33	3028.65
439.52	2970.14
439.70	3054.40
439.89	3129.30
440.08	3073.12
440.26	3112.91
440.45	3295.47
440.63	3047.38
440.82	3110.57
441.01	3155.04
441.19	3049.72
441.38	3206.53
441.57	3206.53
441.75	3164.40
441.94	3503.78
442.12	3185.47
442.31	3405.48
442.50	3302.50
442.68	3403.14
442.87	3356.33
443.05	3332.92
443.24	3585.70
443.43	3403.14
443.61	3562.30
443.80	3473.36
443.98	3361.01
444.17	3353.99
444.35	3398.46
444.54	3513.14
444.73	3428.88
444.91	3463.99
445.10	3611.45
445.28	3445.27
445.47	3370.37
445.65	3410.16
445.84	3433.57
446.02	3412.50
446.21	3459.31
446.39	3564.64
446.58	3698.05
446.77	3522.51
446.95	3506.12
447.14	3576.34
447.32	3653.58
447.51	3442.93
447.69	3445.27
447.88	3482.72
448.06	3611.45
448.25	3578.68
448.43	3520.17
448.62	3630.17
448.80	3571.66
448.99	3487.40
449.17	3520.17
449.36	3674.64
449.54	3763.58
449.73	3815.07
449.91	3777.62
450.10	3861.88
450.28	3770.60
450.46	3754.22
450.65	3716.77
450.83	3733.15
451.02	3875.93
451.20	3894.65
451.39	3850.18
451.57	3812.73
451.76	3833.80
451.94	3889.97
452.13	3824.44
452.31	3946.14
452.49	3688.68
452.68	4004.66
452.86	3871.25
453.05	3889.97
453.23	3964.87
453.42	3864.22
453.60	3859.54
453.78	3974.23
453.97	3815.07
454.15	4035.08
454.34	3955.51
454.52	4035.08
454.70	3985.93
454.89	4112.32
455.07	4147.43
455.26	4100.62
455.44	4042.11
455.62	4156.79
455.81	4074.87
455.99	4126.36
456.17	4170.83
456.36	4205.94
456.54	4273.82
456.73	4238.71
456.91	4440.00
457.09	4311.27
457.28	4432.97
457.46	4318.29
457.64	4435.32
457.83	4376.80
458.01	4465.74
458.19	4308.93
458.38	4449.36
458.56	4547.66
458.74	4608.51
458.93	4451.70
459.11	4500.85
459.29	4461.06
459.48	4514.89
459.66	4594.47
459.84	4648.30
460.03	4587.45
460.21	4571.07
460.39	4554.68
460.57	4716.18
460.76	4664.69
460.94	4748.95
461.12	4720.86
461.31	4688.09
461.49	4779.37
461.67	4702.14
461.85	4833.21
462.04	4655.33
462.22	5029.81
462.40	4795.76
462.59	4854.27
462.77	4784.06
462.95	4762.99
463.13	4966.62
463.32	4954.91
463.50	4676.39
463.68	4931.51
463.86	4844.91
464.05	4947.89
464.23	4924.49
464.41	5158.54
464.59	4842.57
464.78	5104.71
464.96	4971.30
465.14	4901.08
465.32	4994.70
465.50	5067.26
465.69	5188.97
465.87	4891.72
466.05	4924.49
466.23	5057.90
466.41	5153.86
466.60	5214.71
466.78	5156.20
466.96	5118.75
467.14	5036.83
467.32	5144.50
467.51	5221.74
467.69	5076.62
467.87	5095.35
468.05	5249.82
468.23	5160.88
468.41	5156.20
468.60	5245.14
468.78	5277.91
468.96	5132.79
469.14	5357.49
469.32	5373.87
469.50	5245.14
469.69	5518.98
469.87	5275.57
470.05	5626.65
470.23	5481.53
470.41	5518.98
470.59	5593.88
470.77	5596.22
470.95	5575.16
471.14	5516.64
471.32	5577.50
471.50	5584.52
471.68	5671.12
471.86	5738.99
472.04	5706.23
472.22	5909.85
472.40	5771.76
472.58	5858.36
472.77	5940.28
472.95	5942.62
473.13	6092.41
473.31	6029.22
473.49	5837.30
473.67	6129.86
473.85	6050.28
474.03	5980.07
474.21	5928.58
474.39	6244.55
474.57	6246.89
474.75	6228.17
474.93	6293.70
475.12	6267.95
475.30	6502.01
475.48	6228.17
475.66	6410.73
475.84	6289.02
476.02	6450.52
476.20	6434.13
476.38	6656.48
476.56	6710.32
476.74	6656.48
476.92	6497.33
477.10	6633.08
477.28	6754.79
477.46	6677.55
477.64	6670.53
477.82	6796.92
478.00	7159.70
478.18	6981.82
478.36	7061.40
478.54	7290.77
478.72	7087.14
478.90	7080.12
479.08	7440.56
479.26	7297.79
479.44	7480.35
479.62	7496.74
479.80	7485.03
479.98	7733.13
480.16	7581.00
480.34	7733.13
480.52	7824.41
480.70	7707.38
480.88	7784.62
481.06	7889.95
481.24	7646.53
481.41	7955.48
481.59	7880.58
481.77	8049.10
481.95	8241.03
482.13	8360.39
482.31	8224.64
482.49	8285.50
482.67	8367.42
482.85	8493.80
483.03	8435.29
483.21	8648.28
483.39	8622.53
483.57	8699.77
483.74	8826.16
483.92	8802.75
484.10	8903.40
484.28	9132.77
484.46	9212.35
484.64	9298.95
484.82	9151.49
485.00	9380.87
485.18	9261.50
485.35	9268.52
485.53	9441.72
485.71	9547.05
485.89	9806.84
486.07	9673.43
486.25	9647.69
486.43	9661.73
486.61	9823.23
486.78	10012.81
486.96	10085.37
487.14	10181.33
487.32	10263.25
487.50	10249.21
487.68	10485.60
487.85	10572.20
488.03	10548.79
488.21	10796.89
488.39	10714.97
488.57	10853.06
488.75	10595.61
488.92	11073.07
489.10	11316.49
489.28	11112.86
489.46	11176.06
489.64	11370.32
489.81	11580.97
489.99	11473.31
490.17	11510.75
490.35	11726.08
490.53	11470.97
490.70	11852.47
490.88	11733.11
491.06	12018.65
491.24	11894.60
491.41	12133.34
491.59	12121.63
491.77	12208.23
491.95	12353.35
492.13	12446.97
492.30	12329.94
492.48	12643.57
492.66	12648.26
492.84	12313.56
493.01	13032.10
493.19	12575.70
493.37	13053.17
493.54	12987.63
493.72	12842.52
493.90	12849.54
494.08	13078.91
494.25	13420.63
494.43	13547.02
494.61	13511.91
494.79	13525.96
494.96	13549.36
495.14	13748.31
495.32	13792.78
495.49	13865.33
495.67	13914.48
495.85	13909.80
496.02	13949.59
496.20	14162.58
496.38	14281.95
496.55	14195.35
496.73	14366.21
496.91	14394.29
497.09	14352.16
497.26	14824.95
497.44	14611.96
497.62	14314.72
497.79	14822.61
497.97	14963.04
498.14	15042.62
498.32	15080.07
498.50	15246.25
498.67	15236.89
498.85	15183.06
499.03	15122.20
499.20	15166.67
499.38	15328.17
499.56	15187.74
499.73	15700.31
499.91	15587.97
500.08	15885.22
500.26	15564.56
500.44	15550.52
500.61	15784.57
500.79	15634.78
500.97	15962.45
501.14	16140.33
501.32	16170.76
501.49	16121.61
501.67	16112.25
501.84	16173.10
502.02	16285.45
502.20	16407.16
502.37	16552.27
502.55	16152.04
502.72	16336.94
502.90	16531.20
503.07	16271.40
503.25	16709.08
503.43	16681.00
503.60	16704.40
503.78	16606.10
503.95	17048.46
504.13	16816.75
504.30	16748.87
504.48	16795.68
504.65	16910.37
504.83	16994.63
505.01	17334.01
505.18	17261.45
505.36	17322.30
505.53	17020.38
505.71	17310.60
505.88	17598.49
506.06	17359.75
506.23	17577.42
506.41	17759.98
506.58	17657.00
506.76	17769.35
506.93	18012.76
507.11	17593.81
507.28	17825.52
507.46	17914.46
507.63	17872.33
507.81	18012.76
507.98	17949.57
508.16	18225.75
508.33	18239.79
508.50	18040.85
508.68	18139.15
508.85	18724.29
509.03	18492.57
509.20	18621.30
509.38	18464.49
509.55	18574.49
509.73	18581.51
509.90	19089.41
510.08	18548.75
510.25	18611.94
510.42	18735.99
510.60	19101.11
510.77	19009.83
510.95	19379.64
511.12	19087.07
511.30	18988.77
511.47	19054.30
511.64	19304.74
511.82	19501.34
511.99	19417.08
512.17	19559.86
512.34	19271.97
512.51	19293.04
512.69	19557.52
512.86	19648.80
513.04	19831.36
513.21	19428.79
513.38	19798.59
513.56	19985.83
513.73	19466.24
513.90	19623.05
514.08	19920.30
514.25	19964.77
514.43	20098.18
514.60	20243.29
514.77	19901.58
514.95	20311.17
515.12	20519.48
515.29	20084.14
515.47	20348.62
515.64	20357.98
515.81	20425.86
515.99	20645.87
516.16	20549.90
516.33	20585.01
516.51	20549.90
516.68	20540.54
516.85	20570.97
517.03	20903.32
517.20	20566.29
517.37	20933.75
517.54	20783.96
517.72	20903.32
517.89	20645.87
518.06	21099.93
518.24	21102.27
518.41	20884.60
518.58	21174.83
518.75	21219.30
518.93	21106.95
519.10	21256.75
519.27	21600.80
519.45	21343.35
519.62	21345.69
519.79	21568.04
519.96	21415.90
520.14	21544.63
520.31	21404.20
520.48	21970.61
520.65	21378.45
520.83	21940.18
521.00	21635.91
521.17	21771.66
521.34	21717.83
521.52	22054.87
521.69	22001.04
521.86	22237.43
522.03	22078.27
522.20	22265.52
522.38	22066.57
522.55	22221.05
522.72	22352.12
522.89	22380.20
523.07	22738.30
523.24	22623.62
523.41	22988.74
523.58	22267.86
523.75	22569.79
523.92	22249.13
524.10	22768.73
524.27	22583.83
524.44	22817.88
524.61	23063.64
524.78	22897.46
524.96	22717.24
525.13	22913.84
525.30	22955.97
525.47	23009.81
525.64	22906.82
525.81	23115.13
525.98	23463.87
526.16	23105.77
526.33	23339.82
526.50	23311.74
526.67	23264.92
526.84	23206.41
527.01	22974.70
527.18	23520.04
527.36	23662.82
527.53	23782.18
527.70	23587.92
527.87	23737.71
528.04	23772.82
528.21	23744.73
528.38	23805.59
528.55	23632.39
528.72	23491.96
528.89	23718.99
529.07	23672.18
529.24	23836.02
529.41	23995.17
529.58	23690.90
529.75	23908.57
529.92	23817.29
530.09	23761.12
530.26	23978.79
530.43	24315.83
530.60	24004.53
530.77	24149.65
530.94	23971.77
531.11	23718.99
531.28	24217.52
531.46	24081.77
531.63	24404.77
531.80	24652.86
531.97	24622.44
532.14	24238.59
532.31	24643.50
532.48	24486.68
532.65	24474.98
532.82	24493.71
532.99	24720.74
533.16	24734.78
533.33	24964.15
533.50	25343.32
533.67	24718.40
533.84	24898.62
534.01	24716.06
534.18	24526.47
534.35	24900.96
534.52	24779.25
534.69	25249.70
534.86	25191.19
535.03	25003.94
535.20	25659.29
535.37	25186.50
535.54	25132.67
535.71	25200.55
535.88	25233.32
536.05	25216.93
536.22	25273.10
536.38	25436.94
536.55	25486.09
536.72	25448.64
536.89	25462.69
537.06	25317.57
537.23	25277.79
537.40	25628.87
537.57	25481.41
537.74	25497.80
537.91	25947.18
538.08	25804.41
538.25	25273.10
538.42	25986.97
538.59	26176.55
538.75	25748.23
538.92	25748.23
539.09	25741.21
539.26	25673.34
539.43	26078.25
539.60	25577.37
539.77	25706.10
539.94	25830.15
540.11	25874.62
540.28	25965.90
540.44	26340.39
540.61	25912.07
540.78	26228.04
540.95	26139.10
541.12	26244.43
541.29	26288.90
541.46	26295.92
541.62	25940.16
541.79	26548.70
541.96	26178.89
542.13	26443.37
542.30	26387.20
542.47	26724.24
542.63	26473.80
542.80	26958.29
542.97	26703.17
543.14	27058.93
543.31	26576.78
543.48	26661.04
543.64	26897.44
543.81	26969.99
543.98	27187.66
544.15	26731.26
544.32	26930.20
544.48	27356.18
544.65	26960.63
544.82	27075.32
544.99	26782.75
545.16	26977.01
545.32	27175.96
545.49	27379.59
545.66	27431.08
545.83	27147.87
546.00	27763.43
546.16	27288.31
546.33	27384.27
546.50	27180.64
546.67	27255.54
546.83	27150.21
547.00	27098.72
547.17	27786.84
547.34	27615.98
547.50	27522.36
547.67	27721.30
547.84	27302.35
548.00	27999.83
548.17	27915.57
548.34	27482.57
548.51	27866.42
548.67	27700.24
548.84	27953.02
549.01	27410.01
549.18	27632.36
549.34	27990.47
549.51	27779.82
549.68	27683.86
549.84	27871.10
550.01	27740.03
550.18	27505.98
550.34	27791.52
550.51	28039.62
550.68	28144.94
550.84	27655.77
551.01	27983.44
551.18	27915.57
551.34	27936.63
551.51	28236.22
551.68	28280.69
551.84	28322.82
552.01	28147.28
552.18	28538.15
552.34	28147.28
552.51	28327.50
552.68	28329.84
552.84	28051.32
553.01	28063.02
553.18	28250.27
553.34	28744.12
553.51	28699.65
553.67	28402.40
553.84	29113.92
554.01	28709.01
554.17	28589.64
554.34	28664.54
554.51	28599.01
554.67	28285.37
554.84	28774.55
555.00	28573.26
555.17	28650.50
555.33	29085.84
555.50	28664.54
555.67	28809.65
555.83	29111.58
556.00	28842.42
556.16	29142.01
556.33	28603.69
556.50	28737.10
556.66	29043.71
556.83	28559.22
556.99	29153.71
557.16	29071.79
557.32	28439.85
557.49	29296.49
557.65	28912.64
557.82	28833.06
557.98	29092.86
558.15	28622.41
558.32	29280.10
558.48	28996.90
558.65	29399.47
558.81	29069.45
558.98	29305.85
559.14	29212.23
559.31	29209.89
559.47	29071.79
559.64	29598.41
559.80	29088.18
559.97	29465.00
560.13	29088.18
560.30	29509.47
560.46	29212.23
560.63	29462.66
560.79	29434.58
560.96	29553.94
561.12	29429.90
561.29	29338.62
561.45	29373.72
561.61	29603.10
561.78	29219.25
561.94	29287.12
562.11	29565.65
562.27	29567.99
562.44	29392.45
562.60	29666.29
562.77	29432.24
562.93	29256.70
563.10	29390.11
563.26	29486.07
563.42	29652.25
563.59	29715.44
563.75	29670.97
563.92	29909.71
564.08	29415.85
564.24	29565.65
564.41	29715.44
564.57	29720.12
564.74	29617.14
564.90	29874.60
565.07	29675.65
565.23	29776.30
565.39	29479.05
565.56	29912.05
565.72	29830.13
565.88	29493.09
566.05	29724.80
566.21	30000.99
566.38	29633.52
566.54	30202.27
566.70	30190.57
566.87	30024.39
567.03	29631.18
567.19	30295.89
567.36	29813.74
567.52	29795.02
567.68	30047.80
567.85	30110.99
568.01	29862.90
568.17	29947.15
568.34	30176.53
568.50	30136.74
568.66	30466.75
568.83	30080.56
568.99	29883.96
569.15	30127.38
569.32	29886.30
569.48	30286.53
569.64	30136.74
569.81	30153.12
569.97	29830.13
570.13	30141.42
570.30	30120.35
570.46	30359.09
570.62	30099.29
570.78	29986.94
570.95	29879.28
571.11	29942.47
571.27	30066.52
571.43	30242.06
571.60	30462.07
571.76	30331.00
571.92	29984.60
572.09	30249.08
572.25	30272.49
572.41	30572.08
572.57	30019.71
572.74	30405.90
572.90	29696.72
573.06	29858.21
573.22	30192.91
573.38	30323.98
573.55	30010.35
573.71	30508.88
573.87	30480.80
574.03	30323.98
574.20	30469.09
574.36	29806.72
574.52	29907.37
574.68	30239.72
574.84	30717.19
575.01	30405.90
575.17	30068.86
575.33	30087.59
575.49	30375.47
575.65	30148.44
575.82	30656.34
575.98	29968.22
576.14	30136.74
576.30	30431.65
576.46	30494.84
576.62	30520.59
576.79	30199.93
576.95	30302.92
577.11	30382.49
577.27	30312.28
577.43	30668.04
577.59	30157.80
577.75	30316.96
577.92	30073.54
578.08	30199.93
578.24	30221.00
578.40	30632.93
578.56	30192.91
578.72	30387.18
578.88	30808.47
579.04	31063.59
579.21	30267.81
579.37	30639.95
579.53	30478.46
579.69	30703.15
579.85	30012.69
580.01	30665.70
580.17	30284.19
580.33	30157.80
580.49	30511.22
580.65	30740.60
580.82	30328.66
580.98	30920.82
581.14	30518.25
581.30	30478.46
581.46	30265.47
581.62	30614.21
581.78	29986.94
581.94	30431.65
582.10	30558.03
582.26	30436.33
582.42	30464.41
582.58	30710.17
582.74	30829.54
582.90	30574.42
583.06	30499.52
583.22	30731.23
583.38	30536.97
583.54	30658.68
583.70	30518.25
583.86	30335.68
584.02	30466.75
584.18	30558.03
584.34	30946.56
584.50	30679.74
584.66	30600.16
584.82	30087.59
584.98	30604.84
585.14	30572.08
585.30	30167.16
585.46	31040.18
585.62	30368.45
585.78	30686.76
585.94	30316.96
586.10	30340.36
586.26	30558.03
586.42	30998.06
586.58	30906.77
586.74	30213.98
586.90	30178.87
587.06	30080.56
587.22	30583.78
587.38	30581.44
587.54	30749.96
587.70	30885.71
587.86	30670.38
588.02	30857.62
588.18	30771.02
588.34	31002.74
588.49	30670.38
588.65	30771.02
588.81	30588.46
588.97	30700.81
589.13	30857.62
589.29	30675.06
589.45	31124.44
589.61	30874.01
589.77	31077.63
589.93	30843.58
590.08	31421.69
590.24	31152.53
590.40	31189.98
590.56	30654.00
590.72	31005.08
590.88	30789.75
591.04	30497.18
591.20	31356.16
591.35	30984.01
591.51	31220.41
591.67	30923.16
591.83	31267.22
591.99	31044.87
592.15	31028.48
592.31	30829.54
592.46	30419.94
592.62	31082.31
592.78	30876.35
592.94	30902.09
593.10	30934.86
593.26	31213.38
593.41	30696.13
593.57	30993.37
593.73	30696.13
593.89	31309.35
594.05	31667.45
594.20	30689.10
594.36	31016.78
594.52	30712.51
594.68	31002.74
594.84	30855.28
594.99	31215.72
595.15	30998.06
595.31	31171.25
595.47	31440.42
595.62	31412.33
595.78	30995.71
595.94	31285.94
596.10	31182.96
596.25	30953.58
596.41	30726.55
596.57	30927.84
596.73	31138.49
596.88	31040.18
597.04	31215.72
597.20	31585.53
597.36	31419.35
597.51	31491.91
597.67	31133.81
597.83	30932.52
597.99	31405.31
598.14	30876.35
598.30	31049.55
598.46	31299.98
598.61	31229.77
598.77	31307.01
598.93	31218.07
599.09	31414.67
599.24	31550.42
599.40	31620.64
599.56	31248.49
599.71	31339.77
599.87	31419.35
600.03	31414.67
600.18	31229.77
600.34	30965.29
600.50	31220.41
600.65	31094.02
600.81	31468.50
600.97	31133.81
601.12	31896.82
601.28	31693.19
601.44	31681.49
601.59	31597.23
601.75	31512.97
601.91	31428.71
602.06	31056.57
602.22	31285.94
602.37	31442.76
602.53	31409.99
602.69	31365.52
602.84	31098.70
603.00	31442.76
603.16	31477.86
603.31	31541.06
603.47	31377.22
603.62	31461.48
603.78	31278.92
603.94	30991.03
604.09	31175.94
604.25	31030.82
604.40	31138.49
604.56	31164.23
604.71	31185.30
604.87	31173.60
605.03	31161.89
605.18	31089.34
605.34	31264.88
605.49	31012.10
605.65	31124.44
605.80	30352.07
605.96	31264.88
606.12	31288.28
606.27	31363.18
606.43	30862.30
606.58	31222.75
606.74	31323.39
606.89	31103.38
607.05	31056.57
607.20	31049.55
607.36	31019.12
607.51	31484.89
607.67	30820.17
607.82	31152.53
607.98	30611.87
608.13	30771.02
608.29	31051.89
608.44	31232.11
608.60	31494.25
608.75	31274.24
608.91	31063.59
609.06	30799.11
609.22	31335.09
609.37	30799.11
609.53	30452.71
609.68	31033.16
609.84	30735.92
609.99	31152.53
610.15	30555.69
610.30	31026.14
610.46	30689.10
610.61	30881.03
610.76	31082.31
610.92	30888.05
611.07	30869.33
611.23	30651.66
611.38	30883.37
611.54	30806.13
611.69	30574.42
611.84	30553.35
612.00	30663.36
612.15	30672.72
612.31	31082.31
612.46	30815.49
612.62	30679.74
612.77	30789.75
612.92	31035.50
613.08	30913.80
613.23	30941.88
613.39	30618.89
613.54	30663.36
613.69	30361.43
613.85	30740.60
614.00	30635.27
614.15	30630.59
614.31	30670.38
614.46	30815.49
614.62	30513.56
614.77	30831.88
614.92	30845.92
615.08	30473.78
615.23	30480.80
615.38	30284.19
615.54	30565.06
615.69	30153.12
615.84	30579.10
616.00	30455.05
616.15	30604.84
616.30	30602.50
616.46	30646.97
616.61	30562.72
616.76	30543.99
616.92	30307.60
617.07	30335.68
617.22	30295.89
617.37	30450.37
617.53	30600.16
617.68	30293.55
617.83	30316.96
617.99	30155.46
618.14	30005.67
618.29	30314.62
618.45	30277.17
618.60	30251.42
618.75	30403.56
618.90	30354.41
619.06	30178.87
619.21	29933.11
619.36	30403.56
619.51	29914.39
619.67	30134.40
619.82	30054.82
619.97	29867.58
620.12	29867.58
620.28	29621.82
620.43	30015.03
620.58	30558.03
620.73	30448.03
620.89	30216.32
621.04	30298.23
621.19	30029.07
621.34	30108.65
621.49	30054.82
621.65	30075.88
621.80	30071.20
621.95	29806.72
622.10	29888.64
622.25	30045.46
622.41	29776.30
622.56	29757.57
622.71	29965.88
622.86	30120.35
623.01	29465.00
623.16	29619.48
623.32	30045.46
623.47	30033.75
623.62	29776.30
623.77	29446.28
623.92	29535.22
624.07	29298.83
624.23	29511.81
624.38	29785.66
624.53	29170.10
624.68	29703.74
624.83	29685.01
624.98	29638.20
625.13	29387.77
625.29	29582.03
625.44	29481.39
625.59	29612.46
625.74	29546.92
625.89	29383.09
626.04	29179.46
626.19	29249.67
626.34	28896.25
626.49	29146.69
626.65	29474.37
626.80	29647.57
626.95	29336.27
627.10	29633.52
627.25	29420.53
627.40	29149.03
627.55	28950.09
627.70	29102.22
627.85	29102.22
628.00	28725.39
628.15	29153.71
628.30	28922.00
628.45	28830.72
628.60	29216.91
628.76	29230.95
628.91	29457.98
629.06	29046.05
629.21	29083.50
629.36	28790.93
629.51	28971.15
629.66	28912.64
629.81	28816.68
629.96	28952.43
630.11	29460.32
630.26	28631.77
630.41	28996.90
630.56	28882.21
630.71	29263.72
630.86	28889.23
631.01	28973.49
631.16	28652.84
631.31	28999.24
631.46	28414.10
631.61	28636.45
631.76	28577.94
631.91	28627.09
632.06	28620.07
632.21	28690.29
632.36	28741.78
632.51	28533.47
632.66	28870.51
632.81	28339.21
632.96	28898.59
633.10	28521.77
633.25	28526.45
633.40	28776.89
633.55	28650.50
633.70	28446.87
633.85	28189.41
634.00	28423.47
634.15	28046.64
634.30	28350.91
634.45	28484.32
634.60	28484.32
634.75	28175.37
634.90	28549.85
635.05	28432.83
635.19	28552.20
635.34	28613.05
635.49	28219.84
635.64	28634.11
635.79	28189.41
635.94	28114.52
636.09	28465.60
636.24	28582.62
636.39	27871.10
636.53	28189.41
636.68	27850.03
636.83	28318.14
636.98	27997.49
637.13	28229.20
637.28	28463.25
637.43	28414.10
637.57	28205.80
637.72	28353.25
637.87	27950.68
638.02	28079.41
638.17	28093.45
638.32	27962.38
638.46	27768.12
638.61	27754.07
638.76	27826.63
638.91	27552.79
639.06	27953.02
639.20	27960.04
639.35	27910.89
639.50	28180.05
639.65	28041.96
639.80	27791.52
639.94	27927.27
640.09	27681.52
640.24	27960.04
640.39	27955.36
640.54	27398.31
640.68	27508.32
640.83	27623.00
640.98	27330.44
641.13	27075.32
641.27	27826.63
641.42	27875.78
641.57	27538.74
641.72	27349.16
641.86	27445.12
642.01	27529.38
642.16	27613.64
642.31	27192.34
642.45	27206.39
642.60	27005.10
642.75	27276.60
642.90	27325.75
643.04	27400.65
643.19	27094.04
643.34	27515.34
643.48	27496.61
643.63	27501.29
643.78	27405.33
643.93	27601.94
644.07	27611.30
644.22	27520.02
644.37	27365.54
644.51	27082.34
644.66	27243.84
644.81	27138.51
644.95	27335.12
645.10	26897.44
645.25	27328.10
645.39	27058.93
645.54	27171.28
645.69	27587.89
645.83	27014.46
645.98	27208.73
646.13	26867.01
646.27	27503.64
646.42	26899.78
646.57	26958.29
646.71	27218.09
646.86	26979.36
647.00	27040.21
647.15	26731.26
647.30	27005.10
647.44	26597.85
647.59	26937.23
647.74	26497.20
647.88	27061.27
648.03	26700.83
648.17	27346.82
648.32	27005.10
648.47	27065.96
648.61	26794.45
648.76	26955.95
648.90	26773.39
649.05	27047.23
649.20	26817.86
649.34	26567.42
649.49	26473.80
649.63	26600.19
649.78	26855.31
649.92	26658.70
650.07	26616.57
650.21	26579.12
650.36	26717.22
650.51	26471.46
650.65	26368.48
650.80	26621.25
650.94	26506.57
651.09	26305.28
651.23	26345.07
651.38	26434.01
651.52	26436.35
651.67	26305.28
651.81	26883.39
651.96	26546.36
652.10	26169.53
652.25	26508.91
652.39	26473.80
652.54	26532.31
652.68	26232.72
652.83	26553.38
652.97	26670.40
653.12	26148.46
653.26	26008.03
653.41	26438.69
653.55	26410.60
653.70	25965.90
653.84	26174.21
653.99	25656.95
654.13	26080.59
654.27	26216.34
654.42	26019.74
654.56	26010.37
654.71	26410.60
654.85	26101.65
655.00	26197.62
655.14	26370.82
655.29	26092.29
655.43	26251.45
655.57	25940.16
655.72	26050.16
655.86	26359.11
656.01	25603.12
656.15	26183.57
656.30	25790.36
656.44	25654.61
656.58	25687.38
656.73	25612.48
656.87	26099.31
657.01	25823.13
657.16	26164.85
657.30	26171.87
657.45	25539.93
657.59	25792.70
657.73	25303.53
657.88	25851.22
658.02	25558.65
658.16	25692.06
658.31	25720.15
658.45	25474.39
658.60	25319.92
658.74	25172.46
658.88	25333.96
659.03	25261.40
659.17	25315.23
659.31	25467.37
659.46	25263.74
659.60	25525.88
659.74	25289.49
659.89	25586.74
660.03	25188.85
660.17	25336.30
660.32	25214.59
660.46	25310.55
660.60	24863.51
660.74	24924.36
660.89	25123.31
661.03	25137.35
661.17	24868.19
661.32	25228.63
661.46	25144.38
661.60	24999.26
661.74	24842.45
661.89	24828.40
662.03	25050.75
662.17	24961.81
662.31	24634.14
662.46	24961.81
662.60	24730.10
662.74	24800.32
662.88	24805.00
663.03	24203.48
663.17	24739.46
663.31	24325.19
663.45	24283.06
663.60	24439.87
663.74	24196.46
663.88	24467.96
664.02	24453.92
664.17	24444.56
664.31	24470.30
664.45	24329.87
664.59	24496.05
664.73	24437.53
664.88	24540.52
665.02	24264.33
665.16	24074.75
665.30	24067.73
665.44	24212.84
665.59	23786.86
665.73	24194.12
665.87	23658.14
666.01	24020.92
666.15	23889.85
666.29	23948.36
666.44	23910.91
666.58	23578.56
666.72	23873.46
666.86	24093.47
667.00	23819.63
667.14	23826.65
667.28	23803.25
667.43	23594.94
667.57	23576.22
667.71	23566.85
667.85	23756.44
667.99	23419.40
668.13	23431.10
668.27	23555.15
668.41	23726.01
668.56	23293.01
668.70	23527.06
668.84	23192.37
668.98	23400.68
669.12	23665.16
669.26	23461.53
669.40	23283.65
669.54	23288.33
669.68	23108.11
669.82	22874.06
669.96	23143.22
670.10	22918.53
670.25	22801.50
670.39	22944.27
670.53	22874.06
670.67	22508.93
670.81	22712.56
670.95	22883.42
671.09	22698.52
671.23	22895.12
671.37	22878.74
671.51	22878.74
671.65	22801.50
671.79	22738.30
671.93	22511.27
672.07	22899.80
672.21	22052.53
672.35	22305.31
672.49	22160.19
672.63	22298.28
672.77	22099.34
672.91	22424.67
673.05	22003.38
673.19	22333.39
673.33	22253.81
673.47	22153.17
673.61	22188.28
673.75	22251.47
673.89	22089.98
674.03	22157.85
674.17	21727.19
674.31	21729.53
674.45	21888.69
674.59	21729.53
674.73	21830.18
674.87	21493.14
675.01	21446.33
675.15	21678.04
675.29	21231.00
675.43	21591.44
675.56	21415.90
675.70	21413.56
675.84	21692.08
675.98	20641.18
676.12	21476.76
676.26	21607.83
676.40	21179.51
676.54	21284.83
676.68	20788.64
676.82	20886.94
676.96	20790.98
677.10	20816.72
677.23	20975.88
677.37	20917.37
677.51	20582.67
677.65	20507.77
677.79	20585.01
677.93	20390.75
678.07	20521.82
678.21	20184.78
678.34	20217.55
678.48	20067.75
678.62	20369.68
678.76	20449.26
678.90	19906.26
679.04	20077.12
679.18	20095.84
679.31	19737.74
679.45	19681.56
679.59	19707.31
679.73	19915.62
679.87	19508.37
680.00	19571.56
680.14	19166.65
680.28	19494.32
680.42	19424.11
680.56	19407.72
680.70	19286.01
680.83	19255.59
680.97	19255.59
681.11	19183.03
681.25	19386.66
681.39	19321.12
681.52	19239.20
681.66	18979.40
681.80	18890.46
681.94	18754.71
682.07	18792.16
682.21	18963.02
682.35	18628.32
682.49	18721.95
682.62	18733.65
682.76	18520.66
682.90	18548.75
683.04	18651.73
683.17	18377.89
683.31	18740.67
683.45	18518.32
683.59	18324.05
683.72	18328.74
683.86	18335.76
684.00	18097.02
684.13	18033.83
684.27	18005.74
684.41	18010.42
684.55	17694.45
684.68	17603.17
684.82	17460.40
684.96	17511.89
685.09	17600.83
685.23	17408.90
685.37	17406.56
685.50	17493.16
685.64	17556.36
685.78	17525.93
685.91	17710.83
686.05	17507.21
686.19	17121.02
686.32	17338.69
686.46	16915.05
686.60	16938.46
686.73	17081.23
686.87	17074.21
687.01	16826.11
687.14	16702.06
687.28	16657.59
687.42	16889.31
687.55	16383.75
687.69	16346.30
687.82	16652.91
687.96	16779.30
688.10	16524.18
688.23	16465.67
688.37	16498.44
688.50	16301.83
688.64	16446.94
688.78	16166.08
688.91	16074.80
689.05	16042.03
689.18	15913.30
689.32	15609.03
689.46	15864.15
689.59	15796.28
689.73	15807.98
689.86	15594.99
690.00	15894.58
690.13	15683.93
690.27	15367.96
690.41	15662.86
690.54	15480.30
690.68	15515.41
690.81	15796.28
690.95	15772.87
691.08	15475.62
691.22	15417.11
691.35	15339.87
691.49	15101.14
691.62	15267.31
691.76	14885.81
691.89	15091.77
692.03	14714.95
692.16	14712.61
692.30	14574.52
692.43	14319.40
692.57	14752.40
692.70	14408.34
692.84	14417.70
692.97	14523.02
693.11	14637.71
693.24	14445.79
693.38	14558.13
693.51	14539.41
693.65	14377.91
693.78	14202.37
693.92	14197.69
694.05	14272.59
694.19	14127.47
694.32	14174.28
694.45	14008.11
694.59	13813.84
694.72	13909.80
694.86	13619.58
694.99	13750.65
695.13	13635.96
695.26	13628.94
695.39	13432.33
695.53	13682.77
695.66	13633.62
695.80	13294.24
695.93	13474.46
696.07	13514.25
696.20	13509.57
696.33	13422.97
696.47	13226.37
696.60	13139.77
696.73	13172.54
696.87	12856.56
697.00	13128.06
697.14	12648.26
697.27	12608.47
697.40	12791.03
697.54	12772.30
697.67	12404.84
697.80	12650.60
697.94	12381.43
698.07	12306.54
698.21	12292.49
698.34	12327.60
698.47	12606.13
698.61	12585.06
698.74	12533.57
698.87	12461.01
699.01	12084.19
699.14	12217.60
699.27	11999.93
699.40	11969.50
699.54	12074.82
699.67	12044.40
699.80	11962.48
699.94	11920.35
700.07	11672.25
700.20	11630.12
700.34	11646.51
700.47	11557.57
700.60	11681.61
700.73	11557.57
700.87	11665.23
701.00	11569.27
701.13	11398.41
701.26	11463.94
701.40	11585.65
701.53	11365.64
701.66	11293.08
701.79	11047.33
701.93	11302.45
702.06	11176.06
702.19	10951.37
702.32	11094.14
702.46	10677.52
702.59	10972.43
702.72	10740.72
702.85	10649.44
702.99	10780.51
703.12	10630.71
703.25	10553.48
703.38	10429.43
703.51	10434.11
703.65	10300.70
703.78	10546.45
703.91	10588.58
704.04	10633.05
704.17	10614.33
704.31	10225.80
704.44	10434.11
704.57	10040.90
704.70	10136.86
704.83	9940.26
704.96	10080.69
705.10	9841.95
705.23	9921.53
>>>>>End Processed Spectral Data<<<<<
