SpectraSuite Data File
++++++++++++++++++++++++++++++++++++
Date: Fri Oct 18 13:58:09 GMT-05:00 2013
User: bianchi
Dark Spectrum Present: No
Reference Spectrum Present: No
Number of Sampled Component Spectra: 1
Spectrometers: USB2+H05261
Integration Time (usec): 50000 (USB2+H05261)
Spectra Averaged: 1 (USB2+H05261)
Boxcar Smoothing: 0 (USB2+H05261)
Correct for Electrical Dark: No (USB2+H05261)
Strobe/Lamp Enabled: No (USB2+H05261)
Correct for Detector Non-linearity: No (USB2+H05261)
Correct for Stray Light: No (USB2+H05261)
Number of Pixels in Processed Spectrum: 2048
>>>>>Begin Processed Spectral Data<<<<<
365.73	0.00
365.92	0.00
366.12	0.00
366.32	0.00
366.52	0.00
366.72	0.00
366.91	0.00
367.11	0.00
367.31	0.00
367.51	0.00
367.70	0.00
367.90	0.00
368.10	0.00
368.30	0.00
368.49	0.00
368.69	0.00
368.89	0.00
369.09	0.00
369.28	0.00
369.48	0.00
369.68	0.00
369.87	0.00
370.07	0.00
370.27	0.00
370.47	0.00
370.66	138.09
370.86	159.16
371.06	205.97
371.25	133.41
371.45	121.71
371.65	133.41
371.84	124.05
372.04	201.29
372.24	194.26
372.44	255.12
372.63	222.35
372.83	166.18
373.03	231.71
373.22	243.42
373.42	212.99
373.62	194.26
373.81	98.30
374.01	205.97
374.21	173.20
374.40	196.60
374.60	166.18
374.79	217.67
374.99	222.35
375.19	234.05
375.38	297.25
375.58	322.99
375.78	212.99
375.97	346.40
376.17	271.50
376.37	236.39
376.56	245.76
376.76	229.37
376.95	283.20
377.15	306.61
377.35	205.97
377.54	236.39
377.74	212.99
377.93	320.65
378.13	234.05
378.33	283.20
378.52	287.89
378.72	330.02
378.91	285.55
379.11	353.42
379.31	304.27
379.50	285.55
379.70	280.86
379.89	351.08
380.09	320.65
380.28	271.50
380.48	313.63
380.68	290.23
380.87	287.89
381.07	287.89
381.26	353.42
381.46	245.76
381.65	273.84
381.85	278.52
382.04	390.87
382.24	351.08
382.43	327.68
382.63	360.44
382.83	308.95
383.02	355.76
383.22	472.79
383.41	339.38
383.61	393.21
383.80	414.27
384.00	334.70
384.19	320.65
384.39	360.44
384.58	372.15
384.78	388.53
384.97	358.10
385.17	430.66
385.36	358.10
385.56	397.89
385.75	409.59
385.95	365.12
386.14	381.51
386.34	383.85
386.53	313.63
386.72	376.83
386.92	475.13
387.11	374.49
387.31	454.06
387.50	489.17
387.70	493.85
387.89	418.96
388.09	470.45
388.28	458.74
388.48	423.64
388.67	430.66
388.86	433.00
389.06	470.45
389.25	486.83
389.45	510.24
389.64	437.68
389.84	440.02
390.03	482.15
390.22	397.89
390.42	491.51
390.61	458.74
390.81	442.36
391.00	472.79
391.19	475.13
391.39	475.13
391.58	596.84
391.78	578.11
391.97	535.98
392.16	458.74
392.36	505.56
392.55	514.92
392.75	505.56
392.94	582.79
393.13	531.30
393.33	521.94
393.52	566.41
393.71	587.47
393.91	622.58
394.10	550.03
394.29	603.86
394.49	535.98
394.68	671.73
394.88	669.39
395.07	631.94
395.26	599.18
395.46	606.20
395.65	613.22
395.84	582.79
396.04	681.10
396.23	671.73
396.42	664.71
396.62	587.47
396.81	650.67
397.00	599.18
397.19	638.97
397.39	615.56
397.58	676.41
397.77	629.60
397.97	683.44
398.16	716.20
398.35	770.04
398.55	760.67
398.74	699.82
398.93	807.48
399.12	723.23
399.32	688.12
399.51	786.42
399.70	816.85
399.90	739.61
400.09	784.08
400.28	755.99
400.47	828.55
400.67	777.06
400.86	720.88
401.05	748.97
401.24	847.27
401.44	833.23
401.63	807.48
401.82	739.61
402.01	793.44
402.21	788.76
402.40	795.78
402.59	968.98
402.78	833.23
402.97	833.23
403.17	837.91
403.36	840.25
403.55	844.93
403.74	908.13
403.93	973.66
404.13	891.74
404.32	889.40
404.51	889.40
404.70	910.47
404.89	924.51
405.09	1053.24
405.28	889.40
405.47	957.28
405.66	952.60
405.85	1001.75
406.05	1039.20
406.24	936.21
406.43	947.92
406.62	1001.75
406.81	1090.69
407.00	940.90
407.20	1020.47
407.39	1097.71
407.58	1029.84
407.77	1034.52
407.96	1097.71
408.15	1114.10
408.34	1060.26
408.54	1050.90
408.73	1177.29
408.92	1046.22
409.11	1118.78
409.30	1151.54
409.49	1193.67
409.68	1181.97
409.87	1196.01
410.07	1179.63
410.26	1252.19
410.45	1303.68
410.64	1177.29
410.83	1240.48
411.02	1174.95
411.21	1273.25
411.40	1240.48
411.59	1277.93
411.78	1282.61
411.98	1275.59
412.17	1249.85
412.36	1270.91
412.55	1320.06
412.74	1345.81
412.93	1378.58
413.12	1345.81
413.31	1413.68
413.50	1476.88
413.69	1352.83
413.88	1481.56
414.07	1418.36
414.26	1432.41
414.45	1369.21
414.64	1380.92
414.83	1511.99
415.02	1444.11
415.22	1544.75
415.41	1551.78
415.60	1589.22
415.79	1652.42
415.98	1540.07
416.17	1551.78
416.36	1554.12
416.55	1619.65
416.74	1797.53
416.93	1572.84
417.12	1661.78
417.31	1682.85
417.50	1621.99
417.69	1769.44
417.88	1687.53
418.07	1799.87
418.26	1820.94
418.45	1708.59
418.64	1853.70
418.83	1884.13
419.02	1746.04
419.21	1694.55
419.39	1820.94
419.58	1839.66
419.77	1703.91
419.96	1870.09
420.15	1874.77
420.34	1853.70
420.53	1970.73
420.72	1902.86
420.91	1991.80
421.10	1891.15
421.29	2043.29
421.48	1860.73
421.67	2062.01
421.86	2005.84
422.05	1987.11
422.24	2008.18
422.43	1947.33
422.61	2022.22
422.80	1977.75
422.99	1984.77
423.18	2122.87
423.37	2031.58
423.56	2003.50
423.75	2001.16
423.94	1982.43
424.13	1905.20
424.32	1923.92
424.50	2019.88
424.69	2066.69
424.88	2101.80
425.07	2003.50
425.26	2026.90
425.45	2040.95
425.64	1947.33
425.83	2090.10
426.01	2101.80
426.20	2069.03
426.39	2071.37
426.58	2090.10
426.77	2038.61
426.96	2085.42
427.15	2090.10
427.33	2066.69
427.52	2176.70
427.71	2085.42
427.90	2078.40
428.09	2157.97
428.28	2122.87
428.46	2239.89
428.65	2282.02
428.84	2319.47
429.03	2387.35
429.22	2218.83
429.40	2275.00
429.59	2244.57
429.78	2256.28
429.97	2153.29
430.16	2317.13
430.34	2363.94
430.53	2284.36
430.72	2340.54
430.91	2272.66
431.10	2324.15
431.28	2370.96
431.47	2427.14
431.66	2487.99
431.85	2338.20
432.03	2434.16
432.22	2525.44
432.41	2427.14
432.60	2565.23
432.79	2410.75
432.97	2497.35
433.16	2396.71
433.35	2436.50
433.54	2576.93
433.72	2593.31
433.91	2588.63
434.10	2637.78
434.28	2588.63
434.47	2520.76
434.66	2562.89
434.85	2469.27
435.03	2621.40
435.22	2661.19
435.41	2684.59
435.59	2679.91
435.78	2635.44
435.97	2677.57
436.16	2661.19
436.34	2754.81
436.53	2708.00
436.72	2803.96
436.90	2649.49
437.09	2626.08
437.28	2621.40
437.46	2686.94
437.65	2712.68
437.84	2785.24
438.02	2897.58
438.21	2808.64
438.40	2747.79
438.58	2885.88
438.77	2867.16
438.96	2899.92
439.14	2965.46
439.33	2984.18
439.52	2993.55
439.70	3016.95
439.89	3162.06
440.08	2993.55
440.26	3047.38
440.45	3080.14
440.63	3103.55
440.82	3112.91
441.01	3258.03
441.19	3234.62
441.38	3300.16
441.57	3136.32
441.75	3253.34
441.94	3344.63
442.12	3314.20
442.31	3290.79
442.50	3384.41
442.68	3274.41
442.87	3236.96
443.05	3407.82
443.24	3386.76
443.43	3293.13
443.61	3309.52
443.80	3531.87
443.98	3342.28
444.17	3323.56
444.35	3403.14
444.54	3363.35
444.73	3393.78
444.91	3494.42
445.10	3543.57
445.28	3543.57
445.47	3534.21
445.65	3410.16
445.84	3431.23
446.02	3637.19
446.21	3342.28
446.39	3506.12
446.58	3559.95
446.77	3522.51
446.95	3524.85
447.14	3489.74
447.32	3602.08
447.51	3646.55
447.69	3599.74
447.88	3559.95
448.06	3527.19
448.25	3574.00
448.43	3658.26
448.62	3653.58
448.80	3611.45
448.99	3611.45
449.17	3616.13
449.36	3646.55
449.54	3604.42
449.73	3686.34
449.91	3875.93
450.10	3854.86
450.28	3885.29
450.46	3772.94
450.65	3749.54
450.83	3765.92
451.02	3843.16
451.20	3754.22
451.39	3733.15
451.57	3772.94
451.76	3779.97
451.94	3777.62
452.13	3999.98
452.31	3796.35
452.49	3857.20
452.68	3964.87
452.86	3850.18
453.05	3815.07
453.23	3950.82
453.42	3974.23
453.60	3838.48
453.78	3964.87
453.97	4065.51
454.15	3950.82
454.34	3906.35
454.52	3974.23
454.70	4042.11
454.89	4142.75
455.07	4025.72
455.26	4156.79
455.44	4142.75
455.62	4107.64
455.81	4077.21
455.99	4180.20
456.17	4224.67
456.36	4194.24
456.54	4194.24
456.73	4184.88
456.91	4355.74
457.09	4285.52
457.28	4442.34
457.46	4351.06
457.64	4320.63
457.83	4365.10
458.01	4475.10
458.19	4465.74
458.38	4407.23
458.56	4517.23
458.74	4444.68
458.93	4407.23
459.11	4355.74
459.29	4444.68
459.48	4507.87
459.66	4571.07
459.84	4638.94
460.03	4631.92
460.21	4517.23
460.39	4678.73
460.57	4681.07
460.76	4697.46
460.94	4702.14
461.12	4582.77
461.31	4737.24
461.49	4842.57
461.67	4695.11
461.85	4760.65
462.04	4662.35
462.22	4924.49
462.40	4643.62
462.59	4819.16
462.77	4868.31
462.95	4727.88
463.13	4875.34
463.32	4685.75
463.50	4875.34
463.68	4781.71
463.86	4805.12
464.05	4973.64
464.23	4849.59
464.41	5067.26
464.59	4957.25
464.78	4971.30
464.96	4954.91
465.14	4971.30
465.32	5060.24
465.50	5085.98
465.69	5004.07
465.87	5085.98
466.05	5128.11
466.23	5090.67
466.41	5123.43
466.60	5238.12
466.78	5153.86
466.96	5224.08
467.14	5121.09
467.32	5238.12
467.51	5334.08
467.69	5224.08
467.87	5050.88
468.05	5268.55
468.23	5188.97
468.41	5238.12
468.60	5212.37
468.78	5336.42
468.96	5210.03
469.14	5362.17
469.32	5397.28
469.50	5254.50
469.69	5416.00
469.87	5535.37
470.05	5444.09
470.23	5558.77
470.41	5448.77
470.59	5544.73
470.77	5514.30
470.95	5521.32
471.14	5687.50
471.32	5497.92
471.50	5767.08
471.68	5654.73
471.86	5825.59
472.04	5636.01
472.22	5825.59
472.40	5516.64
472.58	5701.54
472.77	5844.32
472.95	5851.34
473.13	6092.41
473.31	5837.30
473.49	5832.62
473.67	5790.49
473.85	5863.04
474.03	5961.34
474.21	6148.59
474.39	6104.12
474.57	6080.71
474.75	6155.61
474.93	6167.31
475.12	6338.17
475.30	6335.83
475.48	6209.44
475.66	6197.74
475.84	6345.19
476.02	6307.74
476.20	6317.11
476.38	6530.09
476.56	6686.91
476.74	6679.89
476.92	6562.86
477.10	6679.89
477.28	6597.97
477.46	6609.67
477.64	6754.79
477.82	6935.01
478.00	7023.95
478.18	6984.16
478.36	7080.12
478.54	7201.83
478.72	7133.95
478.90	7110.55
479.08	7140.97
479.26	7274.38
479.44	7358.64
479.62	7456.95
479.80	7463.97
479.98	7515.46
480.16	7557.59
480.34	7435.88
480.52	7688.66
480.70	7667.60
480.88	7613.76
481.06	7740.15
481.24	7889.95
481.41	7899.31
481.59	8074.85
481.77	8053.78
481.95	8287.84
482.13	8273.79
482.31	8205.92
482.49	8360.39
482.67	8344.01
482.85	8336.99
483.03	8517.21
483.21	8643.60
483.39	8671.68
483.57	8762.97
483.74	8711.47
483.92	8865.95
484.10	8800.41
484.28	9104.68
484.46	9170.22
484.64	9308.31
484.82	9254.48
485.00	9334.06
485.18	9380.87
485.35	9769.40
485.53	9451.08
485.71	9502.58
485.89	9895.78
486.07	9764.72
486.25	9671.09
486.43	9647.69
486.61	9909.83
486.78	10024.51
486.96	10047.92
487.14	10178.99
487.32	10394.32
487.50	10328.78
487.68	10487.94
487.85	10609.65
488.03	10406.02
488.21	10665.82
488.39	10724.33
488.57	10747.74
488.75	10672.84
488.92	10794.55
489.10	10974.77
489.28	10876.47
489.46	11255.64
489.64	10829.66
489.81	11372.66
489.99	11389.05
490.17	11375.00
490.35	11662.89
490.53	11702.68
490.70	11864.18
490.88	11798.64
491.06	12163.76
491.24	11920.35
491.41	11660.55
491.59	12145.04
491.77	12056.10
491.95	12159.08
492.13	12472.71
492.30	12315.90
492.48	12322.92
492.66	12472.71
492.84	12409.52
493.01	12636.55
493.19	12861.24
493.37	12734.85
493.54	12973.59
493.72	12753.58
493.90	12968.91
494.08	13107.00
494.25	13383.18
494.43	13383.18
494.61	13383.18
494.79	13437.02
494.96	13383.18
495.14	13579.79
495.32	13870.01
495.49	13425.31
495.67	13804.48
495.85	13984.70
496.02	13961.30
496.20	14066.62
496.38	14080.66
496.55	14125.13
496.73	14555.79
496.91	14129.81
497.09	14478.55
497.26	14654.09
497.44	14728.99
497.62	14544.09
497.79	14689.20
497.97	14560.47
498.14	14843.68
498.32	15115.18
498.50	14946.66
498.67	15059.01
498.85	14824.95
499.03	15166.67
499.20	15068.37
499.38	15122.20
499.56	15468.60
499.73	15534.14
499.91	15545.84
500.08	15477.96
500.26	15672.23
500.44	15840.75
500.61	15920.32
500.79	15688.61
500.97	15845.43
501.14	16240.98
501.32	16088.84
501.49	15779.89
501.67	16039.69
501.84	16334.60
502.02	16168.42
502.20	16610.78
502.37	16229.27
502.55	16369.71
502.72	16224.59
502.90	16308.85
503.07	16030.33
503.25	16350.98
503.43	16596.74
503.60	16741.85
503.78	16666.95
503.95	16856.54
504.13	16791.00
504.30	16975.91
504.48	16940.80
504.65	16788.66
504.83	17167.83
505.01	17172.51
505.18	16987.61
505.36	17418.27
505.53	17050.80
505.71	17319.96
505.88	17369.12
506.06	17249.75
506.23	17322.30
506.41	17568.06
506.58	17881.69
506.76	17528.27
506.93	17762.33
507.11	17649.98
507.28	17848.93
507.46	17762.33
507.63	17965.95
507.81	18195.32
507.98	18003.40
508.16	18160.22
508.33	18099.36
508.50	18363.84
508.68	18232.77
508.85	18326.39
509.03	18317.03
509.20	18527.68
509.38	18654.07
509.55	18672.79
509.73	18471.51
509.90	18485.55
510.08	18583.85
510.25	18478.53
510.42	18995.79
510.60	18787.48
510.77	18932.59
510.95	19147.92
511.12	18705.56
511.30	18991.11
511.47	19222.82
511.64	19138.56
511.82	19227.50
511.99	19115.16
512.17	19386.66
512.34	19140.90
512.51	19410.06
512.69	19337.51
512.86	19054.30
513.04	19946.05
513.21	19742.42
513.38	19686.25
513.56	20025.62
513.73	19389.00
513.90	19674.54
514.08	19660.50
514.25	19700.29
514.43	19861.79
514.60	19852.42
514.77	19953.07
514.95	20357.98
515.12	19906.26
515.29	19932.00
515.47	20510.11
515.64	20627.14
515.81	20393.09
515.99	20566.29
516.16	20680.97
516.33	20524.16
516.51	20528.84
516.68	20592.03
516.85	20451.60
517.03	20732.47
517.20	21032.05
517.37	20849.49
517.54	20922.05
517.72	20760.55
517.89	20830.77
518.06	21109.29
518.24	20863.54
518.41	20795.66
518.58	21130.36
518.75	21039.08
518.93	21532.93
519.10	21394.84
519.27	21144.40
519.45	21186.53
519.62	21446.33
519.79	21172.49
519.96	21387.82
520.14	21186.53
520.31	21387.82
520.48	21806.77
520.65	21731.87
520.83	21745.92
521.00	21781.03
521.17	21582.08
521.34	21736.56
521.52	21783.37
521.69	21986.99
521.86	22249.13
522.03	22277.22
522.20	21940.18
522.38	22211.68
522.55	21970.61
522.72	22150.83
522.89	22192.96
523.07	22546.38
523.24	22396.59
523.41	22838.95
523.58	22455.10
523.75	22693.83
523.92	22422.33
524.10	22340.41
524.27	22581.49
524.44	22656.39
524.61	22958.31
524.78	22923.21
524.96	22654.05
525.13	22953.63
525.30	22834.27
525.47	22661.07
525.64	23019.17
525.81	23220.45
525.98	22970.02
526.16	23157.26
526.33	23042.57
526.50	23323.44
526.67	23445.15
526.84	23084.70
527.01	22897.46
527.18	23108.11
527.36	23466.21
527.53	23410.04
527.70	23538.77
527.87	23716.65
528.04	23524.72
528.21	23634.73
528.38	23742.39
528.55	23557.49
528.72	23850.06
528.89	23585.58
529.07	23798.57
529.24	23885.17
529.41	24049.00
529.58	23730.69
529.75	23494.30
529.92	24037.30
530.09	23597.28
530.26	24070.07
530.43	24011.56
530.60	24156.67
530.77	23964.75
530.94	24276.04
531.11	24025.60
531.28	23889.85
531.46	24243.27
531.63	24081.77
531.80	24259.65
531.97	24463.28
532.14	24416.47
532.31	24231.57
532.48	24189.44
532.65	24266.67
532.82	24243.27
532.99	24655.20
533.16	24376.68
533.33	24671.59
533.50	24940.75
533.67	24980.54
533.84	24847.13
534.01	24566.26
534.18	24465.62
534.35	25032.03
534.52	25032.03
534.69	25092.88
534.86	25055.43
535.03	24416.47
535.20	24994.58
535.37	25050.75
535.54	25362.04
535.71	25280.13
535.88	25006.28
536.05	24664.57
536.22	25013.31
536.38	25132.67
536.55	25385.45
536.72	25429.92
536.89	25390.13
537.06	25301.19
537.23	25355.02
537.40	25481.41
537.57	25521.20
537.74	25413.54
537.91	25902.71
538.08	25687.38
538.25	25282.47
538.42	25771.64
538.59	25855.90
538.75	25439.28
538.92	25827.81
539.09	26064.21
539.26	25970.58
539.43	25851.22
539.60	26008.03
539.77	25773.98
539.94	25951.86
540.11	25935.48
540.28	25898.03
540.44	26118.04
540.61	26047.82
540.78	26157.83
540.95	26178.89
541.12	25958.88
541.29	26302.94
541.46	26174.21
541.62	26120.38
541.79	26012.71
541.96	26040.80
542.13	26019.74
542.30	26295.92
542.47	26469.12
542.63	26771.05
542.80	26794.45
542.97	26586.15
543.14	27129.15
543.31	26316.98
543.48	26438.69
543.64	26691.47
543.81	26927.86
543.98	26834.24
544.15	26827.22
544.32	26958.29
544.48	27431.08
544.65	26962.97
544.82	26888.07
544.99	26513.59
545.16	26930.20
545.32	26593.17
545.49	27353.84
545.66	27491.93
545.83	27260.22
546.00	27681.52
546.16	26960.63
546.33	26764.03
546.50	26899.78
546.67	26848.29
546.83	26937.23
547.00	27220.43
547.17	27419.38
547.34	27335.12
547.50	27147.87
547.67	27426.40
547.84	27466.19
548.00	27718.96
548.17	27480.23
548.34	27260.22
548.51	27751.73
548.67	27566.83
548.84	27690.88
549.01	27887.48
549.18	27632.36
549.34	27896.85
549.51	27496.61
549.68	27482.57
549.84	27426.40
550.01	27740.03
550.18	28044.30
550.34	27852.38
550.51	28489.00
550.68	28379.00
550.84	27520.02
551.01	27765.78
551.18	27777.48
551.34	27805.56
551.51	27953.02
551.68	27864.08
551.84	28259.63
552.01	27971.74
552.18	28205.80
552.34	28364.95
552.51	27971.74
552.68	28025.57
552.84	28247.93
553.01	28257.29
553.18	27969.40
553.34	28723.05
553.51	28620.07
553.67	28350.91
553.84	28404.74
554.01	28676.24
554.17	28348.57
554.34	28666.88
554.51	28446.87
554.67	28458.57
554.84	28472.62
555.00	28582.62
555.17	28425.81
555.33	28940.72
555.50	28458.57
555.67	28676.24
555.83	28680.92
556.00	28510.07
556.16	28975.83
556.33	28528.79
556.50	28456.23
556.66	28638.80
556.83	28657.52
556.99	29184.14
557.16	29055.41
557.32	28959.45
557.49	29202.86
557.65	28666.88
557.82	28835.40
557.98	28999.24
558.15	28870.51
558.32	28676.24
558.48	29163.08
558.65	29247.33
558.81	29237.97
558.98	28966.47
559.14	29099.88
559.31	28863.49
559.47	29242.65
559.64	29333.93
559.80	29226.27
559.97	29296.49
560.13	29006.26
560.30	29420.53
560.46	29027.32
560.63	29151.37
560.79	29553.94
560.96	29795.02
561.12	29167.76
561.29	28804.97
561.45	29542.24
561.61	29266.06
561.78	29312.87
561.94	29338.62
562.11	29687.36
562.27	29455.64
562.44	29343.30
562.60	29134.99
562.77	29277.76
562.93	29347.98
563.10	29738.85
563.26	29759.91
563.42	29715.44
563.59	29301.17
563.75	29277.76
563.92	29589.05
564.08	29488.41
564.24	29462.66
564.41	29237.97
564.57	29689.70
564.74	29635.86
564.90	29816.08
565.07	29495.43
565.23	29621.82
565.39	29645.23
565.56	29614.80
565.72	29537.56
565.88	29373.72
566.05	29490.75
566.21	29759.91
566.38	29614.80
566.54	29818.42
566.70	29898.00
566.87	30197.59
567.03	30026.73
567.19	29748.21
567.36	30087.59
567.52	29556.28
567.68	29720.12
567.85	29453.30
568.01	29612.46
568.17	29479.05
568.34	29912.05
568.50	30235.04
568.66	30288.87
568.83	30136.74
568.99	30000.99
569.15	29926.09
569.32	29797.36
569.48	29670.97
569.64	30092.27
569.81	29818.42
569.97	29958.86
570.13	30066.52
570.30	29984.60
570.46	29991.62
570.62	29942.47
570.78	29642.88
570.95	29612.46
571.11	30080.56
571.27	30174.19
571.43	29881.62
571.60	30038.44
571.76	29759.91
571.92	29919.07
572.09	30045.46
572.25	29717.78
572.41	30204.61
572.57	29893.32
572.74	30136.74
572.90	29944.81
573.06	30118.01
573.22	30340.36
573.38	29872.26
573.55	29844.17
573.71	30354.41
573.87	30558.03
574.03	30008.01
574.20	30176.53
574.36	30101.63
574.52	30099.29
574.68	30178.87
574.84	30146.10
575.01	30405.90
575.17	30003.33
575.33	30160.14
575.49	30031.41
575.65	30099.29
575.82	30689.10
575.98	29921.41
576.14	30148.44
576.30	30211.64
576.46	29975.24
576.62	30089.93
576.79	30176.53
576.95	29933.11
577.11	30003.33
577.27	30148.44
577.43	29956.52
577.59	30232.70
577.75	30171.85
577.92	30022.05
578.08	30328.66
578.24	29970.56
578.40	30071.20
578.56	30513.56
578.72	30295.89
578.88	30160.14
579.04	30349.73
579.21	30384.83
579.37	30235.04
579.53	30443.35
579.69	30150.78
579.85	30221.00
580.01	30190.57
580.17	30160.14
580.33	30431.65
580.49	30263.13
580.65	30590.80
580.82	30204.61
580.98	30712.51
581.14	30469.09
581.30	30211.64
581.46	30405.90
581.62	30483.14
581.78	29827.79
581.94	30197.59
582.10	30403.56
582.26	30316.96
582.42	29949.50
582.58	30256.11
582.74	30511.22
582.90	30607.19
583.06	30314.62
583.22	30101.63
583.38	30469.09
583.54	30604.84
583.70	30204.61
583.86	30340.36
584.02	30691.44
584.18	30429.30
584.34	30490.16
584.50	30658.68
584.66	30277.17
584.82	30513.56
584.98	30476.12
585.14	30302.92
585.30	30003.33
585.46	30480.80
585.62	30295.89
585.78	30457.39
585.94	30096.95
586.10	30876.35
586.26	30209.29
586.42	30382.49
586.58	30614.21
586.74	30628.25
586.90	30569.74
587.06	30506.54
587.22	30331.00
587.38	30445.69
587.54	30923.16
587.70	30951.24
587.86	30792.09
588.02	30817.83
588.18	30623.57
588.34	30778.04
588.49	30923.16
588.65	30394.20
588.81	30546.33
588.97	30462.07
589.13	30476.12
589.29	30714.85
589.45	30464.41
589.61	30883.37
589.77	30895.07
589.93	30991.03
590.08	30749.96
590.24	30799.11
590.40	30923.16
590.56	30904.43
590.72	30726.55
590.88	30745.28
591.04	30623.57
591.20	31005.08
591.35	31000.40
591.51	31154.87
591.67	31171.25
591.83	31063.59
591.99	30752.30
592.15	30710.17
592.31	30817.83
592.46	30522.93
592.62	30520.59
592.78	30834.22
592.94	30824.86
593.10	30859.96
593.26	30836.56
593.41	31026.14
593.57	30665.70
593.73	30785.07
593.89	31178.28
594.05	30815.49
594.20	30902.09
594.36	30682.08
594.52	31058.91
594.68	30735.92
594.84	30754.64
594.99	31164.23
595.15	30876.35
595.31	31299.98
595.47	30848.26
595.62	30955.93
595.78	31054.23
595.94	30625.91
596.10	31281.26
596.25	30831.88
596.41	30855.28
596.57	30501.86
596.73	30897.41
596.88	30855.28
597.04	31051.89
597.20	31091.68
597.36	31037.84
597.51	31143.17
597.67	30855.28
597.83	30810.81
597.99	30962.95
598.14	30939.54
598.30	31075.29
598.46	31299.98
598.61	30864.64
598.77	30939.54
598.93	30927.84
599.09	31002.74
599.24	31260.20
599.40	31290.62
599.56	30843.58
599.71	31648.72
599.87	31421.69
600.03	31117.42
600.18	30845.92
600.34	31243.81
600.50	31157.21
600.65	31065.93
600.81	31639.36
600.97	31218.07
601.12	31346.79
601.28	31232.11
601.44	31409.99
601.59	31339.77
601.75	30948.90
601.91	31353.82
602.06	31232.11
602.22	31094.02
602.37	31005.08
602.53	30848.26
602.69	31292.96
602.84	31161.89
603.00	31122.10
603.16	31323.39
603.31	31065.93
603.47	30967.63
603.62	30984.01
603.78	31112.74
603.94	30859.96
604.09	30721.87
604.25	30955.93
604.40	30656.34
604.56	30976.99
604.71	31044.87
604.87	31168.91
605.03	31079.97
605.18	31197.00
605.34	31145.51
605.49	30831.88
605.65	31197.00
605.80	31005.08
605.96	30895.07
606.12	30986.35
606.27	31316.37
606.43	31136.15
606.58	31028.48
606.74	31330.41
606.89	31218.07
607.05	31044.87
607.20	30890.39
607.36	30960.61
607.51	31187.64
607.67	30728.89
607.82	30635.27
607.98	31164.23
608.13	30883.37
608.29	31075.29
608.44	30478.46
608.60	31206.36
608.75	31037.84
608.91	31119.76
609.06	31023.80
609.22	31189.98
609.37	30548.67
609.53	31105.72
609.68	30984.01
609.84	30588.46
609.99	30951.24
610.15	30749.96
610.30	30892.73
610.46	30597.82
610.61	31391.26
610.76	31105.72
610.92	30705.49
611.07	30714.85
611.23	31063.59
611.38	30466.75
611.54	30618.89
611.69	30345.05
611.84	30569.74
612.00	30455.05
612.15	30583.78
612.31	31426.37
612.46	30417.60
612.62	30597.82
612.77	30644.63
612.92	30951.24
613.08	30513.56
613.23	30719.53
613.39	30490.16
613.54	30494.84
613.69	30368.45
613.85	30480.80
614.00	30300.58
614.15	30581.44
614.31	30174.19
614.46	30995.71
614.62	30616.55
614.77	30630.59
614.92	30515.90
615.08	30675.06
615.23	30293.55
615.38	30473.78
615.54	30099.29
615.69	30256.11
615.84	30235.04
616.00	30284.19
616.15	30143.76
616.30	30539.31
616.46	30096.95
616.61	30316.96
616.76	30576.76
616.92	30478.46
617.07	30216.32
617.22	30089.93
617.37	29825.45
617.53	30204.61
617.68	30401.22
617.83	30052.48
617.99	30036.09
618.14	29837.15
618.29	30164.82
618.45	30118.01
618.60	30529.95
618.75	30061.84
618.90	30188.23
619.06	29867.58
619.21	30061.84
619.36	30213.98
619.51	29986.94
619.67	29825.45
619.82	29907.37
619.97	29720.12
620.12	29855.87
620.28	29507.13
620.43	30338.02
620.58	29991.62
620.73	29804.38
620.89	30022.05
621.04	30122.69
621.19	29832.47
621.34	29603.10
621.49	29521.18
621.65	29607.78
621.80	29797.36
621.95	29823.11
622.10	29970.56
622.25	29284.78
622.41	29654.59
622.56	29743.53
622.71	30237.38
622.86	29614.80
623.01	29773.95
623.16	29270.74
623.32	29544.58
623.47	29488.41
623.62	29537.56
623.77	29317.55
623.92	29720.12
624.07	29488.41
624.23	29364.36
624.38	29577.35
624.53	29172.44
624.68	29619.48
624.83	29757.57
624.98	29343.30
625.13	29380.74
625.29	29532.88
625.44	29479.05
625.59	29219.25
625.74	28985.19
625.89	29223.93
626.04	29170.10
626.19	29151.37
626.34	29090.52
626.49	28975.83
626.65	29219.25
626.80	29221.59
626.95	29137.33
627.10	29212.23
627.25	29322.23
627.40	28840.08
627.55	28589.64
627.70	28900.94
627.85	29053.07
628.00	28889.23
628.15	28615.39
628.30	28985.19
628.45	28905.62
628.60	29102.22
628.76	28725.39
628.91	28980.51
629.06	28905.62
629.21	29090.52
629.36	28884.55
629.51	28844.76
629.66	29060.09
629.81	28837.74
629.96	28788.59
630.11	28383.68
630.26	28774.55
630.41	28662.20
630.56	28687.95
630.71	28870.51
630.86	28875.19
631.01	28753.48
631.16	28884.55
631.31	28804.97
631.46	28599.01
631.61	28879.87
631.76	28603.69
631.91	28446.87
632.06	28404.74
632.21	28467.94
632.36	28629.43
632.51	28531.13
632.66	28416.44
632.81	28540.49
632.96	28470.28
633.10	28292.40
633.25	28386.02
633.40	28821.36
633.55	28479.64
633.70	28297.08
633.85	27866.42
634.00	28112.17
634.15	28350.91
634.30	28297.08
634.45	28163.67
634.60	28151.96
634.75	28292.40
634.90	28039.62
635.05	28451.55
635.19	28325.16
635.34	28524.11
635.49	28409.42
635.64	28198.77
635.79	28044.30
635.94	28549.85
636.09	27922.59
636.24	28023.23
636.39	27953.02
636.53	27941.32
636.68	27875.78
636.83	28163.67
636.98	28254.95
637.13	28226.86
637.28	27859.40
637.43	28137.92
637.57	28346.23
637.72	27723.65
637.87	28032.60
638.02	27857.06
638.17	28098.13
638.32	27723.65
638.46	27782.16
638.61	27917.91
638.76	27611.30
638.91	27192.34
639.06	27538.74
639.20	27934.29
639.35	27604.28
639.50	27814.93
639.65	27800.88
639.80	27915.57
639.94	27676.83
640.09	28048.98
640.24	27714.28
640.39	27447.46
640.54	27253.20
640.68	27307.03
640.83	27433.42
640.98	27187.66
641.13	27119.79
641.27	27576.19
641.42	27592.58
641.57	27665.13
641.72	27332.78
641.86	27402.99
642.01	27201.71
642.16	27323.41
642.31	27117.45
642.45	27208.73
642.60	27215.75
642.75	27145.53
642.90	26960.63
643.04	26944.25
643.19	27124.47
643.34	27260.22
643.48	26967.65
643.63	27152.55
643.78	26895.10
643.93	27417.04
644.07	27372.57
644.22	27290.65
644.37	27007.44
644.51	27391.29
644.66	27023.83
644.81	26920.84
644.95	26867.01
645.10	26998.08
645.25	26876.37
645.39	27005.10
645.54	26913.82
645.69	26967.65
645.83	26831.90
645.98	27255.54
646.13	26604.87
646.27	26869.35
646.42	26700.83
646.57	27021.48
646.71	26686.79
646.86	26857.65
647.00	26911.48
647.15	26913.82
647.30	26958.29
647.44	26869.35
647.59	26892.76
647.74	26714.87
647.88	26513.59
648.03	26806.16
648.17	26930.20
648.32	26806.16
648.47	26913.82
648.61	26609.55
648.76	26738.28
648.90	27030.85
649.05	26782.75
649.20	26745.30
649.34	26794.45
649.49	26279.54
649.63	26314.64
649.78	26623.59
649.92	25979.95
650.07	26656.36
650.21	26455.08
650.36	26637.64
650.51	26665.72
650.65	26347.41
650.80	26567.42
650.94	26941.91
651.09	26356.77
651.23	26040.80
651.38	25909.73
651.52	25902.71
651.67	26235.06
651.81	26204.64
651.96	26108.68
652.10	26260.81
652.25	26419.97
652.39	26403.58
652.54	26380.18
652.68	26384.86
652.83	26277.19
652.97	26258.47
653.12	26125.06
653.26	26394.22
653.41	26246.77
653.55	26291.24
653.70	26001.01
653.84	25867.60
653.99	26155.49
654.13	25942.50
654.27	25970.58
654.42	25855.90
654.56	26059.52
654.71	25809.09
654.85	25830.15
655.00	26153.15
655.14	25954.20
655.29	25984.63
655.43	26026.76
655.57	25689.72
655.72	25694.40
655.86	25954.20
656.01	25640.57
656.15	25659.29
656.30	25596.10
656.44	25713.13
656.58	25675.68
656.73	25811.43
656.87	25628.87
657.01	25708.44
657.16	25708.44
657.30	25710.78
657.45	26036.12
657.59	25881.64
657.73	25500.14
657.88	25441.62
658.02	25324.60
658.16	25102.25
658.31	25443.96
658.45	25359.70
658.60	25242.68
658.74	25275.45
658.88	25483.75
659.03	25387.79
659.17	25743.55
659.31	25385.45
659.46	25238.00
659.60	25195.87
659.74	25139.69
659.89	25195.87
660.03	25310.55
660.17	25392.47
660.32	25022.67
660.46	25022.67
660.60	25088.20
660.74	24907.98
660.89	24926.71
661.03	24746.48
661.17	25083.52
661.32	24868.19
661.46	24584.99
661.60	24889.26
661.74	24608.39
661.89	24842.45
662.03	24863.51
662.17	24910.32
662.31	24751.17
662.46	24652.86
662.60	24847.13
662.74	24374.34
662.88	24599.03
663.03	24325.19
663.17	24402.43
663.31	24149.65
663.45	24435.19
663.60	24320.51
663.74	24332.21
663.88	24594.35
664.02	24334.55
664.17	24318.17
664.31	24390.72
664.45	24116.88
664.59	23861.76
664.73	24292.42
664.88	24238.59
665.02	24130.92
665.16	23955.38
665.30	24095.82
665.44	24009.22
665.59	23803.25
665.73	23782.18
665.87	23510.68
666.01	23838.36
666.15	24121.56
666.29	23852.40
666.44	23833.68
666.58	23616.01
666.72	23866.44
666.86	23758.78
667.00	23917.93
667.14	23611.32
667.28	23606.64
667.43	23784.52
667.57	23613.66
667.71	23412.38
667.85	23063.64
667.99	23206.41
668.13	23250.88
668.27	23475.57
668.41	23342.16
668.56	23442.81
668.70	23257.90
668.84	23257.90
668.98	23005.13
669.12	23421.74
669.26	23220.45
669.40	22932.57
669.54	23384.29
669.68	23243.86
669.82	23112.79
669.96	22820.22
670.10	22403.61
670.25	22960.66
670.39	22724.26
670.53	22752.35
670.67	22918.53
670.81	22948.95
670.95	22883.42
671.09	22719.58
671.23	22672.77
671.37	22710.22
671.51	22740.64
671.65	22574.47
671.79	22892.78
671.93	22588.51
672.07	22394.25
672.21	22188.28
672.35	22204.66
672.49	22157.85
672.63	22075.93
672.77	22019.76
672.91	21884.01
673.05	22228.07
673.19	22251.47
673.33	22108.70
673.47	21865.28
673.61	21996.35
673.75	21905.07
673.89	22267.86
674.03	21884.01
674.17	21652.30
674.31	21853.58
674.45	21631.23
674.59	21605.49
674.73	21523.57
674.87	21146.74
675.01	21472.07
675.15	21582.08
675.29	21446.33
675.43	21752.94
675.56	21174.83
675.70	21462.71
675.84	21282.49
675.98	20760.55
676.12	21231.00
676.26	21249.72
676.40	21177.17
676.54	21090.57
676.68	21247.38
676.82	20292.44
676.96	20725.44
677.10	20636.50
677.23	20706.72
677.37	20877.58
677.51	20673.95
677.65	20683.31
677.79	20257.34
677.93	20552.24
678.07	20266.70
678.21	20397.77
678.34	20524.16
678.48	19950.73
678.62	20126.27
678.76	20002.22
678.90	19988.18
679.04	19990.52
679.18	19768.16
679.31	19735.40
679.45	19482.62
679.59	19552.84
679.73	19538.79
679.87	19688.59
680.00	19403.04
680.14	19538.79
680.28	19445.17
680.42	19557.52
680.56	19246.23
680.70	19232.18
680.83	19194.73
680.97	19384.32
681.11	18972.38
681.25	19131.54
681.39	19152.60
681.52	19176.01
681.66	19234.52
681.80	18878.76
681.94	18918.55
682.07	18616.62
682.21	18518.32
682.35	18436.40
682.49	18504.28
682.62	18462.15
682.76	18321.71
682.90	18478.53
683.04	18544.06
683.17	18661.09
683.31	18375.55
683.45	18471.51
683.59	18436.40
683.72	18052.55
683.86	18045.53
684.00	18150.85
684.13	18054.89
684.27	17547.00
684.41	17851.27
684.55	17673.39
684.68	17717.86
684.82	17675.73
684.96	17565.72
685.09	17511.89
685.23	17497.84
685.37	17448.69
685.50	17652.32
685.64	17481.46
685.78	17392.52
685.91	17659.34
686.05	17291.88
686.19	17509.55
686.32	17289.54
686.46	16791.00
686.60	16940.80
686.73	16891.65
686.87	16893.99
687.01	16446.94
687.14	16863.56
687.28	16620.14
687.42	16599.08
687.55	16521.84
687.69	16587.38
687.82	16723.13
687.96	16348.64
688.10	16526.52
688.23	16465.67
688.37	16273.74
688.50	16409.50
688.64	16365.03
688.78	16126.29
688.91	16180.12
689.05	16437.58
689.18	16173.10
689.32	15894.58
689.46	15758.83
689.59	15578.61
689.73	15901.60
689.86	15569.24
690.00	15592.65
690.13	15555.20
690.27	15550.52
690.41	15466.26
690.54	15501.37
690.68	15342.21
690.81	15419.45
690.95	15517.75
691.08	15667.55
691.22	15419.45
691.35	14930.28
691.49	15241.57
691.62	15075.39
691.76	14714.95
691.89	14471.53
692.03	14743.03
692.16	14700.90
692.30	14633.03
692.43	14738.35
692.57	14420.04
692.70	14370.89
692.84	14501.96
692.97	14698.56
693.11	14139.18
693.24	14387.27
693.38	14324.08
693.51	14270.25
693.65	14066.62
693.78	14190.67
693.92	14005.77
694.05	14029.17
694.19	13991.72
694.32	14134.50
694.45	13692.13
694.59	13783.41
694.72	13472.12
694.86	13598.51
694.99	13289.56
695.13	13500.21
695.26	13549.36
695.39	13493.19
695.53	13439.36
695.66	13509.57
695.80	13221.69
695.93	13451.06
696.07	13387.86
696.20	13530.64
696.33	12910.40
696.47	13055.51
696.60	13043.81
696.73	13020.40
696.87	12851.88
697.00	12842.52
697.14	12882.31
697.27	12568.68
697.40	12484.42
697.54	12519.53
697.67	12556.97
697.80	12355.69
697.94	12404.84
698.07	12264.41
698.21	12269.09
698.34	12105.25
698.47	12470.37
698.61	12112.27
698.74	12381.43
698.87	12297.17
699.01	12004.61
699.14	11920.35
699.27	11840.77
699.40	12025.67
699.54	11868.86
699.67	11595.01
699.80	11810.34
699.94	11707.36
700.07	11864.18
700.20	11587.99
700.34	11672.25
700.47	11419.47
700.60	11412.45
700.73	11522.46
700.87	11510.75
701.00	11426.50
701.13	11171.38
701.26	11534.16
701.40	11302.45
701.53	11253.30
701.66	11351.60
701.79	11234.57
701.93	11112.86
702.06	11002.86
702.19	10939.66
702.32	10780.51
702.46	10651.78
702.59	10590.92
702.72	10483.26
702.85	10565.18
702.99	10752.42
703.12	10642.42
703.25	10314.74
703.38	10696.25
703.51	10506.66
703.65	10544.11
703.78	10501.98
703.91	10218.78
704.04	10289.00
704.17	10366.23
704.31	10153.24
704.44	10303.04
704.57	10120.48
704.70	10118.14
704.83	9912.17
704.96	9996.43
705.10	9916.85
705.23	9954.30
>>>>>End Processed Spectral Data<<<<<
