SpectraSuite Data File
++++++++++++++++++++++++++++++++++++
Date: Fri Oct 18 13:57:57 GMT-05:00 2013
User: bianchi
Dark Spectrum Present: No
Reference Spectrum Present: No
Number of Sampled Component Spectra: 1
Spectrometers: USB2+H05261
Integration Time (usec): 50000 (USB2+H05261)
Spectra Averaged: 1 (USB2+H05261)
Boxcar Smoothing: 0 (USB2+H05261)
Correct for Electrical Dark: No (USB2+H05261)
Strobe/Lamp Enabled: No (USB2+H05261)
Correct for Detector Non-linearity: No (USB2+H05261)
Correct for Stray Light: No (USB2+H05261)
Number of Pixels in Processed Spectrum: 2048
>>>>>Begin Processed Spectral Data<<<<<
365.73	0.00
365.92	0.00
366.12	0.00
366.32	0.00
366.52	0.00
366.72	0.00
366.91	0.00
367.11	0.00
367.31	0.00
367.51	0.00
367.70	0.00
367.90	0.00
368.10	0.00
368.30	0.00
368.49	0.00
368.69	0.00
368.89	0.00
369.09	0.00
369.28	0.00
369.48	0.00
369.68	0.00
369.87	0.00
370.07	0.00
370.27	0.00
370.47	0.00
370.66	65.54
370.86	60.85
371.06	98.30
371.25	138.09
371.45	100.64
371.65	175.54
371.84	156.82
372.04	159.16
372.24	189.58
372.44	180.22
372.63	248.10
372.83	177.88
373.03	220.01
373.22	215.33
373.42	140.43
373.62	173.20
373.81	220.01
374.01	269.16
374.21	212.99
374.40	290.23
374.60	308.95
374.79	252.78
374.99	236.39
375.19	297.25
375.38	208.31
375.58	297.25
375.78	271.50
375.97	198.95
376.17	264.48
376.37	308.95
376.56	308.95
376.76	266.82
376.95	252.78
377.15	280.86
377.35	168.52
377.54	220.01
377.74	304.27
377.93	259.80
378.13	301.93
378.33	227.03
378.52	276.18
378.72	276.18
378.91	313.63
379.11	287.89
379.31	252.78
379.50	299.59
379.70	262.14
379.89	283.20
380.09	332.36
380.28	252.78
380.48	292.57
380.68	222.35
380.87	308.95
381.07	311.29
381.26	339.38
381.46	299.59
381.65	358.10
381.85	348.74
382.04	416.62
382.24	379.17
382.43	402.57
382.63	308.95
382.83	360.44
383.02	315.97
383.22	337.04
383.41	402.57
383.61	418.96
383.80	322.99
384.00	367.46
384.19	381.51
384.39	409.59
384.58	320.65
384.78	346.40
384.97	351.08
385.17	400.23
385.36	402.57
385.56	341.72
385.75	386.19
385.95	379.17
386.14	362.78
386.34	369.80
386.53	393.21
386.72	407.25
386.92	428.32
387.11	461.09
387.31	456.40
387.50	447.04
387.70	395.55
387.89	397.89
388.09	475.13
388.28	390.87
388.48	440.02
388.67	407.25
388.86	561.73
389.06	414.27
389.25	416.62
389.45	475.13
389.64	411.93
389.84	414.27
390.03	538.32
390.22	463.43
390.42	517.26
390.61	472.79
390.81	458.74
391.00	526.62
391.19	578.11
391.39	503.22
391.58	447.04
391.78	521.94
391.97	486.83
392.16	521.94
392.36	535.98
392.55	503.22
392.75	550.03
392.94	559.39
393.13	571.09
393.33	561.73
393.52	578.11
393.71	585.13
393.91	517.26
394.10	580.45
394.29	575.77
394.49	617.90
394.68	573.43
394.88	531.30
395.07	631.94
395.26	587.47
395.46	681.10
395.65	613.22
395.84	734.93
396.04	692.80
396.23	690.46
396.42	578.11
396.62	627.26
396.81	667.05
397.00	568.75
397.19	617.90
397.39	678.76
397.58	730.25
397.77	711.52
397.97	795.78
398.16	765.36
398.35	655.35
398.55	716.20
398.74	744.29
398.93	716.20
399.12	716.20
399.32	744.29
399.51	716.20
399.70	767.70
399.90	737.27
400.09	875.36
400.28	802.80
400.47	877.70
400.67	777.06
400.86	842.59
401.05	802.80
401.24	777.06
401.44	716.20
401.63	807.48
401.82	802.80
402.01	821.53
402.21	844.93
402.40	851.96
402.59	858.98
402.78	936.21
402.97	882.38
403.17	779.40
403.36	849.61
403.55	861.32
403.74	983.02
403.93	976.00
404.13	903.45
404.32	908.13
404.51	968.98
404.70	950.26
404.89	901.11
405.09	1027.50
405.28	1001.75
405.47	926.85
405.66	999.41
405.85	1015.79
406.05	966.64
406.24	1008.77
406.43	1118.78
406.62	1032.18
406.81	1102.39
407.00	990.05
407.20	957.28
407.39	1055.58
407.58	1090.69
407.77	1020.47
407.96	1081.33
408.15	1114.10
408.34	1102.39
408.54	1090.69
408.73	1111.75
408.92	1125.80
409.11	1224.10
409.30	1238.14
409.49	1074.31
409.68	1076.65
409.87	1160.91
410.07	1165.59
410.26	1193.67
410.45	1284.95
410.64	1263.89
410.83	1217.08
411.02	1296.66
411.21	1259.21
411.40	1228.78
411.59	1296.66
411.78	1221.76
411.98	1247.51
412.17	1231.12
412.36	1249.85
412.55	1448.79
412.74	1444.11
412.93	1270.91
413.12	1268.57
413.31	1413.68
413.50	1521.35
413.69	1568.16
413.88	1455.81
414.07	1423.05
414.26	1432.41
414.45	1502.62
414.64	1514.33
414.83	1575.18
415.02	1565.82
415.22	1565.82
415.41	1528.37
415.60	1565.82
415.79	1645.40
415.98	1633.69
416.17	1619.65
416.36	1610.29
416.55	1624.33
416.74	1654.76
416.93	1668.80
417.12	1692.21
417.31	1624.33
417.50	1694.55
417.69	1778.81
417.88	1729.66
418.07	1713.27
418.26	1778.81
418.45	1739.02
418.64	1907.54
418.83	1673.48
419.02	1816.26
419.21	1879.45
419.39	1877.11
419.58	1870.09
419.77	1832.64
419.96	1867.75
420.15	1959.03
420.34	1809.23
420.53	1865.41
420.72	1933.28
420.91	1853.70
421.10	1998.82
421.29	2010.52
421.48	1827.96
421.67	1970.73
421.86	1975.41
422.05	2148.61
422.24	1947.33
422.43	1996.48
422.61	1984.77
422.80	2101.80
422.99	1968.39
423.18	2010.52
423.37	2106.48
423.56	2073.71
423.75	2113.50
423.94	1881.79
424.13	1893.49
424.32	1867.75
424.50	2045.63
424.69	2073.71
424.88	1989.46
425.07	2054.99
425.26	2071.37
425.45	2024.56
425.64	2057.33
425.83	2064.35
426.01	2155.63
426.20	2113.50
426.39	2197.76
426.58	2134.57
426.77	2160.31
426.96	2101.80
427.15	2129.89
427.33	2207.13
427.52	2090.10
427.71	2197.76
427.90	2188.40
428.09	2284.36
428.28	2349.90
428.46	2230.53
428.65	2352.24
428.84	2452.88
429.03	2303.09
429.22	2202.44
429.40	2228.19
429.59	2239.89
429.78	2298.41
429.97	2155.63
430.16	2310.11
430.34	2275.00
430.53	2415.43
430.72	2438.84
430.91	2377.98
431.10	2347.56
431.28	2382.67
431.47	2441.18
431.66	2347.56
431.85	2471.61
432.03	2520.76
432.22	2260.96
432.41	2544.16
432.60	2443.52
432.79	2415.43
432.97	2466.92
433.16	2612.04
433.35	2476.29
433.54	2628.42
433.72	2665.87
433.91	2710.34
434.10	2614.38
434.28	2605.02
434.47	2612.04
434.66	2647.15
434.85	2759.49
435.03	2612.04
435.22	2656.51
435.41	2651.83
435.59	2733.75
435.78	2719.70
435.97	2717.36
436.16	2743.11
436.34	2733.75
436.53	2902.26
436.72	2818.00
436.90	2705.66
437.09	2780.56
437.28	2782.90
437.46	2738.43
437.65	2761.83
437.84	2867.16
438.02	2782.90
438.21	2717.36
438.40	2656.51
438.58	3028.65
438.77	2878.86
438.96	2834.39
439.14	2988.86
439.33	3089.51
439.52	3077.80
439.70	3040.36
439.89	3108.23
440.08	3005.25
440.26	3038.02
440.45	2925.67
440.63	3089.51
440.82	3115.25
441.01	3190.15
441.19	3258.03
441.38	3276.75
441.57	3267.39
441.75	3187.81
441.94	3414.84
442.12	3407.82
442.31	3424.20
442.50	3466.33
442.68	3222.92
442.87	3300.16
443.05	3365.69
443.24	3449.95
443.43	3494.42
443.61	3557.61
443.80	3431.23
443.98	3452.29
444.17	3339.94
444.35	3449.95
444.54	3522.51
444.73	3456.97
444.91	3473.36
445.10	3508.46
445.28	3506.12
445.47	3393.78
445.65	3513.14
445.84	3564.64
446.02	3623.15
446.21	3506.12
446.39	3517.83
446.58	3604.42
446.77	3536.55
446.95	3494.42
447.14	3524.85
447.32	3602.08
447.51	3613.79
447.69	3644.21
447.88	3569.32
448.06	3543.57
448.25	3536.55
448.43	3613.79
448.62	3681.66
448.80	3527.19
448.99	3662.94
449.17	3672.30
449.36	3723.79
449.54	3693.37
449.73	3803.37
449.91	3756.56
450.10	3871.25
450.28	3822.09
450.46	3684.00
450.65	3805.71
450.83	3803.37
451.02	3843.16
451.20	3770.60
451.39	3843.16
451.57	3801.03
451.76	3798.69
451.94	3864.22
452.13	4063.17
452.31	3854.86
452.49	3887.63
452.68	3836.14
452.86	3941.46
453.05	3803.37
453.23	3878.27
453.42	3934.44
453.60	3906.35
453.78	3939.12
453.97	3911.04
454.15	3985.93
454.34	3850.18
454.52	4023.38
454.70	4002.32
454.89	4084.23
455.07	4145.09
455.26	4051.47
455.44	4241.05
455.62	3997.64
455.81	4145.09
455.99	4177.86
456.17	4273.82
456.36	4154.45
456.54	4383.82
456.73	4301.90
456.91	4458.72
457.09	4486.81
457.28	4329.99
457.46	4299.56
457.64	4510.21
457.83	4348.72
458.01	4322.97
458.19	4503.19
458.38	4400.21
458.56	4526.60
458.74	4573.41
458.93	4554.68
459.11	4542.98
459.29	4423.61
459.48	4575.75
459.66	4510.21
459.84	4720.86
460.03	4784.06
460.21	4779.37
460.39	4793.42
460.57	4575.75
460.76	4622.56
460.94	4596.81
461.12	4664.69
461.31	4681.07
461.49	4781.71
461.67	4760.65
461.85	4830.87
462.04	4950.23
462.22	4938.53
462.40	4816.82
462.59	4929.17
462.77	4915.12
462.95	4868.31
463.13	4947.89
463.32	4950.23
463.50	4987.68
463.68	4966.62
463.86	4964.28
464.05	4828.53
464.23	4905.76
464.41	4968.96
464.59	4774.69
464.78	5041.51
464.96	5034.49
465.14	4936.19
465.32	5060.24
465.50	5226.42
465.69	5151.52
465.87	5025.13
466.05	5158.54
466.23	5341.10
466.41	5270.89
466.60	5301.31
466.78	5027.47
466.96	5048.54
467.14	5142.16
467.32	5329.40
467.51	5320.04
467.69	5132.79
467.87	5254.50
468.05	5275.57
468.23	5308.34
468.41	5174.92
468.60	5315.36
468.78	5371.53
468.96	5357.49
469.14	5376.21
469.32	5399.62
469.50	5249.82
469.69	5467.49
469.87	5565.79
470.05	5584.52
470.23	5692.18
470.41	5488.56
470.59	5664.10
470.77	5540.05
470.95	5469.83
471.14	5757.72
471.32	5434.72
471.50	5860.70
471.68	5844.32
471.86	5685.16
472.04	5652.39
472.22	5877.09
472.40	5783.46
472.58	5741.33
472.77	5989.43
472.95	5980.07
473.13	6129.86
473.31	5928.58
473.49	5802.19
473.67	5830.27
473.85	6022.20
474.03	6183.70
474.21	6064.33
474.39	6054.97
474.57	6153.27
474.75	6263.27
474.93	6270.30
475.12	6307.74
475.30	6340.51
475.48	6284.34
475.66	6380.30
475.84	6375.62
476.02	6389.66
476.20	6590.95
476.38	6431.79
476.56	6895.22
476.74	6612.01
476.92	6689.25
477.10	6733.72
477.28	6869.47
477.46	6705.63
477.64	6855.43
477.82	6846.07
478.00	7096.50
478.18	6981.82
478.36	7049.69
478.54	7220.55
478.72	7143.32
478.90	7286.09
479.08	7393.75
479.26	7513.12
479.44	7506.10
479.62	7452.27
479.80	7475.67
479.98	7723.77
480.16	7726.11
480.34	7522.48
480.52	7822.07
480.70	7740.15
480.88	7899.31
481.06	8006.97
481.24	7878.24
481.41	8135.70
481.59	8011.65
481.77	8009.31
481.95	8198.90
482.13	8168.47
482.31	8451.67
482.49	8369.76
482.67	8411.89
482.85	8655.30
483.03	8842.54
483.21	8669.34
483.39	8814.46
483.57	8851.91
483.74	8865.95
483.92	8779.35
484.10	8821.48
484.28	9137.45
484.46	9275.54
484.64	9425.34
484.82	9118.73
485.00	9380.87
485.18	9582.15
485.35	9610.24
485.53	9813.87
485.71	9689.82
485.89	9949.62
486.07	9703.86
486.25	9785.78
486.43	9970.68
486.61	9848.97
486.78	10057.28
486.96	10157.92
487.14	10410.70
487.32	10195.37
487.50	10387.30
487.68	10499.64
487.85	10579.22
488.03	10644.76
488.21	10906.90
488.39	10764.12
488.57	11009.88
488.75	11098.82
488.92	11215.85
489.10	11140.95
489.28	11253.30
489.46	11353.94
489.64	11220.53
489.81	11672.25
489.99	11351.60
490.17	11454.58
490.35	11957.80
490.53	11522.46
490.70	11887.58
490.88	11559.91
491.06	12100.57
491.24	11922.69
491.41	12238.66
491.59	12208.23
491.77	12430.59
491.95	12322.92
492.13	12416.54
492.30	12772.30
492.48	12514.84
492.66	12638.89
492.84	12685.70
493.01	12959.55
493.19	12868.27
493.37	12973.59
493.54	12999.34
493.72	13036.78
493.90	13132.75
494.08	13275.52
494.25	13535.32
494.43	13380.84
494.61	13586.81
494.79	13668.73
494.96	13521.27
495.14	13661.71
495.32	14087.68
495.49	13820.86
495.67	14001.08
495.85	14363.87
496.02	14040.87
496.20	14143.86
496.38	14052.58
496.55	14572.18
496.73	14647.07
496.91	14396.64
497.09	14743.03
497.26	14668.14
497.44	14663.46
497.62	14792.19
497.79	14553.45
497.97	14897.51
498.14	15089.43
498.32	15360.94
498.50	15239.23
498.67	15318.81
498.85	15496.69
499.03	15183.06
499.20	15344.55
499.38	15150.29
499.56	15316.47
499.73	15637.12
499.91	15527.11
500.08	15578.61
500.26	15623.08
500.44	15674.57
500.61	16077.14
500.79	15812.66
500.97	16332.26
501.14	16018.63
501.32	16332.26
501.49	16215.23
501.67	16177.78
501.84	16011.60
502.02	16222.25
502.20	16554.61
502.37	16559.29
502.55	16231.62
502.72	16390.77
502.90	16706.74
503.07	16624.83
503.25	16893.99
503.43	16650.57
503.60	17001.65
503.78	16915.05
503.95	16840.15
504.13	17095.27
504.30	17095.27
504.48	17160.81
504.65	17387.84
504.83	17453.37
505.01	17408.90
505.18	17317.62
505.36	17661.68
505.53	17490.82
505.71	17659.34
505.88	17596.15
506.06	17273.15
506.23	17661.68
506.41	17907.44
506.58	18075.96
506.76	17752.96
506.93	17853.61
507.11	17804.46
507.28	18033.83
507.46	17898.08
507.63	18197.67
507.81	18169.58
507.98	18148.51
508.16	17935.53
508.33	18113.41
508.50	18373.21
508.68	18499.59
508.85	18263.20
509.03	18237.45
509.20	18485.55
509.38	18789.82
509.55	19063.66
509.73	18633.00
509.90	18941.96
510.08	18768.76
510.25	18717.26
510.42	19023.87
510.60	18831.95
510.77	19089.41
510.95	19037.92
511.12	19105.79
511.30	19185.37
511.47	19456.87
511.64	19183.03
511.82	19438.15
511.99	19396.02
512.17	19625.39
512.34	19648.80
512.51	19613.69
512.69	19646.46
512.86	19690.93
513.04	19887.53
513.21	19946.05
513.38	20006.90
513.56	20205.84
513.73	19929.66
513.90	19847.74
514.08	20163.72
514.25	20074.77
514.43	20168.40
514.60	20362.66
514.77	20442.24
514.95	20404.79
515.12	20201.16
515.29	20027.96
515.47	20460.96
515.64	20648.21
515.81	20496.07
515.99	20507.77
516.16	20769.91
516.33	20662.25
516.51	20788.64
516.68	20573.31
516.85	20650.55
517.03	20987.58
517.20	20767.57
517.37	21273.13
517.54	21043.76
517.72	20898.64
517.89	21170.15
518.06	20769.91
518.24	21261.43
518.41	21039.08
518.58	21184.19
518.75	21156.10
518.93	21589.10
519.10	21317.60
519.27	21434.63
519.45	21523.57
519.62	21411.22
519.79	21481.44
519.96	21443.99
520.14	21675.70
520.31	21481.44
520.48	21825.50
520.65	21673.36
520.83	21982.31
521.00	21692.08
521.17	22038.48
521.34	21869.97
521.52	21933.16
521.69	22111.04
521.86	21977.63
522.03	22284.24
522.20	22569.79
522.38	22419.99
522.55	22691.49
522.72	22520.63
522.89	22401.27
523.07	22590.85
523.24	22551.06
523.41	22600.21
523.58	22403.61
523.75	22434.03
523.92	22508.93
524.10	22923.21
524.27	22787.46
524.44	22750.01
524.61	23218.11
524.78	23084.70
524.96	23047.26
525.13	22831.93
525.30	23400.68
525.47	23171.30
525.64	22967.68
525.81	23531.75
525.98	23388.97
526.16	23295.35
526.33	23356.21
526.50	23590.26
526.67	23068.32
526.84	23578.56
527.01	23683.88
527.18	23590.26
527.36	23585.58
527.53	23882.83
527.70	23508.34
527.87	23803.25
528.04	23697.92
528.21	23913.25
528.38	23859.42
528.55	23988.15
528.72	23957.72
528.89	24086.45
529.07	24065.39
529.24	23768.14
529.41	24180.07
529.58	23843.04
529.75	24287.74
529.92	23992.83
530.09	24376.68
530.26	24294.76
530.43	24561.58
530.60	24149.65
530.77	24299.44
530.94	24184.76
531.11	24084.11
531.28	24584.99
531.46	24416.47
531.63	24624.78
531.80	24563.92
531.97	24989.90
532.14	24697.33
532.31	24709.04
532.48	24687.97
532.65	25111.61
532.82	24648.18
532.99	24905.64
533.16	24592.01
533.33	25027.35
533.50	24992.24
533.67	24936.07
533.84	24718.40
534.01	25029.69
534.18	24816.70
534.35	25490.77
534.52	25064.80
534.69	25219.27
534.86	25366.73
535.03	25364.39
535.20	25259.06
535.37	25359.70
535.54	25308.21
535.71	25205.23
535.88	25179.48
536.05	25050.75
536.22	26038.46
536.38	25951.86
536.55	25493.12
536.72	25303.53
536.89	25425.24
537.06	25589.08
537.23	25804.41
537.40	25432.26
537.57	25652.27
537.74	25727.17
537.91	25921.43
538.08	26068.89
538.25	25986.97
538.42	25764.62
538.59	26120.38
538.75	25947.18
538.92	25773.98
539.09	26085.27
539.26	26497.20
539.43	26206.98
539.60	26354.43
539.77	26368.48
539.94	26478.48
540.11	25968.24
540.28	26354.43
540.44	26309.96
540.61	26459.76
540.78	26478.48
540.95	26625.93
541.12	26328.69
541.29	26450.39
541.46	26281.88
541.62	26719.56
541.79	26679.77
541.96	26417.63
542.13	26738.28
542.30	26476.14
542.47	26813.18
542.63	26719.56
542.80	27243.84
542.97	26909.14
543.14	27080.00
543.31	26754.66
543.48	26838.92
543.64	27117.45
543.81	27115.11
543.98	27206.39
544.15	27143.19
544.32	27344.48
544.48	27309.37
544.65	27253.20
544.82	27239.15
544.99	26845.94
545.16	27283.62
545.32	27157.24
545.49	27190.00
545.66	27365.54
545.83	27697.90
546.00	27976.42
546.16	27620.66
546.33	27426.40
546.50	27082.34
546.67	27585.55
546.83	27070.64
547.00	27330.44
547.17	27658.11
547.34	27627.68
547.50	27899.19
547.67	27850.03
547.84	27838.33
548.00	27852.38
548.17	28060.68
548.34	28177.71
548.51	28098.13
548.67	27859.40
548.84	28065.36
549.01	27583.21
549.18	27803.22
549.34	27770.46
549.51	27777.48
549.68	27812.59
549.84	27850.03
550.01	28400.06
550.18	28304.10
550.34	28170.69
550.51	28304.10
550.68	28802.63
550.84	28217.50
551.01	28229.20
551.18	28072.39
551.34	28208.14
551.51	28149.62
551.68	28196.43
551.84	28781.57
552.01	28077.07
552.18	28610.71
552.34	28130.90
552.51	28606.03
552.68	28709.01
552.84	28765.18
553.01	28421.13
553.18	28517.09
553.34	28318.14
553.51	28837.74
553.67	28662.20
553.84	28779.23
554.01	28929.02
554.17	28720.71
554.34	28594.32
554.51	28929.02
554.67	28847.10
554.84	28786.25
555.00	28814.34
555.17	28931.36
555.33	28875.19
555.50	28725.39
555.67	29425.22
555.83	28641.14
556.00	28971.15
556.16	29233.29
556.33	28531.13
556.50	29003.92
556.66	29008.60
556.83	28760.50
556.99	29399.47
557.16	29436.92
557.32	29233.29
557.49	29357.34
557.65	29242.65
557.82	29539.90
557.98	29113.92
558.15	29504.79
558.32	29200.52
558.48	29355.00
558.65	29727.14
558.81	29383.09
558.98	29345.64
559.14	29130.31
559.31	29469.69
559.47	29703.74
559.64	29598.41
559.80	29336.27
559.97	29535.22
560.13	29298.83
560.30	29748.21
560.46	29371.38
560.63	29469.69
560.79	29755.23
560.96	29420.53
561.12	29418.19
561.29	29359.68
561.45	29706.08
561.61	29696.72
561.78	29472.03
561.94	29696.72
562.11	30155.46
562.27	29759.91
562.44	29907.37
562.60	29509.47
562.77	29455.64
562.93	29415.85
563.10	29867.58
563.26	29855.87
563.42	30223.34
563.59	29996.31
563.75	30031.41
563.92	30412.92
564.08	29614.80
564.24	29528.20
564.41	29734.17
564.57	29811.40
564.74	29247.33
564.90	29858.21
565.07	29977.58
565.23	30281.85
565.39	29493.09
565.56	30424.62
565.72	30024.39
565.88	29694.38
566.05	29867.58
566.21	29876.94
566.38	29991.62
566.54	29860.55
566.70	30101.63
566.87	30340.36
567.03	29907.37
567.19	30277.17
567.36	30462.07
567.52	30286.53
567.68	30050.14
567.85	30089.93
568.01	30272.49
568.17	29865.24
568.34	30274.83
568.50	30190.57
568.66	30010.35
568.83	30499.52
568.99	30316.96
569.15	30412.92
569.32	29916.73
569.48	29668.63
569.64	30122.69
569.81	30209.29
569.97	30354.41
570.13	30387.18
570.30	30295.89
570.46	30726.55
570.62	30415.26
570.78	30492.50
570.95	30010.35
571.11	30216.32
571.27	29984.60
571.43	29949.50
571.60	30583.78
571.76	30139.08
571.92	30534.63
572.09	30464.41
572.25	30415.26
572.41	30394.20
572.57	30424.62
572.74	30480.80
572.90	30155.46
573.06	30398.88
573.22	30061.84
573.38	30387.18
573.55	30340.36
573.71	30532.29
573.87	30445.69
574.03	30452.71
574.20	30459.73
574.36	30340.36
574.52	30445.69
574.68	30265.47
574.84	30721.87
575.01	30532.29
575.17	30682.08
575.33	30707.83
575.49	30572.08
575.65	30742.94
575.82	30848.26
575.98	30174.19
576.14	30525.27
576.30	30637.61
576.46	30153.12
576.62	30419.94
576.79	30471.43
576.95	30316.96
577.11	30525.27
577.27	30785.07
577.43	31035.50
577.59	30651.66
577.75	30756.98
577.92	30345.05
578.08	30576.76
578.24	30459.73
578.40	30752.30
578.56	30618.89
578.72	30485.48
578.88	30558.03
579.04	31108.06
579.21	30885.71
579.37	30724.21
579.53	30471.43
579.69	30520.59
579.85	30433.99
580.01	30267.81
580.17	30005.67
580.33	30616.55
580.49	31072.95
580.65	30923.16
580.82	30621.23
580.98	30686.76
581.14	30632.93
581.30	30838.90
581.46	30855.28
581.62	30429.30
581.78	30494.84
581.94	30862.30
582.10	30471.43
582.26	30396.54
582.42	30801.45
582.58	30742.94
582.74	31035.50
582.90	30899.75
583.06	31122.10
583.22	30642.29
583.38	30789.75
583.54	30562.72
583.70	30441.01
583.86	30707.83
584.02	30710.17
584.18	30888.05
584.34	30586.12
584.50	30644.63
584.66	31002.74
584.82	30642.29
584.98	30960.61
585.14	30586.12
585.30	30417.60
585.46	30682.08
585.62	30576.76
585.78	30991.03
585.94	30483.14
586.10	30476.12
586.26	30548.67
586.42	30876.35
586.58	31058.91
586.74	30408.24
586.90	30630.59
587.06	30607.19
587.22	30707.83
587.38	30845.92
587.54	30944.22
587.70	31056.57
587.86	31000.40
588.02	31386.58
588.18	31002.74
588.34	31117.42
588.49	31042.53
588.65	30752.30
588.81	30920.82
588.97	30965.29
589.13	30759.32
589.29	30876.35
589.45	30625.91
589.61	30857.62
589.77	31065.93
589.93	31136.15
590.08	31573.83
590.24	31271.90
590.40	31185.30
590.56	31140.83
590.72	31117.42
590.88	31098.70
591.04	31199.34
591.20	31482.55
591.35	31594.89
591.51	31290.62
591.67	31124.44
591.83	31133.81
591.99	31189.98
592.15	31454.46
592.31	31154.87
592.46	31054.23
592.62	31239.13
592.78	31072.95
592.94	31222.75
593.10	31349.14
593.26	31433.39
593.41	31164.23
593.57	31227.43
593.73	31290.62
593.89	31541.06
594.05	31498.93
594.20	31063.59
594.36	31117.42
594.52	30883.37
594.68	31143.17
594.84	30955.93
594.99	31417.01
595.15	31302.32
595.31	31784.48
595.47	31545.74
595.62	31484.89
595.78	31344.45
595.94	31133.81
596.10	31122.10
596.25	31136.15
596.41	31304.67
596.57	31002.74
596.73	31449.78
596.88	31105.72
597.04	31363.18
597.20	31662.77
597.36	31496.59
597.51	31468.50
597.67	31459.14
597.83	31494.25
597.99	31721.28
598.14	31234.45
598.30	31087.00
598.46	31377.22
598.61	31508.29
598.77	31016.78
598.93	31536.38
599.09	31236.79
599.24	31686.17
599.40	31409.99
599.56	31927.25
599.71	31386.58
599.87	31255.51
600.03	31632.34
600.18	31101.04
600.34	31147.85
600.50	31627.66
600.65	31358.50
600.81	31601.91
600.97	31395.95
601.12	31672.13
601.28	31283.60
601.44	31700.22
601.59	31466.16
601.75	31468.50
601.91	31679.15
602.06	31330.41
602.22	31889.80
602.37	31208.70
602.53	31307.01
602.69	30988.69
602.84	31880.44
603.00	31424.03
603.16	31573.83
603.31	31552.76
603.47	31236.79
603.62	31232.11
603.78	31777.45
603.94	31330.41
604.09	31585.53
604.25	31583.19
604.40	31033.16
604.56	31463.82
604.71	31725.96
604.87	31433.39
605.03	31777.45
605.18	31702.56
605.34	31618.30
605.49	31220.41
605.65	31381.90
605.80	31105.72
605.96	31494.25
606.12	31283.60
606.27	31438.08
606.43	31878.10
606.58	31421.69
606.74	31232.11
606.89	31543.40
607.05	31274.24
607.20	31728.30
607.36	31419.35
607.51	31487.23
607.67	31285.94
607.82	30881.03
607.98	31274.24
608.13	31145.51
608.29	31353.82
608.44	31349.14
608.60	31072.95
608.75	31728.30
608.91	31197.00
609.06	31051.89
609.22	31346.79
609.37	30773.36
609.53	31267.22
609.68	31082.31
609.84	30984.01
609.99	31475.52
610.15	31246.15
610.30	31236.79
610.46	30988.69
610.61	31311.69
610.76	30988.69
610.92	31281.26
611.07	30984.01
611.23	31164.23
611.38	30960.61
611.54	31150.19
611.69	30859.96
611.84	30876.35
612.00	30871.67
612.15	30745.28
612.31	31166.57
612.46	30752.30
612.62	31264.88
612.77	31000.40
612.92	31452.12
613.08	30773.36
613.23	30951.24
613.39	30600.16
613.54	30836.56
613.69	30881.03
613.85	30911.46
614.00	30635.27
614.15	30904.43
614.31	30986.35
614.46	30979.33
614.62	30445.69
614.77	30965.29
614.92	30815.49
615.08	30742.94
615.23	30705.49
615.38	30794.43
615.54	30754.64
615.69	30553.35
615.84	30906.77
616.00	30658.68
616.15	30623.57
616.30	30749.96
616.46	30604.84
616.61	30455.05
616.76	30909.11
616.92	30424.62
617.07	30876.35
617.22	30483.14
617.37	30424.62
617.53	30899.75
617.68	30464.41
617.83	30459.73
617.99	30206.95
618.14	30078.22
618.29	30764.00
618.45	30562.72
618.60	30483.14
618.75	30646.97
618.90	30541.65
619.06	30597.82
619.21	30518.25
619.36	30895.07
619.51	30277.17
619.67	30228.02
619.82	30185.89
619.97	30586.12
620.12	30251.42
620.28	30354.41
620.43	30532.29
620.58	30658.68
620.73	30326.32
620.89	30410.58
621.04	30630.59
621.19	30403.56
621.34	30349.73
621.49	30373.13
621.65	30431.65
621.80	30139.08
621.95	30059.50
622.10	30345.05
622.25	30314.62
622.41	30148.44
622.56	30199.93
622.71	30213.98
622.86	30101.63
623.01	30164.82
623.16	29773.95
623.32	29846.51
623.47	29977.58
623.62	29895.66
623.77	29535.22
623.92	30087.59
624.07	29839.49
624.23	29675.65
624.38	29694.38
624.53	29823.11
624.68	29928.43
624.83	29521.18
624.98	30092.27
625.13	29902.68
625.29	30054.82
625.44	29603.10
625.59	29560.97
625.74	29694.38
625.89	29434.58
626.04	29837.15
626.19	29715.44
626.34	29645.23
626.49	29560.97
626.65	29685.01
626.80	29490.75
626.95	29560.97
627.10	29586.71
627.25	29212.23
627.40	29076.48
627.55	29228.61
627.70	29516.50
627.85	29247.33
628.00	29439.26
628.15	29563.31
628.30	29343.30
628.45	29259.04
628.60	29116.26
628.76	29172.44
628.91	29422.87
629.06	29586.71
629.21	29134.99
629.36	29345.64
629.51	29439.26
629.66	29008.60
629.81	29233.29
629.96	29041.37
630.11	29270.74
630.26	28975.83
630.41	28697.31
630.56	28964.13
630.71	29095.20
630.86	28774.55
631.01	29186.48
631.16	29509.47
631.31	28833.06
631.46	28924.34
631.61	28821.36
631.76	29001.58
631.91	28809.65
632.06	28737.10
632.21	28535.81
632.36	28929.02
632.51	28751.14
632.66	28704.33
632.81	28886.89
632.96	29092.86
633.10	28814.34
633.25	28858.81
633.40	29151.37
633.55	28718.37
633.70	28589.64
633.85	28584.96
634.00	28407.08
634.15	28753.48
634.30	28601.35
634.45	28442.19
634.60	28844.76
634.75	28971.15
634.90	28437.51
635.05	28545.17
635.19	28531.13
635.34	28748.80
635.49	28781.57
635.64	28481.98
635.79	28425.81
635.94	28379.00
636.09	28575.60
636.24	28278.35
636.39	28568.58
636.53	28266.65
636.68	28456.23
636.83	28163.67
636.98	28725.39
637.13	28329.84
637.28	28243.24
637.43	28205.80
637.57	28512.41
637.72	28297.08
637.87	28425.81
638.02	28547.51
638.17	28329.84
638.32	27873.44
638.46	27798.54
638.61	27690.88
638.76	27910.89
638.91	27908.55
639.06	28203.46
639.20	28182.39
639.35	28107.49
639.50	27995.15
639.65	27917.91
639.80	28053.66
639.94	28023.23
640.09	28046.64
640.24	27831.31
640.39	27672.15
640.54	27557.47
640.68	27716.62
640.83	27606.62
640.98	27587.89
641.13	27597.26
641.27	27777.48
641.42	27796.20
641.57	27756.41
641.72	27667.47
641.86	28053.66
642.01	27859.40
642.16	27718.96
642.31	27426.40
642.45	27812.59
642.60	27412.35
642.75	27393.63
642.90	27269.58
643.04	27391.29
643.19	27634.71
643.34	27510.66
643.48	27447.46
643.63	27599.60
643.78	27405.33
643.93	27655.77
644.07	27882.80
644.22	27735.35
644.37	27623.00
644.51	27695.56
644.66	27222.77
644.81	27201.71
644.95	27384.27
645.10	27058.93
645.25	27138.51
645.39	27248.52
645.54	27285.97
645.69	27215.75
645.83	27491.93
645.98	27178.30
646.13	27440.44
646.27	27304.69
646.42	27117.45
646.57	27187.66
646.71	27285.97
646.86	27030.85
647.00	27316.39
647.15	26679.77
647.30	26953.61
647.44	26675.09
647.59	27131.49
647.74	27417.04
647.88	27215.75
648.03	27328.10
648.17	27278.94
648.32	27150.21
648.47	27026.17
648.61	27058.93
648.76	27236.81
648.90	26895.10
649.05	27117.45
649.20	26967.65
649.34	27000.42
649.49	26448.05
649.63	26691.47
649.78	26845.94
649.92	26707.85
650.07	26909.14
650.21	26742.96
650.36	26885.73
650.51	26476.14
650.65	26796.79
650.80	27080.00
650.94	26312.30
651.09	26342.73
651.23	26864.67
651.38	26555.72
651.52	26527.63
651.67	26087.61
651.81	26857.65
651.96	26703.17
652.10	26448.05
652.25	26450.39
652.39	26801.47
652.54	26551.04
652.68	26995.74
652.83	26445.71
652.97	26693.81
653.12	26663.38
653.26	26614.23
653.41	26848.29
653.55	26520.61
653.70	26251.45
653.84	26162.51
653.99	26288.90
654.13	26281.88
654.27	26469.12
654.42	26284.22
654.56	26387.20
654.71	26052.50
654.85	26515.93
655.00	26513.59
655.14	26162.51
655.29	26471.46
655.43	26277.19
655.57	26115.70
655.72	26300.60
655.86	26242.09
656.01	25940.16
656.15	26316.98
656.30	26115.70
656.44	26267.83
656.58	25912.07
656.73	25898.03
656.87	26185.91
657.01	26059.52
657.16	26335.71
657.30	26270.17
657.45	26005.69
657.59	26096.97
657.73	25830.15
657.88	26001.01
658.02	25663.97
658.16	25979.95
658.31	25727.17
658.45	25654.61
658.60	25757.60
658.74	25666.31
658.88	25914.41
659.03	25902.71
659.17	25259.06
659.31	25558.65
659.46	25743.55
659.60	25841.85
659.74	25528.22
659.89	25521.20
660.03	25518.86
660.17	25560.99
660.32	25191.19
660.46	25357.36
660.60	25284.81
660.74	25336.30
660.89	25245.02
661.03	25020.33
661.17	24943.09
661.32	25282.47
661.46	25081.18
661.60	25245.02
661.74	25032.03
661.89	25287.15
662.03	25305.87
662.17	25390.13
662.31	24903.30
662.46	25032.03
662.60	25043.73
662.74	25242.68
662.88	25008.62
663.03	24652.86
663.17	24812.02
663.31	24355.61
663.45	24875.21
663.60	24510.09
663.74	24685.63
663.88	24783.93
664.02	24404.77
664.17	24683.29
664.31	24458.60
664.45	24547.54
664.59	24573.28
664.73	24847.13
664.88	24762.87
665.02	24212.84
665.16	23807.93
665.30	24290.08
665.44	23997.51
665.59	24194.12
665.73	23838.36
665.87	24065.39
666.01	24053.69
666.15	24299.44
666.29	24088.79
666.44	24217.52
666.58	23824.31
666.72	23960.06
666.86	24175.39
667.00	24306.46
667.14	23548.13
667.28	23896.87
667.43	23683.88
667.57	23665.16
667.71	23901.55
667.85	23498.98
667.99	23828.99
668.13	23613.66
668.27	23611.32
668.41	23948.36
668.56	23559.83
668.70	23936.66
668.84	23351.52
668.98	23674.52
669.12	23321.10
669.26	23590.26
669.40	23304.71
669.54	23208.75
669.68	23026.19
669.82	23241.52
669.96	23061.30
670.10	22974.70
670.25	23264.92
670.39	22803.84
670.53	23204.07
670.67	23157.26
670.81	23110.45
670.95	23248.54
671.09	23073.00
671.23	22920.87
671.37	22829.59
671.51	23026.19
671.65	22977.04
671.79	22850.65
671.93	22541.70
672.07	22717.24
672.21	22623.62
672.35	22373.18
672.49	22764.05
672.63	22199.98
672.77	22298.28
672.91	22705.54
673.05	22506.59
673.19	22300.62
673.33	21991.67
673.47	22141.47
673.61	22317.01
673.75	22537.02
673.89	22307.65
674.03	22207.00
674.17	22281.90
674.31	22125.08
674.45	22157.85
674.59	22331.05
674.73	22003.38
674.87	21675.70
675.01	22017.42
675.15	21727.19
675.29	21638.25
675.43	21654.64
675.56	21556.33
675.70	21352.71
675.84	21516.54
675.98	21151.42
676.12	21682.72
676.26	21699.11
676.40	21664.00
676.54	21750.60
676.68	21460.37
676.82	21015.67
676.96	20889.28
677.10	20671.61
677.23	20898.64
677.37	21039.08
677.51	20556.93
677.65	20699.70
677.79	20582.67
677.93	20655.23
678.07	20582.67
678.21	20496.07
678.34	20475.01
678.48	20224.57
678.62	20247.97
678.76	20311.17
678.90	20163.72
679.04	20060.73
679.18	20318.19
679.31	19843.06
679.45	19847.74
679.59	19812.63
679.73	19323.46
679.87	19880.51
680.00	19896.89
680.14	19503.68
680.28	19826.68
680.42	19398.36
680.56	19901.58
680.70	19609.01
680.83	19597.31
680.97	19365.59
681.11	19318.78
681.25	19400.70
681.39	19665.18
681.52	19276.65
681.66	19124.52
681.80	19178.35
681.94	19073.03
682.07	18963.02
682.21	18981.74
682.35	18506.62
682.49	18415.34
682.62	18773.44
682.76	18621.30
682.90	18747.69
683.04	19068.34
683.17	18750.03
683.31	18527.68
683.45	18651.73
683.59	18635.35
683.72	18331.08
683.86	18448.10
684.00	18506.62
684.13	18504.28
684.27	18061.91
684.41	18246.82
684.55	18146.17
684.68	17631.26
684.82	17862.97
684.96	17755.30
685.09	17755.30
685.23	17291.88
685.37	17980.00
685.50	17598.49
685.64	17621.89
685.78	17776.37
685.91	17774.03
686.05	17657.00
686.19	17266.13
686.32	17523.59
686.46	17078.89
686.60	17163.15
686.73	17123.36
686.87	17001.65
687.01	16933.78
687.14	16912.71
687.28	16861.22
687.42	16624.83
687.55	16805.05
687.69	17011.01
687.82	16769.94
687.96	16709.08
688.10	16439.92
688.23	16491.41
688.37	16627.17
688.50	16479.71
688.64	16355.66
688.78	16294.81
688.91	15957.77
689.05	16191.83
689.18	16170.76
689.32	16116.93
689.46	16226.93
689.59	15939.05
689.73	16018.63
689.86	15709.68
690.00	15927.35
690.13	15723.72
690.27	16009.26
690.41	15749.46
690.54	15594.99
690.68	15578.61
690.81	15515.41
690.95	15506.05
691.08	15667.55
691.22	15295.40
691.35	15433.49
691.49	15297.74
691.62	15204.12
691.76	14991.13
691.89	15140.93
692.03	14717.29
692.16	14642.39
692.30	14637.71
692.43	14841.34
692.57	14867.08
692.70	14682.18
692.84	14527.71
692.97	14719.63
693.11	14553.45
693.24	14504.30
693.38	14618.99
693.51	14469.19
693.65	14176.62
693.78	14249.18
693.92	14504.30
694.05	14171.94
694.19	13965.98
694.32	14178.97
694.45	13963.64
694.59	14115.77
694.72	13806.82
694.86	13909.80
694.99	13619.58
695.13	14054.92
695.26	13755.33
695.39	13645.32
695.53	13462.76
695.66	13682.77
695.80	13455.74
695.93	13596.17
696.07	13404.25
696.20	13493.19
696.33	13448.72
696.47	13341.05
696.60	13083.59
696.73	13160.83
696.87	13062.53
697.00	13165.51
697.14	13018.06
697.27	12704.43
697.40	12966.57
697.54	12650.60
697.67	12699.75
697.80	12741.88
697.94	12704.43
698.07	12582.72
698.21	12400.16
698.34	12486.76
698.47	12692.73
698.61	12367.39
698.74	12519.53
698.87	12388.46
699.01	12313.56
699.14	12255.04
699.27	11831.41
699.40	12297.17
699.54	11969.50
699.67	12060.78
699.80	12011.63
699.94	11915.67
700.07	11686.29
700.20	11698.00
700.34	11698.00
700.47	11496.71
700.60	11461.60
700.73	11517.78
700.87	11637.14
701.00	11627.78
701.13	11391.39
701.26	11246.27
701.40	11449.90
701.53	11482.67
701.66	11515.44
701.79	11426.50
701.93	11358.62
702.06	11126.91
702.19	10937.32
702.32	11122.23
702.46	10834.34
702.59	10897.53
702.72	10841.36
702.85	10761.78
702.99	10787.53
703.12	10906.90
703.25	10614.33
703.38	10827.32
703.51	10724.33
703.65	10630.71
703.78	10455.17
703.91	10523.05
704.04	10668.16
704.17	10537.09
704.31	10511.35
704.44	10260.91
704.57	10120.48
704.70	10345.17
704.83	10090.05
704.96	10085.37
705.10	10010.47
705.23	10050.26
>>>>>End Processed Spectral Data<<<<<
