SpectraSuite Data File
++++++++++++++++++++++++++++++++++++
Date: Fri Oct 18 13:58:06 GMT-05:00 2013
User: bianchi
Dark Spectrum Present: No
Reference Spectrum Present: No
Number of Sampled Component Spectra: 1
Spectrometers: USB2+H05261
Integration Time (usec): 50000 (USB2+H05261)
Spectra Averaged: 1 (USB2+H05261)
Boxcar Smoothing: 0 (USB2+H05261)
Correct for Electrical Dark: No (USB2+H05261)
Strobe/Lamp Enabled: No (USB2+H05261)
Correct for Detector Non-linearity: No (USB2+H05261)
Correct for Stray Light: No (USB2+H05261)
Number of Pixels in Processed Spectrum: 2048
>>>>>Begin Processed Spectral Data<<<<<
365.73	0.00
365.92	0.00
366.12	0.00
366.32	0.00
366.52	0.00
366.72	0.00
366.91	0.00
367.11	0.00
367.31	0.00
367.51	0.00
367.70	0.00
367.90	0.00
368.10	0.00
368.30	0.00
368.49	0.00
368.69	0.00
368.89	0.00
369.09	0.00
369.28	0.00
369.48	0.00
369.68	0.00
369.87	0.00
370.07	0.00
370.27	0.00
370.47	0.00
370.66	7.02
370.86	81.92
371.06	112.35
371.25	224.69
371.45	114.69
371.65	91.28
371.84	142.77
372.04	147.45
372.24	189.58
372.44	128.73
372.63	227.03
372.83	220.01
373.03	241.08
373.22	184.90
373.42	245.76
373.62	191.92
373.81	264.48
374.01	248.10
374.21	234.05
374.40	238.73
374.60	248.10
374.79	208.31
374.99	238.73
375.19	161.50
375.38	227.03
375.58	243.42
375.78	337.04
375.97	241.08
376.17	273.84
376.37	334.70
376.56	290.23
376.76	236.39
376.95	276.18
377.15	313.63
377.35	229.37
377.54	346.40
377.74	217.67
377.93	217.67
378.13	266.82
378.33	362.78
378.52	278.52
378.72	220.01
378.91	311.29
379.11	325.33
379.31	318.31
379.50	290.23
379.70	290.23
379.89	252.78
380.09	241.08
380.28	313.63
380.48	299.59
380.68	318.31
380.87	259.80
381.07	337.04
381.26	395.55
381.46	320.65
381.65	367.46
381.85	374.49
382.04	346.40
382.24	346.40
382.43	318.31
382.63	346.40
382.83	390.87
383.02	383.85
383.22	374.49
383.41	308.95
383.61	290.23
383.80	402.57
384.00	306.61
384.19	397.89
384.39	400.23
384.58	360.44
384.78	425.98
384.97	379.17
385.17	348.74
385.36	458.74
385.56	351.08
385.75	489.17
385.95	418.96
386.14	416.62
386.34	454.06
386.53	393.21
386.72	355.76
386.92	470.45
387.11	411.93
387.31	470.45
387.50	397.89
387.70	411.93
387.89	451.72
388.09	414.27
388.28	482.15
388.48	430.66
388.67	465.77
388.86	470.45
389.06	409.59
389.25	468.11
389.45	444.70
389.64	519.60
389.84	517.26
390.03	484.49
390.22	456.40
390.42	498.53
390.61	449.38
390.81	526.62
391.00	510.24
391.19	564.07
391.39	505.56
391.58	615.56
391.78	521.94
391.97	543.00
392.16	540.66
392.36	580.45
392.55	524.28
392.75	589.82
392.94	550.03
393.13	559.39
393.33	540.66
393.52	545.34
393.71	519.60
393.91	692.80
394.10	500.87
394.29	589.82
394.49	606.20
394.68	603.86
394.88	608.54
395.07	641.31
395.26	571.09
395.46	638.97
395.65	645.99
395.84	608.54
396.04	674.07
396.23	589.82
396.42	479.81
396.62	622.58
396.81	622.58
397.00	720.88
397.19	702.16
397.39	641.31
397.58	683.44
397.77	713.86
397.97	718.54
398.16	767.70
398.35	631.94
398.55	662.37
398.74	734.93
398.93	798.12
399.12	821.53
399.32	706.84
399.51	648.33
399.70	842.59
399.90	763.01
400.09	788.76
400.28	812.17
400.47	737.27
400.67	861.32
400.86	788.76
401.05	833.23
401.24	847.27
401.44	861.32
401.63	861.32
401.82	781.74
402.01	837.91
402.21	851.96
402.40	863.66
402.59	880.04
402.78	917.49
402.97	823.87
403.17	866.00
403.36	884.72
403.55	870.68
403.74	980.68
403.93	901.11
404.13	1001.75
404.32	943.24
404.51	950.26
404.70	936.21
404.89	980.68
405.09	1029.84
405.28	976.00
405.47	980.68
405.66	1067.28
405.85	1020.47
406.05	929.19
406.24	971.32
406.43	943.24
406.62	1020.47
406.81	1064.94
407.00	931.53
407.20	1064.94
407.39	1123.46
407.58	1039.20
407.77	1060.26
407.96	1116.44
408.15	1071.97
408.34	1050.90
408.54	1097.71
408.73	1153.88
408.92	1156.22
409.11	1130.48
409.30	1132.82
409.49	1041.54
409.68	1212.40
409.87	1139.84
410.07	1231.12
410.26	1174.95
410.45	1135.16
410.64	1233.46
410.83	1228.78
411.02	1266.23
411.21	1259.21
411.40	1282.61
411.59	1275.59
411.78	1256.87
411.98	1329.42
412.17	1261.55
412.36	1348.15
412.55	1376.24
412.74	1406.66
412.93	1444.11
413.12	1432.41
413.31	1444.11
413.50	1434.75
413.69	1488.58
413.88	1418.36
414.07	1404.32
414.26	1495.60
414.45	1462.83
414.64	1481.56
414.83	1476.88
415.02	1561.14
415.22	1561.14
415.41	1668.80
415.60	1591.56
415.79	1584.54
415.98	1739.02
416.17	1673.48
416.36	1554.12
416.55	1696.89
416.74	1661.78
416.93	1549.43
417.12	1743.70
417.31	1706.25
417.50	1659.44
417.69	1732.00
417.88	1788.17
418.07	1844.34
418.26	1778.81
418.45	1734.34
418.64	1715.61
418.83	1860.73
419.02	1837.32
419.21	1741.36
419.39	1919.24
419.58	1914.56
419.77	1916.90
419.96	1895.83
420.15	1891.15
420.34	1811.57
420.53	1893.49
420.72	2010.52
420.91	1926.26
421.10	1935.62
421.29	2033.93
421.48	1898.17
421.67	1926.26
421.86	2038.61
422.05	1987.11
422.24	2001.16
422.43	2031.58
422.61	2043.29
422.80	2054.99
422.99	2005.84
423.18	2040.95
423.37	2019.88
423.56	1966.05
423.75	2045.63
423.94	1984.77
424.13	1935.62
424.32	1944.99
424.50	2083.08
424.69	2209.47
424.88	2141.59
425.07	2064.35
425.26	1996.48
425.45	2054.99
425.64	2108.82
425.83	2101.80
426.01	2101.80
426.20	2127.55
426.39	2155.63
426.58	2106.48
426.77	2040.95
426.96	2223.51
427.15	2162.66
427.33	2167.34
427.52	2251.60
427.71	2230.53
427.90	2160.31
428.09	2087.76
428.28	2127.55
428.46	2246.91
428.65	2305.43
428.84	2277.34
429.03	2380.32
429.22	2260.96
429.40	2382.67
429.59	2270.32
429.78	2090.10
429.97	2221.17
430.16	2195.42
430.34	2335.85
430.53	2321.81
430.72	2286.70
430.91	2310.11
431.10	2370.96
431.28	2544.16
431.47	2424.80
431.66	2429.48
431.85	2413.09
432.03	2478.63
432.22	2544.16
432.41	2448.20
432.60	2363.94
432.79	2445.86
432.97	2406.07
433.16	2597.99
433.35	2487.99
433.54	2499.69
433.72	2532.46
433.91	2607.36
434.10	2562.89
434.28	2619.06
434.47	2597.99
434.66	2506.71
434.85	2630.76
435.03	2658.85
435.22	2623.74
435.41	2722.04
435.59	2759.49
435.78	2619.06
435.97	2710.34
436.16	2757.15
436.34	2738.43
436.53	2808.64
436.72	2789.92
436.90	2696.30
437.09	2853.11
437.28	2668.21
437.46	2853.11
437.65	2715.02
437.84	2848.43
438.02	2862.48
438.21	2902.26
438.40	2780.56
438.58	2810.98
438.77	2963.12
438.96	2862.48
439.14	2925.67
439.33	2855.45
439.52	3148.02
439.70	3045.04
439.89	3014.61
440.08	3110.57
440.26	3087.17
440.45	3190.15
440.63	3199.51
440.82	3225.26
441.01	3073.12
441.19	3183.13
441.38	3222.92
441.57	3183.13
441.75	3344.63
441.94	3382.07
442.12	3243.98
442.31	3461.65
442.50	3440.59
442.68	3297.81
442.87	3419.52
443.05	3440.59
443.24	3501.44
443.43	3459.31
443.61	3534.21
443.80	3475.70
443.98	3363.35
444.17	3274.41
444.35	3393.78
444.54	3571.66
444.73	3475.70
444.91	3375.05
445.10	3485.06
445.28	3405.48
445.47	3555.27
445.65	3597.40
445.84	3569.32
446.02	3595.06
446.21	3447.61
446.39	3492.08
446.58	3531.87
446.77	3592.72
446.95	3471.01
447.14	3501.44
447.32	3595.06
447.51	3646.55
447.69	3590.38
447.88	3559.95
448.06	3557.61
448.25	3559.95
448.43	3543.57
448.62	3564.64
448.80	3475.70
448.99	3698.05
449.17	3772.94
449.36	3496.76
449.54	3700.39
449.73	3686.34
449.91	3747.20
450.10	3705.07
450.28	3847.84
450.46	3702.73
450.65	3733.15
450.83	3726.13
451.02	3866.56
451.20	3763.58
451.39	3866.56
451.57	3901.67
451.76	3833.80
451.94	3691.02
452.13	3880.61
452.31	4009.34
452.49	3894.65
452.68	3932.10
452.86	3922.74
453.05	3997.64
453.23	3962.53
453.42	3899.33
453.60	3896.99
453.78	3974.23
453.97	4009.34
454.15	3971.89
454.34	4014.02
454.52	4131.05
454.70	4044.45
454.89	4177.86
455.07	4215.30
455.26	4009.34
455.44	4245.73
455.62	4227.01
455.81	4325.31
455.99	4189.56
456.17	4138.07
456.36	4072.53
456.54	4229.35
456.73	4337.01
456.91	4421.27
457.09	4414.25
457.28	4510.21
457.46	4271.48
457.64	4472.76
457.83	4381.48
458.01	4257.43
458.19	4578.09
458.38	4477.44
458.56	4526.60
458.74	4444.68
458.93	4519.57
459.11	4594.47
459.29	4290.20
459.48	4557.02
459.66	4484.47
459.84	4648.30
460.03	4730.22
460.21	4662.35
460.39	4718.52
460.57	4681.07
460.76	4667.03
460.94	4650.64
461.12	4578.09
461.31	4704.48
461.49	4652.98
461.67	4777.03
461.85	4933.85
462.04	4842.57
462.22	4863.63
462.40	4748.95
462.59	4823.84
462.77	4983.00
462.95	4952.57
463.13	4938.53
463.32	5004.07
463.50	4980.66
463.68	4980.66
463.86	4896.40
464.05	4870.65
464.23	4973.64
464.41	5015.77
464.59	4950.23
464.78	5004.07
464.96	5029.81
465.14	4964.28
465.32	5167.90
465.50	5247.48
465.69	5163.22
465.87	5116.41
466.05	5130.45
466.23	5247.48
466.41	5111.73
466.60	5345.78
466.78	5034.49
466.96	5095.35
467.14	5006.41
467.32	5291.95
467.51	5203.01
467.69	5160.88
467.87	5430.04
468.05	5263.86
468.23	5128.11
468.41	5221.74
468.60	5313.02
468.78	5137.48
468.96	5355.15
469.14	5371.53
469.32	5298.97
469.50	5341.10
469.69	5462.81
469.87	5605.58
470.05	5554.09
470.23	5533.03
470.41	5547.07
470.59	5685.16
470.77	5565.79
470.95	5659.42
471.14	5776.44
471.32	5624.31
471.50	5851.34
471.68	5823.25
471.86	5727.29
472.04	5802.19
472.22	5799.85
472.40	5785.80
472.58	5856.02
472.77	5891.13
472.95	6186.04
473.13	6022.20
473.31	5991.77
473.49	6012.84
473.67	5881.77
473.85	6104.12
474.03	6050.28
474.21	6125.18
474.39	6066.67
474.57	6214.12
474.75	6197.74
474.93	6267.95
475.12	6270.30
475.30	6509.03
475.48	6445.84
475.66	6523.07
475.84	6434.13
476.02	6422.43
476.20	6626.06
476.38	6616.69
476.56	6537.12
476.74	6700.95
476.92	6621.38
477.10	6607.33
477.28	6803.94
477.46	6787.55
477.64	6986.50
477.82	6832.02
478.00	7136.29
478.18	7131.61
478.36	7115.23
478.54	7258.00
478.72	7236.94
478.90	7433.54
479.08	7407.80
479.26	7468.65
479.44	7386.73
479.62	7442.90
479.80	7637.17
479.98	7417.16
480.16	7913.35
480.34	7833.77
480.52	7946.12
480.70	7751.85
480.88	7754.19
481.06	7847.82
481.24	8016.33
481.41	7859.52
481.59	8168.47
481.77	8091.23
481.95	8290.18
482.13	8379.12
482.31	8219.96
482.49	8414.23
482.67	8491.46
482.85	8676.37
483.03	8652.96
483.21	8793.39
483.39	8877.65
483.57	8659.98
483.74	8812.12
483.92	8922.12
484.10	8758.28
484.28	9076.60
484.46	9364.48
484.64	9324.69
484.82	9331.72
485.00	9224.05
485.18	9401.93
485.35	9537.68
485.53	9500.23
485.71	9434.70
485.89	9837.27
486.07	9577.47
486.25	9895.78
486.43	10092.39
486.61	10024.51
486.78	10068.98
486.96	10108.77
487.14	10347.51
487.32	10148.56
487.50	10401.34
487.68	10504.32
487.85	10551.14
488.03	10864.77
488.21	10679.86
488.39	10956.05
488.57	10951.37
488.75	11044.99
488.92	11075.42
489.10	11290.74
489.28	10888.17
489.46	11272.02
489.64	11382.03
489.81	11494.37
489.99	11599.70
490.17	11520.12
490.35	11791.62
490.53	11864.18
490.70	11906.31
490.88	11744.81
491.06	12060.78
491.24	11948.43
491.41	12100.57
491.59	12353.35
491.77	12311.22
491.95	12388.46
492.13	12706.77
492.30	12657.62
492.48	12453.99
492.66	12585.06
492.84	12685.70
493.01	12985.29
493.19	12828.48
493.37	13043.81
493.54	13284.88
493.72	13233.39
493.90	13303.60
494.08	13282.54
494.25	13329.35
494.43	13319.99
494.61	13577.45
494.79	13635.96
494.96	13532.98
495.14	13558.72
495.32	13937.89
495.49	13905.12
495.67	13958.96
495.85	13987.04
496.02	13977.68
496.20	14190.67
496.38	14387.27
496.55	14190.67
496.73	14853.04
496.91	14394.29
497.09	14705.59
497.26	14881.13
497.44	14794.53
497.62	14967.73
497.79	15014.54
497.97	14803.89
498.14	15138.58
498.32	15023.90
498.50	15335.19
498.67	15492.01
498.85	15145.61
499.03	15239.23
499.20	15391.36
499.38	15616.05
499.56	15578.61
499.73	15641.80
499.91	15761.17
500.08	15847.77
500.26	15557.54
500.44	16004.58
500.61	15669.89
500.79	15793.94
500.97	16196.51
501.14	16482.05
501.32	16212.89
501.49	16217.57
501.67	16159.06
501.84	16201.19
502.02	16145.02
502.20	16350.98
502.37	16456.31
502.55	16685.68
502.72	16549.93
502.90	16514.82
503.07	16580.36
503.25	16664.61
503.43	16652.91
503.60	16985.27
503.78	17057.82
503.95	16875.26
504.13	17149.11
504.30	17095.27
504.48	16886.97
504.65	17247.41
504.83	17151.45
505.01	17453.37
505.18	17263.79
505.36	17472.10
505.53	17193.58
505.71	17792.75
505.88	17640.62
506.06	17481.46
506.23	17605.51
506.41	17872.33
506.58	17783.39
506.76	17905.10
506.93	17998.72
507.11	17783.39
507.28	17816.16
507.46	17961.27
507.63	18129.79
507.81	18354.48
507.98	18082.98
508.16	18274.90
508.33	18380.23
508.50	18441.08
508.68	18216.39
508.85	18703.22
509.03	18548.75
509.20	18574.49
509.38	18642.37
509.55	19026.21
509.73	18471.51
509.90	18939.62
510.08	18609.60
510.25	18892.80
510.42	18951.32
510.60	19232.18
510.77	19124.52
510.95	19248.57
511.12	19187.71
511.30	19030.90
511.47	19138.56
511.64	19510.71
511.82	19665.18
511.99	19559.86
512.17	19826.68
512.34	19213.46
512.51	19583.26
512.69	19988.18
512.86	19887.53
513.04	19861.79
513.21	19845.40
513.38	19910.94
513.56	19793.91
513.73	19995.20
513.90	20088.82
514.08	20006.90
514.25	20348.62
514.43	20142.65
514.60	20379.04
514.77	20596.71
514.95	20128.61
515.12	20346.28
515.29	20432.88
515.47	20531.18
515.64	21137.38
515.81	20463.30
515.99	20854.17
516.16	20936.09
516.33	20783.96
516.51	20821.41
516.68	20926.73
516.85	20875.24
517.03	20790.98
517.20	20725.44
517.37	21275.47
517.54	21135.04
517.72	21085.89
517.89	20823.75
518.06	21039.08
518.24	21294.19
518.41	20816.72
518.58	21268.45
518.75	21495.48
518.93	21561.02
519.10	21614.85
519.27	21420.58
519.45	21385.47
519.62	21509.52
519.79	21617.19
519.96	21701.45
520.14	21675.70
520.31	21996.35
520.48	21926.14
520.65	21851.24
520.83	21759.96
521.00	21823.16
521.17	21771.66
521.34	21935.50
521.52	21947.20
521.69	22066.57
521.86	22520.63
522.03	22560.42
522.20	22263.18
522.38	22525.32
522.55	22401.27
522.72	22122.74
522.89	22281.90
523.07	22724.26
523.24	22429.35
523.41	22918.53
523.58	22422.33
523.75	22792.14
523.92	22710.22
524.10	22806.18
524.27	22583.83
524.44	22869.37
524.61	23185.35
524.78	23370.25
524.96	23089.38
525.13	23044.91
525.30	23206.41
525.47	23037.89
525.64	23183.01
525.81	23367.91
525.98	23278.97
526.16	23522.38
526.33	23428.76
526.50	23843.04
526.67	23253.22
526.84	23683.88
527.01	23552.81
527.18	23484.94
527.36	23538.77
527.53	23599.62
527.70	23964.75
527.87	24201.14
528.04	23789.20
528.21	23807.93
528.38	23833.68
528.55	24013.90
528.72	24121.56
528.89	24243.27
529.07	23943.68
529.24	24016.24
529.41	24287.74
529.58	24219.86
529.75	23845.38
529.92	24058.37
530.09	24091.13
530.26	24219.86
530.43	24222.20
530.60	24341.57
530.77	24346.25
530.94	24650.52
531.11	24264.33
531.28	24554.56
531.46	24510.09
531.63	24718.40
531.80	24809.68
531.97	24631.80
532.14	24720.74
532.31	24964.15
532.48	24489.03
532.65	25034.37
532.82	24830.74
532.99	24966.49
533.16	24922.02
533.33	25001.60
533.50	25130.33
533.67	25212.25
533.84	24968.84
534.01	24912.66
534.18	25170.12
534.35	25120.97
534.52	24938.41
534.69	25371.41
534.86	25572.69
535.03	25605.46
535.20	25401.83
535.37	25553.97
535.54	25778.66
535.71	25179.48
535.88	25551.63
536.05	25123.31
536.22	25860.58
536.38	25589.08
536.55	25614.82
536.72	25792.70
536.89	25439.28
537.06	25827.81
537.23	25820.79
537.40	25460.35
537.57	25968.24
537.74	25916.75
537.91	26080.59
538.08	25881.64
538.25	26181.23
538.42	25961.22
538.59	26115.70
538.75	25757.60
538.92	25776.32
539.09	25827.81
539.26	26057.18
539.43	26354.43
539.60	26024.42
539.77	26164.85
539.94	26471.46
540.11	26281.88
540.28	26410.60
540.44	26480.82
540.61	26300.60
540.78	26305.28
540.95	26401.24
541.12	26153.15
541.29	26469.12
541.46	26855.31
541.62	26331.03
541.79	26644.66
541.96	26382.52
542.13	26614.23
542.30	26445.71
542.47	26785.09
542.63	26508.91
542.80	26845.94
542.97	27267.24
543.14	27070.64
543.31	27154.90
543.48	26885.73
543.64	27126.81
543.81	27274.26
543.98	27410.01
544.15	27618.32
544.32	27026.17
544.48	27676.83
544.65	27339.80
544.82	27199.37
544.99	26829.56
545.16	27012.12
545.32	27461.51
545.49	27475.55
545.66	27459.16
545.83	27466.19
546.00	27721.30
546.16	27555.13
546.33	27349.16
546.50	27360.86
546.67	27391.29
546.83	27145.53
547.00	27601.94
547.17	27604.28
547.34	27658.11
547.50	27693.22
547.67	28222.18
547.84	27995.15
548.00	28060.68
548.17	27887.48
548.34	27873.44
548.51	28016.21
548.67	28137.92
548.84	28587.30
549.01	28114.52
549.18	28243.24
549.34	27924.93
549.51	28102.81
549.68	27793.86
549.84	27857.06
550.01	28233.88
550.18	28051.32
550.34	27999.83
550.51	28554.54
550.68	28308.78
550.84	28278.35
551.01	28325.16
551.18	28072.39
551.34	28020.89
551.51	27728.33
551.68	28505.38
551.84	28524.11
552.01	28156.64
552.18	28620.07
552.34	28449.21
552.51	28414.10
552.68	28353.25
552.84	28247.93
553.01	28685.61
553.18	28535.81
553.34	28692.63
553.51	28776.89
553.67	28877.53
553.84	29181.80
554.01	28620.07
554.17	28917.32
554.34	28687.95
554.51	28694.97
554.67	28821.36
554.84	29160.73
555.00	28858.81
555.17	29198.18
555.33	29013.28
555.50	28924.34
555.67	28821.36
555.83	28900.94
556.00	28767.52
556.16	29401.81
556.33	28783.91
556.50	29010.94
556.66	29312.87
556.83	28987.53
556.99	29324.57
557.16	29240.31
557.32	29237.97
557.49	29434.58
557.65	29191.16
557.82	29235.63
557.98	29359.68
558.15	29572.67
558.32	29605.44
558.48	29111.58
558.65	29488.41
558.81	29563.31
558.98	29607.78
559.14	29387.77
559.31	29235.63
559.47	29539.90
559.64	29289.46
559.80	29923.75
559.97	29514.16
560.13	29764.59
560.30	29387.77
560.46	29729.48
560.63	29708.42
560.79	29757.57
560.96	29518.84
561.12	29776.30
561.29	29525.86
561.45	29734.17
561.61	29809.06
561.78	30132.06
561.94	29956.52
562.11	29443.94
562.27	29839.49
562.44	29881.62
562.60	29631.18
562.77	29198.18
562.93	29404.15
563.10	30209.29
563.26	29832.47
563.42	30136.74
563.59	29937.79
563.75	30169.51
563.92	30157.80
564.08	30040.78
564.24	30096.95
564.41	29823.11
564.57	29717.78
564.74	30061.84
564.90	29942.47
565.07	30312.28
565.23	30015.03
565.39	30331.00
565.56	30373.13
565.72	30012.69
565.88	30029.07
566.05	29956.52
566.21	29858.21
566.38	29881.62
566.54	30359.09
566.70	30359.09
566.87	30181.21
567.03	30391.86
567.19	30422.28
567.36	30125.04
567.52	30316.96
567.68	30529.95
567.85	29965.88
568.01	30321.64
568.17	30185.89
568.34	30499.52
568.50	30433.99
568.66	30504.20
568.83	30642.29
568.99	30202.27
569.15	30094.61
569.32	29799.70
569.48	30188.23
569.64	30235.04
569.81	30417.60
569.97	30258.45
570.13	30614.21
570.30	30335.68
570.46	30174.19
570.62	30396.54
570.78	30525.27
570.95	30029.07
571.11	30368.45
571.27	30649.32
571.43	30426.96
571.60	30300.58
571.76	30476.12
571.92	30740.60
572.09	30457.39
572.25	30480.80
572.41	30277.17
572.57	30448.03
572.74	30593.14
572.90	30274.83
573.06	30480.80
573.22	30511.22
573.38	30352.07
573.55	30555.69
573.71	30967.63
573.87	30607.19
574.03	30558.03
574.20	30588.46
574.36	30431.65
574.52	30693.79
574.68	30637.61
574.84	30604.84
575.01	30981.67
575.17	30368.45
575.33	30448.03
575.49	30569.74
575.65	30654.00
575.82	30967.63
575.98	30735.92
576.14	30738.26
576.30	30703.15
576.46	30677.40
576.62	30347.39
576.79	30649.32
576.95	30518.25
577.11	30801.45
577.27	30696.13
577.43	30476.12
577.59	30625.91
577.75	30850.60
577.92	30448.03
578.08	30686.76
578.24	30520.59
578.40	30604.84
578.56	30974.65
578.72	30623.57
578.88	31049.55
579.04	31274.24
579.21	30700.81
579.37	30810.81
579.53	30984.01
579.69	30375.47
579.85	31065.93
580.01	30396.54
580.17	30487.82
580.33	30656.34
580.49	30899.75
580.65	31009.76
580.82	31138.49
580.98	30920.82
581.14	30738.26
581.30	31218.07
581.46	30991.03
581.62	30712.51
581.78	30424.62
581.94	30384.83
582.10	30707.83
582.26	30492.50
582.42	30866.98
582.58	30780.39
582.74	30609.53
582.90	31056.57
583.06	31110.40
583.22	31002.74
583.38	30731.23
583.54	30787.41
583.70	30712.51
583.86	30986.35
584.02	30932.52
584.18	31007.42
584.34	31250.83
584.50	31108.06
584.66	30553.35
584.82	30773.36
584.98	30941.88
585.14	30976.99
585.30	30590.80
585.46	31274.24
585.62	30827.20
585.78	30859.96
585.94	30319.30
586.10	30768.68
586.26	30913.80
586.42	30775.70
586.58	30881.03
586.74	30962.95
586.90	30976.99
587.06	31117.42
587.22	30979.33
587.38	30899.75
587.54	31054.23
587.70	31241.47
587.86	31152.53
588.02	31185.30
588.18	31271.90
588.34	31431.05
588.49	31264.88
588.65	30635.27
588.81	30866.98
588.97	30747.62
589.13	31386.58
589.29	30883.37
589.45	30962.95
589.61	31271.90
589.77	31377.22
589.93	31505.95
590.08	31709.58
590.24	31089.34
590.40	31262.54
590.56	31517.65
590.72	30969.97
590.88	30913.80
591.04	31225.09
591.20	31335.09
591.35	31346.79
591.51	31550.42
591.67	31309.35
591.83	31330.41
591.99	31639.36
592.15	31732.98
592.31	31220.41
592.46	30998.06
592.62	31014.44
592.78	31225.09
592.94	31061.25
593.10	31126.78
593.26	31604.25
593.41	31124.44
593.57	31332.75
593.73	31234.45
593.89	31241.47
594.05	31688.51
594.20	31690.85
594.36	31412.33
594.52	31234.45
594.68	31466.16
594.84	31047.21
594.99	31835.97
595.15	31454.46
595.31	31655.75
595.47	31655.75
595.62	31466.16
595.78	31494.25
595.94	31831.29
596.10	31356.16
596.25	31447.44
596.41	31433.39
596.57	31079.97
596.73	31220.41
596.88	31267.22
597.04	31260.20
597.20	31791.50
597.36	31498.93
597.51	31901.50
597.67	31349.14
597.83	31515.31
597.99	31690.85
598.14	31480.21
598.30	31337.43
598.46	31281.26
598.61	31590.21
598.77	31606.59
598.93	31459.14
599.09	31875.76
599.24	31873.42
599.40	31871.07
599.56	31990.44
599.71	31566.81
599.87	31398.29
600.03	31454.46
600.18	31468.50
600.34	31662.77
600.50	31522.34
600.65	31428.71
600.81	31550.42
600.97	31489.57
601.12	31796.18
601.28	31463.82
601.44	31555.10
601.59	31407.65
601.75	31318.71
601.91	31435.74
602.06	31517.65
602.22	31393.61
602.37	31599.57
602.53	31487.23
602.69	31611.28
602.84	31784.48
603.00	31704.90
603.16	31690.85
603.31	31943.63
603.47	31424.03
603.62	31648.72
603.78	31754.05
603.94	31592.55
604.09	31346.79
604.25	31302.32
604.40	31512.97
604.56	31119.76
604.71	31604.25
604.87	31208.70
605.03	31660.43
605.18	31740.00
605.34	31344.45
605.49	31168.91
605.65	31571.49
605.80	31386.58
605.96	31023.80
606.12	31299.98
606.27	31749.37
606.43	31328.07
606.58	31611.28
606.74	31618.30
606.89	31534.04
607.05	31800.86
607.20	31669.79
607.36	31569.15
607.51	31803.20
607.67	31068.27
607.82	31201.68
607.98	31218.07
608.13	31573.83
608.29	31316.37
608.44	31372.54
608.60	31215.72
608.75	31459.14
608.91	31672.13
609.06	31367.86
609.22	31255.51
609.37	31393.61
609.53	31754.05
609.68	31271.90
609.84	31140.83
609.99	31384.24
610.15	30984.01
610.30	31159.55
610.46	31288.28
610.61	31438.08
610.76	30874.01
610.92	31307.01
611.07	31267.22
611.23	31096.36
611.38	31206.36
611.54	31267.22
611.69	31131.47
611.84	30995.71
612.00	30766.34
612.15	30888.05
612.31	31250.83
612.46	31044.87
612.62	30801.45
612.77	31124.44
612.92	31339.77
613.08	30920.82
613.23	31091.68
613.39	30836.56
613.54	31112.74
613.69	31026.14
613.85	31213.38
614.00	30965.29
614.15	31297.64
614.31	30902.09
614.46	31124.44
614.62	30735.92
614.77	31304.67
614.92	30895.07
615.08	31166.57
615.23	31241.47
615.38	31005.08
615.54	30691.44
615.69	30707.83
615.84	30719.53
616.00	30583.78
616.15	30831.88
616.30	30981.67
616.46	30644.63
616.61	30628.25
616.76	31512.97
616.92	30649.32
617.07	31262.54
617.22	30471.43
617.37	30682.08
617.53	30614.21
617.68	30661.02
617.83	30574.42
617.99	30600.16
618.14	30501.86
618.29	30677.40
618.45	30614.21
618.60	30623.57
618.75	30817.83
618.90	30466.75
619.06	30579.10
619.21	30850.60
619.36	30551.01
619.51	30181.21
619.67	29886.30
619.82	30279.51
619.97	30721.87
620.12	30036.09
620.28	30445.69
620.43	30979.33
620.58	30270.15
620.73	30529.95
620.89	30249.08
621.04	30480.80
621.19	30506.54
621.34	30499.52
621.49	30188.23
621.65	30501.86
621.80	30387.18
621.95	30359.09
622.10	30429.30
622.25	30085.25
622.41	29855.87
622.56	30263.13
622.71	30441.01
622.86	30565.06
623.01	29773.95
623.16	30057.16
623.32	29820.77
623.47	30366.11
623.62	29720.12
623.77	29841.83
623.92	30127.38
624.07	29883.96
624.23	29905.02
624.38	29820.77
624.53	30045.46
624.68	30003.33
624.83	30075.88
624.98	30036.09
625.13	29680.33
625.29	30068.86
625.44	29675.65
625.59	29666.29
625.74	30087.59
625.89	29673.31
626.04	29912.05
626.19	29521.18
626.34	29982.26
626.49	29240.31
626.65	29722.46
626.80	29701.40
626.95	29893.32
627.10	30080.56
627.25	29937.79
627.40	29289.46
627.55	29699.06
627.70	29563.31
627.85	29017.96
628.00	29256.70
628.15	29633.52
628.30	29518.84
628.45	29401.81
628.60	29518.84
628.76	29247.33
628.91	29453.30
629.06	29497.77
629.21	29411.17
629.36	29184.14
629.51	29457.98
629.66	29376.06
629.81	29013.28
629.96	29017.96
630.11	29542.24
630.26	29083.50
630.41	28856.46
630.56	29003.92
630.71	29331.59
630.86	29174.78
631.01	29041.37
631.16	29237.97
631.31	29558.63
631.46	29465.00
631.61	29244.99
631.76	29024.98
631.91	29284.78
632.06	28870.51
632.21	28788.59
632.36	28952.43
632.51	28517.09
632.66	28919.66
632.81	28470.28
632.96	28788.59
633.10	29158.39
633.25	29034.35
633.40	28823.70
633.55	28669.22
633.70	28872.85
633.85	28233.88
634.00	28957.11
634.15	28879.87
634.30	28566.24
634.45	28650.50
634.60	28748.80
634.75	28451.55
634.90	28758.16
635.05	28699.65
635.19	28566.24
635.34	28898.59
635.49	28950.09
635.64	28870.51
635.79	29081.16
635.94	28662.20
636.09	28210.48
636.24	28645.82
636.39	28393.04
636.53	28762.84
636.68	28489.00
636.83	28737.10
636.98	28596.67
637.13	28666.88
637.28	28952.43
637.43	28828.38
637.57	28833.06
637.72	28641.14
637.87	28547.51
638.02	28247.93
638.17	28533.47
638.32	28451.55
638.46	28182.39
638.61	28116.86
638.76	27831.31
638.91	28257.29
639.06	27777.48
639.20	28119.20
639.35	28081.75
639.50	28100.47
639.65	28290.06
639.80	28467.94
639.94	28449.21
640.09	28142.60
640.24	27845.35
640.39	27580.87
640.54	28198.77
640.68	27835.99
640.83	27899.19
640.98	27655.77
641.13	27630.02
641.27	27955.36
641.42	28081.75
641.57	27824.29
641.72	28020.89
641.86	27828.97
642.01	27679.18
642.16	27962.38
642.31	27777.48
642.45	27751.73
642.60	27791.52
642.75	27686.20
642.90	27388.95
643.04	27515.34
643.19	27653.43
643.34	28060.68
643.48	27587.89
643.63	27807.90
643.78	27679.18
643.93	27992.81
644.07	27768.12
644.22	27623.00
644.37	27819.61
644.51	27934.29
644.66	27697.90
644.81	27370.22
644.95	27037.87
645.10	27337.46
645.25	27143.19
645.39	27475.55
645.54	27426.40
645.69	27538.74
645.83	27522.36
645.98	27402.99
646.13	27850.03
646.27	27442.78
646.42	27686.20
646.57	27503.64
646.71	27171.28
646.86	27594.92
647.00	27161.92
647.15	27365.54
647.30	26927.86
647.44	27208.73
647.59	27316.39
647.74	27129.15
647.88	27288.31
648.03	27049.57
648.17	27239.15
648.32	27098.72
648.47	27496.61
648.61	27424.06
648.76	27407.67
648.90	27068.30
649.05	27201.71
649.20	27239.15
649.34	27002.76
649.49	26773.39
649.63	26941.91
649.78	26979.36
649.92	26565.08
650.07	26813.18
650.21	27094.04
650.36	27009.78
650.51	26934.88
650.65	26749.98
650.80	26754.66
650.94	26829.56
651.09	26962.97
651.23	26869.35
651.38	26862.33
651.52	26518.27
651.67	26960.63
651.81	26747.64
651.96	26684.45
652.10	26562.74
652.25	26923.18
652.39	27000.42
652.54	27192.34
652.68	26787.43
652.83	26850.63
652.97	26930.20
653.12	26838.92
653.26	26661.04
653.41	27080.00
653.55	26691.47
653.70	26295.92
653.84	26473.80
653.99	26590.83
654.13	26541.68
654.27	26148.46
654.42	26487.84
654.56	26616.57
654.71	26614.23
654.85	26703.17
655.00	26424.65
655.14	26834.24
655.29	26150.81
655.43	26279.54
655.57	26548.70
655.72	26396.56
655.86	26340.39
656.01	26157.83
656.15	26029.10
656.30	26221.02
656.44	26384.86
656.58	26080.59
656.73	26232.72
656.87	26082.93
657.01	26073.57
657.16	26359.11
657.30	26176.55
657.45	26436.35
657.59	26511.25
657.73	25799.73
657.88	26246.77
658.02	26026.76
658.16	26047.82
658.31	25972.92
658.45	26228.04
658.60	25788.02
658.74	25883.98
658.88	25958.88
659.03	25245.02
659.17	25675.68
659.31	25895.69
659.46	25757.60
659.60	26129.74
659.74	25741.21
659.89	25766.96
660.03	26008.03
660.17	25340.98
660.32	25539.93
660.46	25591.42
660.60	25514.18
660.74	25305.87
660.89	25067.14
661.03	24835.42
661.17	25167.78
661.32	25104.59
661.46	25528.22
661.60	25228.63
661.74	25626.53
661.89	25546.95
662.03	25539.93
662.17	25364.39
662.31	25071.82
662.46	25556.31
662.60	25151.40
662.74	25177.14
662.88	24917.34
663.03	24687.97
663.17	25116.29
663.31	24589.67
663.45	24727.76
663.60	24751.17
663.74	24584.99
663.88	24938.41
664.02	24690.31
664.17	25078.84
664.31	24528.81
664.45	24428.17
664.59	24755.85
664.73	24854.15
664.88	24456.26
665.02	24592.01
665.16	24079.43
665.30	24254.97
665.44	24381.36
665.59	24456.26
665.73	24198.80
665.87	24444.56
666.01	24240.93
666.15	23875.80
666.29	24219.86
666.44	24205.82
666.58	24095.82
666.72	23758.78
666.86	23957.72
667.00	24081.77
667.14	24189.44
667.28	24212.84
667.43	23974.11
667.57	24184.76
667.71	23836.02
667.85	23838.36
667.99	23660.48
668.13	23817.29
668.27	23400.68
668.41	23943.68
668.56	23723.67
668.70	23920.28
668.84	23585.58
668.98	23751.76
669.12	23594.94
669.26	23566.85
669.40	23644.09
669.54	23655.79
669.68	23454.51
669.82	23304.71
669.96	23122.15
670.10	22979.38
670.25	23311.74
670.39	22953.63
670.53	23288.33
670.67	23267.27
670.81	23023.85
670.95	23473.23
671.09	23047.26
671.23	23297.69
671.37	23042.57
671.51	23208.75
671.65	22993.42
671.79	23035.55
671.93	23278.97
672.07	23096.41
672.21	22855.33
672.35	22295.94
672.49	22300.62
672.63	22527.66
672.77	22632.98
672.91	22487.87
673.05	22625.96
673.19	22644.68
673.33	22597.87
673.47	22419.99
673.61	22223.39
673.75	22361.48
673.89	22562.76
674.03	22160.19
674.17	22398.93
674.31	21891.03
674.45	21869.97
674.59	21872.31
674.73	21860.60
674.87	21874.65
675.01	21984.65
675.15	21841.88
675.29	21823.16
675.43	21675.70
675.56	21687.40
675.70	21804.43
675.84	21888.69
675.98	21219.30
676.12	21855.92
676.26	21579.74
676.40	21481.44
676.54	21628.89
676.68	21434.63
676.82	21280.15
676.96	21221.64
677.10	21076.52
677.23	21137.38
677.37	20816.72
677.51	21113.97
677.65	20688.00
677.79	20554.58
677.93	20837.79
678.07	20807.36
678.21	20400.11
678.34	20580.33
678.48	20409.47
678.62	20453.94
678.76	20365.00
678.90	20397.77
679.04	20500.75
679.18	20439.90
679.31	20070.09
679.45	20009.24
679.59	19913.28
679.73	19992.86
679.87	20161.37
680.00	19957.75
680.14	19810.29
680.28	19592.62
680.42	19896.89
680.56	19665.18
680.70	19789.23
680.83	19632.41
680.97	19506.02
681.11	19707.31
681.25	19248.57
681.39	19281.33
681.52	19119.84
681.66	19236.86
681.80	19222.82
681.94	19140.90
682.07	19131.54
682.21	19150.26
682.35	18747.69
682.49	18628.32
682.62	18511.30
682.76	18775.78
682.90	18806.20
683.04	18754.71
683.17	18696.20
683.31	18665.77
683.45	18359.16
683.59	18656.41
683.72	18633.00
683.86	18307.67
684.00	18122.77
684.13	18448.10
684.27	18087.66
684.41	18342.78
684.55	18284.26
684.68	18256.18
684.82	17947.23
684.96	17895.74
685.09	17696.79
685.23	17752.96
685.37	18003.40
685.50	17881.69
685.64	17549.34
685.78	17570.40
685.91	17649.98
686.05	17589.13
686.19	17547.00
686.32	17434.65
686.46	17544.66
686.60	17039.10
686.73	17348.05
686.87	17046.12
687.01	16870.58
687.14	16985.27
687.28	16891.65
687.42	16695.04
687.55	16858.88
687.69	16683.34
687.82	16690.36
687.96	16599.08
688.10	16505.46
688.23	16643.55
688.37	16769.94
688.50	16339.28
688.64	16468.01
688.78	16327.58
688.91	16542.91
689.05	16369.71
689.18	16219.91
689.32	15885.22
689.46	15957.77
689.59	15833.72
689.73	16276.09
689.86	16128.63
690.00	15946.07
690.13	15819.68
690.27	15826.70
690.41	15868.83
690.54	15667.55
690.68	15555.20
690.81	15871.17
690.95	15517.75
691.08	15524.77
691.22	15250.93
691.35	15346.89
691.49	15370.30
691.62	15398.38
691.76	15108.16
691.89	15405.41
692.03	14752.40
692.16	14813.25
692.30	14916.23
692.43	15049.64
692.57	14707.93
692.70	14902.19
692.84	14679.84
692.97	14530.05
693.11	14672.82
693.24	14939.64
693.38	14628.35
693.51	14590.90
693.65	14593.24
693.78	14345.14
693.92	14398.98
694.05	14181.31
694.19	14115.77
694.32	14370.89
694.45	13954.27
694.59	13933.21
694.72	14066.62
694.86	14125.13
694.99	13532.98
695.13	13778.73
695.26	13666.39
695.39	13642.98
695.53	13881.72
695.66	13785.76
695.80	13650.00
695.93	13825.54
696.07	13661.71
696.20	13614.90
696.33	13511.91
696.47	13425.31
696.60	13291.90
696.73	13298.92
696.87	13345.73
697.00	13179.56
697.14	13341.05
697.27	13095.30
697.40	12734.85
697.54	12940.82
697.67	12524.21
697.80	12879.97
697.94	12781.67
698.07	12531.23
698.21	12512.50
698.34	12468.03
698.47	12592.08
698.61	12575.70
698.74	12482.08
698.87	12554.63
699.01	12233.98
699.14	12346.33
699.27	12077.16
699.40	12306.54
699.54	12114.61
699.67	12121.63
699.80	11946.09
699.94	11681.61
700.07	12016.31
700.20	12091.21
700.34	11817.36
700.47	11524.80
700.60	11761.19
700.73	11733.11
700.87	11688.64
701.00	11768.21
701.13	11527.14
701.26	11321.17
701.40	11566.93
701.53	11468.62
701.66	11606.72
701.79	11126.91
701.93	11274.36
702.06	11332.87
702.19	11138.61
702.32	11197.12
702.46	11035.63
702.59	10930.30
702.72	10808.59
702.85	10775.83
702.99	10796.89
703.12	10883.49
703.25	10712.63
703.38	10644.76
703.51	10822.64
703.65	10787.53
703.78	10480.92
703.91	10558.16
704.04	10628.37
704.17	10691.57
704.31	10382.62
704.44	10342.83
704.57	10345.17
704.70	10176.65
704.83	9966.00
704.96	10258.57
705.10	10087.71
705.23	10076.01
>>>>>End Processed Spectral Data<<<<<
