SpectraSuite Data File
++++++++++++++++++++++++++++++++++++
Date: Fri Oct 18 13:58:12 GMT-05:00 2013
User: bianchi
Dark Spectrum Present: No
Reference Spectrum Present: No
Number of Sampled Component Spectra: 1
Spectrometers: USB2+H05261
Integration Time (usec): 50000 (USB2+H05261)
Spectra Averaged: 1 (USB2+H05261)
Boxcar Smoothing: 0 (USB2+H05261)
Correct for Electrical Dark: No (USB2+H05261)
Strobe/Lamp Enabled: No (USB2+H05261)
Correct for Detector Non-linearity: No (USB2+H05261)
Correct for Stray Light: No (USB2+H05261)
Number of Pixels in Processed Spectrum: 2048
>>>>>Begin Processed Spectral Data<<<<<
365.73	0.00
365.92	0.00
366.12	0.00
366.32	0.00
366.52	0.00
366.72	0.00
366.91	0.00
367.11	0.00
367.31	0.00
367.51	0.00
367.70	0.00
367.90	0.00
368.10	0.00
368.30	0.00
368.49	0.00
368.69	0.00
368.89	0.00
369.09	0.00
369.28	0.00
369.48	0.00
369.68	0.00
369.87	0.00
370.07	0.00
370.27	0.00
370.47	0.00
370.66	35.11
370.86	67.88
371.06	135.75
371.25	187.24
371.45	98.30
371.65	166.18
371.84	86.60
372.04	142.77
372.24	154.48
372.44	154.48
372.63	177.88
372.83	163.84
373.03	205.97
373.22	189.58
373.42	198.95
373.62	255.12
373.81	245.76
374.01	234.05
374.21	264.48
374.40	283.20
374.60	313.63
374.79	194.26
374.99	184.90
375.19	234.05
375.38	273.84
375.58	222.35
375.78	299.59
375.97	297.25
376.17	334.70
376.37	276.18
376.56	269.16
376.76	224.69
376.95	250.44
377.15	318.31
377.35	266.82
377.54	344.06
377.74	234.05
377.93	255.12
378.13	238.73
378.33	297.25
378.52	304.27
378.72	287.89
378.91	257.46
379.11	379.17
379.31	271.50
379.50	250.44
379.70	252.78
379.89	355.76
380.09	273.84
380.28	262.14
380.48	308.95
380.68	344.06
380.87	306.61
381.07	271.50
381.26	348.74
381.46	355.76
381.65	255.12
381.85	353.42
382.04	245.76
382.24	318.31
382.43	332.36
382.63	390.87
382.83	353.42
383.02	390.87
383.22	372.15
383.41	250.44
383.61	369.80
383.80	393.21
384.00	367.46
384.19	409.59
384.39	379.17
384.58	430.66
384.78	397.89
384.97	430.66
385.17	339.38
385.36	353.42
385.56	433.00
385.75	367.46
385.95	400.23
386.14	423.64
386.34	421.30
386.53	386.19
386.72	395.55
386.92	423.64
387.11	479.81
387.31	484.49
387.50	454.06
387.70	430.66
387.89	437.68
388.09	433.00
388.28	470.45
388.48	365.12
388.67	547.69
388.86	390.87
389.06	498.53
389.25	512.58
389.45	528.96
389.64	463.43
389.84	491.51
390.03	496.19
390.22	514.92
390.42	447.04
390.61	414.27
390.81	507.90
391.00	517.26
391.19	552.37
391.39	477.47
391.58	517.26
391.78	449.38
391.97	559.39
392.16	550.03
392.36	524.28
392.55	524.28
392.75	641.31
392.94	561.73
393.13	608.54
393.33	615.56
393.52	578.11
393.71	599.18
393.91	653.01
394.10	578.11
394.29	580.45
394.49	528.96
394.68	650.67
394.88	671.73
395.07	634.29
395.26	629.60
395.46	624.92
395.65	638.97
395.84	561.73
396.04	603.86
396.23	594.50
396.42	655.35
396.62	699.82
396.81	681.10
397.00	631.94
397.19	746.63
397.39	636.63
397.58	760.67
397.77	653.01
397.97	709.18
398.16	706.84
398.35	774.72
398.55	741.95
398.74	777.06
398.93	711.52
399.12	676.41
399.32	660.03
399.51	734.93
399.70	741.95
399.90	741.95
400.09	760.67
400.28	793.44
400.47	793.44
400.67	681.10
400.86	856.64
401.05	720.88
401.24	858.98
401.44	875.36
401.63	788.76
401.82	851.96
402.01	828.55
402.21	716.20
402.40	875.36
402.59	807.48
402.78	873.02
402.97	830.89
403.17	924.51
403.36	828.55
403.55	912.81
403.74	1018.13
403.93	891.74
404.13	940.90
404.32	887.06
404.51	833.23
404.70	910.47
404.89	917.49
405.09	903.45
405.28	994.73
405.47	915.15
405.66	1004.09
405.85	957.28
406.05	1015.79
406.24	943.24
406.43	1001.75
406.62	966.64
406.81	1046.22
407.00	1057.92
407.20	1095.37
407.39	1043.88
407.58	1179.63
407.77	1181.97
407.96	1090.69
408.15	1034.52
408.34	1086.01
408.54	1097.71
408.73	1151.54
408.92	1083.67
409.11	1114.10
409.30	1196.01
409.49	1160.91
409.68	1221.76
409.87	1144.52
410.07	1261.55
410.26	1240.48
410.45	1231.12
410.64	1245.16
410.83	1256.87
411.02	1184.31
411.21	1277.93
411.40	1369.21
411.59	1266.23
411.78	1263.89
411.98	1287.29
412.17	1306.02
412.36	1362.19
412.55	1317.72
412.74	1406.66
412.93	1409.00
413.12	1336.45
413.31	1516.67
413.50	1444.11
413.69	1444.11
413.88	1453.47
414.07	1486.24
414.26	1446.45
414.45	1455.81
414.64	1437.09
414.83	1563.48
415.02	1549.43
415.22	1629.01
415.41	1549.43
415.60	1474.54
415.79	1598.59
415.98	1645.40
416.17	1650.08
416.36	1640.72
416.55	1762.42
416.74	1713.27
416.93	1631.35
417.12	1659.44
417.31	1748.38
417.50	1640.72
417.69	1877.11
417.88	1750.72
418.07	1797.53
418.26	1856.04
418.45	1769.44
418.64	1858.39
418.83	1839.66
419.02	1781.15
419.21	1797.53
419.39	1893.49
419.58	1839.66
419.77	1879.45
419.96	1860.73
420.15	1863.07
420.34	1879.45
420.53	1909.88
420.72	1982.43
420.91	2045.63
421.10	2029.24
421.29	1982.43
421.48	1930.94
421.67	2012.86
421.86	1968.39
422.05	1949.67
422.24	1865.41
422.43	2010.52
422.61	2120.53
422.80	2019.88
422.99	2029.24
423.18	2108.82
423.37	2129.89
423.56	2031.58
423.75	1956.69
423.94	2040.95
424.13	1823.28
424.32	1949.67
424.50	1928.60
424.69	2176.70
424.88	2057.33
425.07	2066.69
425.26	2083.08
425.45	2069.03
425.64	2127.55
425.83	2080.74
426.01	2094.78
426.20	2097.12
426.39	2078.40
426.58	2186.06
426.77	2026.90
426.96	2188.40
427.15	2162.66
427.33	2244.57
427.52	2108.82
427.71	2169.68
427.90	2136.91
428.09	2209.47
428.28	2291.38
428.46	2211.81
428.65	2235.21
428.84	2300.75
429.03	2225.85
429.22	2207.13
429.40	2258.62
429.59	2438.84
429.78	2225.85
429.97	2279.68
430.16	2373.30
430.34	2431.82
430.53	2347.56
430.72	2359.26
430.91	2298.41
431.10	2296.07
431.28	2448.20
431.47	2401.39
431.66	2473.95
431.85	2429.48
432.03	2478.63
432.22	2509.05
432.41	2480.97
432.60	2567.57
432.79	2518.42
432.97	2462.24
433.16	2579.27
433.35	2560.55
433.54	2581.61
433.72	2670.55
433.91	2502.03
434.10	2471.61
434.28	2539.48
434.47	2576.93
434.66	2651.83
434.85	2621.40
435.03	2658.85
435.22	2686.94
435.41	2780.56
435.59	2698.64
435.78	2679.91
435.97	2750.13
436.16	2649.49
436.34	2731.41
436.53	2829.71
436.72	2839.07
436.90	2747.79
437.09	2813.32
437.28	2609.70
437.46	2836.73
437.65	2663.53
437.84	2801.62
438.02	2860.13
438.21	2810.98
438.40	2768.85
438.58	2878.86
438.77	2928.01
438.96	2888.22
439.14	2899.92
439.33	2986.52
439.52	3148.02
439.70	3042.70
439.89	3023.97
440.08	2892.90
440.26	3084.83
440.45	3045.04
440.63	3084.83
440.82	3150.36
441.01	3187.81
441.19	3185.47
441.38	3379.73
441.57	3206.53
441.75	3213.56
441.94	3239.30
442.12	3272.07
442.31	3337.60
442.50	3255.69
442.68	3314.20
442.87	3239.30
443.05	3363.35
443.24	3496.76
443.43	3452.29
443.61	3459.31
443.80	3662.94
443.98	3463.99
444.17	3361.01
444.35	3524.85
444.54	3557.61
444.73	3487.40
444.91	3440.59
445.10	3403.14
445.28	3599.74
445.47	3414.84
445.65	3391.44
445.84	3604.42
446.02	3602.08
446.21	3599.74
446.39	3396.12
446.58	3503.78
446.77	3506.12
446.95	3494.42
447.14	3548.25
447.32	3623.15
447.51	3559.95
447.69	3492.08
447.88	3562.30
448.06	3576.34
448.25	3721.45
448.43	3585.70
448.62	3623.15
448.80	3634.85
448.99	3623.15
449.17	3613.79
449.36	3597.40
449.54	3721.45
449.73	3789.33
449.91	3735.50
450.10	3597.40
450.28	3693.37
450.46	3749.54
450.65	3770.60
450.83	3700.39
451.02	3808.05
451.20	3941.46
451.39	3866.56
451.57	3798.69
451.76	3812.73
451.94	3852.52
452.13	3861.88
452.31	3922.74
452.49	3894.65
452.68	4035.08
452.86	3946.14
453.05	4021.04
453.23	4102.96
453.42	3962.53
453.60	3920.40
453.78	3927.42
453.97	4032.74
454.15	4002.32
454.34	4049.13
454.52	4194.24
454.70	4156.79
454.89	4133.39
455.07	4091.26
455.26	4180.20
455.44	4299.56
455.62	4304.25
455.81	4114.66
455.99	4250.41
456.17	4250.41
456.36	4166.15
456.54	4339.35
456.73	4222.33
456.91	4346.37
457.09	4339.35
457.28	4393.19
457.46	4407.23
457.64	4386.16
457.83	4505.53
458.01	4411.91
458.19	4512.55
458.38	4486.81
458.56	4496.17
458.74	4461.06
458.93	4489.15
459.11	4561.70
459.29	4552.34
459.48	4587.45
459.66	4404.89
459.84	4568.73
460.03	4674.05
460.21	4650.64
460.39	4685.75
460.57	4599.15
460.76	4662.35
460.94	4734.90
461.12	4723.20
461.31	4676.39
461.49	4678.73
461.67	4760.65
461.85	5043.85
462.04	4772.35
462.22	5048.54
462.40	4873.00
462.59	5001.72
462.77	4791.08
462.95	5055.56
463.13	4919.81
463.32	4695.11
463.50	5036.83
463.68	5022.79
463.86	4936.19
464.05	4833.21
464.23	4933.85
464.41	5128.11
464.59	4910.44
464.78	5025.13
464.96	5116.41
465.14	4992.36
465.32	4975.98
465.50	5093.01
465.69	5270.89
465.87	4933.85
466.05	5132.79
466.23	5139.82
466.41	5097.69
466.60	5219.39
466.78	5137.48
466.96	5149.18
467.14	5144.50
467.32	5245.14
467.51	5210.03
467.69	4987.68
467.87	5369.19
468.05	5301.31
468.23	5217.05
468.41	5336.42
468.60	5287.27
468.78	5317.70
468.96	5284.93
469.14	5343.44
469.32	5540.05
469.50	5385.57
469.69	5462.81
469.87	5338.76
470.05	5579.84
470.23	5481.53
470.41	5467.49
470.59	5514.30
470.77	5654.73
470.95	5717.93
471.14	5692.18
471.32	5596.22
471.50	5715.59
471.68	5638.35
471.86	5870.06
472.04	5738.99
472.22	5804.53
472.40	5729.63
472.58	5846.66
472.77	5734.31
472.95	5846.66
473.13	6106.46
473.31	5959.00
473.49	5930.92
473.67	5951.98
473.85	6069.01
474.03	6193.06
474.21	5961.34
474.39	6003.47
474.57	6153.27
474.75	6031.56
474.93	6431.79
475.12	6274.98
475.30	6333.49
475.48	6354.55
475.66	6253.91
475.84	6387.32
476.02	6443.49
476.20	6525.41
476.38	6532.44
476.56	6869.47
476.74	6773.51
476.92	6710.32
477.10	6815.64
477.28	6841.39
477.46	6729.04
477.64	6855.43
477.82	6951.39
478.00	7136.29
478.18	7037.99
478.36	7094.16
478.54	7124.59
478.72	7124.59
478.90	7283.75
479.08	7520.14
479.26	7442.90
479.44	7599.72
479.62	7438.22
479.80	7581.00
479.98	7508.44
480.16	7742.49
480.34	7578.65
480.52	7669.94
480.70	7768.24
480.88	7669.94
481.06	7693.34
481.24	7756.54
481.41	7967.18
481.59	7997.61
481.77	8173.15
481.95	8032.72
482.13	8201.24
482.31	8140.38
482.49	8407.20
482.67	8552.32
482.85	8463.38
483.03	8681.05
483.21	8762.97
483.39	8882.33
483.57	8758.28
483.74	8812.12
483.92	8744.24
484.10	8823.82
484.28	9060.21
484.46	9142.13
484.64	9348.10
484.82	9245.12
485.00	9294.27
485.18	9430.02
485.35	9607.90
485.53	9530.66
485.71	9474.49
485.89	9750.67
486.07	9776.42
486.25	9771.74
486.43	10017.49
486.61	10080.69
486.78	10146.22
486.96	10338.15
487.14	10171.97
487.32	10244.52
487.50	10277.29
487.68	10436.45
487.85	10555.82
488.03	10656.46
488.21	10998.18
488.39	10934.98
488.57	10771.15
488.75	10890.51
488.92	11117.54
489.10	11044.99
489.28	11133.93
489.46	11276.70
489.64	11133.93
489.81	11585.65
489.99	11590.33
490.17	11492.03
490.35	11889.92
490.53	11398.41
490.70	11948.43
490.88	11765.87
491.06	12161.42
491.24	12119.29
491.41	12264.41
491.59	12325.26
491.77	12318.24
491.95	12491.44
492.13	12451.65
492.30	12519.53
492.48	12638.89
492.66	12650.60
492.84	12542.93
493.01	12812.09
493.19	12751.24
493.37	12898.69
493.54	13067.21
493.72	13076.57
493.90	13029.76
494.08	13305.95
494.25	13427.65
494.43	13448.72
494.61	13664.05
494.79	13703.84
494.96	13624.26
495.14	13804.48
495.32	14143.86
495.49	13788.10
495.67	13984.70
495.85	14066.62
496.02	14111.09
496.20	14197.69
496.38	14310.04
496.55	14324.08
496.73	14490.26
496.91	14618.99
497.09	14642.39
497.26	14820.27
497.44	14698.56
497.62	14780.48
497.79	14724.31
497.97	14710.27
498.14	15110.50
498.32	15040.28
498.50	15089.43
498.67	15382.00
498.85	15201.78
499.03	15489.67
499.20	15304.76
499.38	15578.61
499.56	15407.75
499.73	15726.06
499.91	15623.08
500.08	15758.83
500.26	15747.12
500.44	15662.86
500.61	15723.72
500.79	15978.84
500.97	15950.75
501.14	16042.03
501.32	16187.14
501.49	16266.72
501.67	16360.34
501.84	16355.66
502.02	16194.17
502.20	16608.44
502.37	16519.50
502.55	16304.17
502.72	16624.83
502.90	16720.79
503.07	16786.32
503.25	16587.38
503.43	16645.89
503.60	16915.05
503.78	16837.81
503.95	17081.23
504.13	17109.32
504.30	17062.51
504.48	16870.58
504.65	17245.07
504.83	17123.36
505.01	17490.82
505.18	17338.69
505.36	17493.16
505.53	17488.48
505.71	17757.64
505.88	17469.76
506.06	17303.58
506.23	17720.20
506.41	17987.02
506.58	17987.02
506.76	17851.27
506.93	17713.17
507.11	17743.60
507.28	18036.17
507.46	18019.78
507.63	18188.30
507.81	18214.05
507.98	18298.31
508.16	18401.29
508.33	18225.75
508.50	18415.34
508.68	18314.69
508.85	18438.74
509.03	18473.85
509.20	18558.11
509.38	18728.97
509.55	18904.51
509.73	18822.59
509.90	18944.30
510.08	18925.57
510.25	18754.71
510.42	19035.58
510.60	19119.84
510.77	19283.67
510.95	19180.69
511.12	18991.11
511.30	19131.54
511.47	19452.19
511.64	19426.45
511.82	19396.02
511.99	19538.79
512.17	19758.80
512.34	19442.83
512.51	19786.89
512.69	19896.89
512.86	19433.47
513.04	19733.06
513.21	19934.34
513.38	19936.68
513.56	20114.56
513.73	20243.29
513.90	20013.92
514.08	20074.77
514.25	20362.66
514.43	20276.06
514.60	20372.02
514.77	20107.54
514.95	20425.86
515.12	20292.44
515.29	20549.90
515.47	20332.23
515.64	20622.46
515.81	20449.26
515.99	20795.66
516.16	20453.94
516.33	21018.01
516.51	20957.16
516.68	20482.03
516.85	20762.89
517.03	20840.13
517.20	21010.99
517.37	21043.76
517.54	21090.57
517.72	21240.36
517.89	20861.19
518.06	21282.49
518.24	21097.59
518.41	20961.84
518.58	21039.08
518.75	21167.80
518.93	21378.45
519.10	21333.98
519.27	21422.92
519.45	21132.70
519.62	21626.55
519.79	21654.64
519.96	21596.12
520.14	22104.02
520.31	22073.59
520.48	21788.05
520.65	21682.72
520.83	22059.55
521.00	21935.50
521.17	21579.74
521.34	21947.20
521.52	21827.84
521.69	22129.77
521.86	22033.80
522.03	22389.56
522.20	22160.19
522.38	22478.50
522.55	22419.99
522.72	22733.62
522.89	22965.34
523.07	22860.01
523.24	22658.73
523.41	22869.37
523.58	22181.26
523.75	22787.46
523.92	22658.73
524.10	22731.28
524.27	22593.19
524.44	23054.28
524.61	23068.32
524.78	22981.72
524.96	23077.68
525.13	23290.67
525.30	23105.77
525.47	23325.78
525.64	22829.59
525.81	23360.89
525.98	23349.18
526.16	23201.73
526.33	23508.34
526.50	23283.65
526.67	23206.41
526.84	23426.42
527.01	23674.52
527.18	23782.18
527.36	23377.27
527.53	23367.91
527.70	24107.52
527.87	23847.72
528.04	23770.48
528.21	23620.69
528.38	23831.33
528.55	23800.91
528.72	23747.08
528.89	24046.66
529.07	24201.14
529.24	24166.03
529.41	24474.98
529.58	24280.72
529.75	24470.30
529.92	23957.72
530.09	24140.29
530.26	24177.73
530.43	24070.07
530.60	24100.50
530.77	24531.15
530.94	24517.11
531.11	24528.81
531.28	24182.42
531.46	24224.54
531.63	24517.11
531.80	24694.99
531.97	24910.32
532.14	24690.31
532.31	24362.64
532.48	24402.43
532.65	24966.49
532.82	24374.34
532.99	24865.85
533.16	24561.58
533.33	25172.46
533.50	25212.25
533.67	24809.68
533.84	25127.99
534.01	24912.66
534.18	25043.73
534.35	24924.36
534.52	25422.90
534.69	25490.77
534.86	25450.99
535.03	25146.72
535.20	25160.76
535.37	25348.00
535.54	25254.38
535.71	25163.10
535.88	25106.93
536.05	25535.24
536.22	25675.68
536.38	25635.89
536.55	25493.12
536.72	25607.80
536.89	25373.75
537.06	25759.94
537.23	25876.96
537.40	25715.47
537.57	25823.13
537.74	25923.77
537.91	26169.53
538.08	25947.18
538.25	25933.14
538.42	26050.16
538.59	26122.72
538.75	25968.24
538.92	25617.16
539.09	26066.55
539.26	26001.01
539.43	26094.63
539.60	25947.18
539.77	26096.97
539.94	25977.61
540.11	26019.74
540.28	26300.60
540.44	26398.90
540.61	26206.98
540.78	26300.60
540.95	26015.05
541.12	26611.89
541.29	26342.73
541.46	26403.58
541.62	26529.97
541.79	26628.27
541.96	26548.70
542.13	26527.63
542.30	26455.08
542.47	26789.77
542.63	26677.43
542.80	27257.88
542.97	26796.79
543.14	27171.28
543.31	27091.70
543.48	26834.24
543.64	27119.79
543.81	27037.87
543.98	27424.06
544.15	27145.53
544.32	27222.77
544.48	27655.77
544.65	27211.07
544.82	27161.92
544.99	26850.63
545.16	27056.59
545.32	27232.13
545.49	27365.54
545.66	27714.28
545.83	27412.35
546.00	27470.87
546.16	27627.68
546.33	27346.82
546.50	27243.84
546.67	27461.51
546.83	27281.28
547.00	27592.58
547.17	27410.01
547.34	27648.75
547.50	28018.55
547.67	27845.35
547.84	27960.04
548.00	27859.40
548.17	27960.04
548.34	28060.68
548.51	28006.85
548.67	28273.67
548.84	28128.56
549.01	27899.19
549.18	28074.73
549.34	28034.94
549.51	28044.30
549.68	28058.34
549.84	27927.27
550.01	28081.75
550.18	28039.62
550.34	27878.12
550.51	28425.81
550.68	28627.09
550.84	27922.59
551.01	28458.57
551.18	28004.51
551.34	28297.08
551.51	28388.36
551.68	28226.86
551.84	28163.67
552.01	28229.20
552.18	28474.96
552.34	28137.92
552.51	28973.49
552.68	28341.55
552.84	28690.29
553.01	28563.90
553.18	28355.59
553.34	28856.46
553.51	28505.38
553.67	28577.94
553.84	28814.34
554.01	28957.11
554.17	28547.51
554.34	28587.30
554.51	28701.99
554.67	29109.24
554.84	28364.95
555.00	28870.51
555.17	28886.89
555.33	29069.45
555.50	28652.84
555.67	28524.11
555.83	29020.30
556.00	29142.01
556.16	29244.99
556.33	28950.09
556.50	29102.22
556.66	29221.59
556.83	28793.27
556.99	29376.06
557.16	29092.86
557.32	29378.40
557.49	29256.70
557.65	29006.26
557.82	29392.45
557.98	29364.36
558.15	29387.77
558.32	29319.89
558.48	29151.37
558.65	29418.19
558.81	29572.67
558.98	29301.17
559.14	29041.37
559.31	29345.64
559.47	29252.02
559.64	29530.54
559.80	29462.66
559.97	29507.13
560.13	29579.69
560.30	29399.47
560.46	29677.99
560.63	29652.25
560.79	29504.79
560.96	29577.35
561.12	29357.34
561.29	29560.97
561.45	29617.14
561.61	29820.77
561.78	29614.80
561.94	29642.88
562.11	30019.71
562.27	29811.40
562.44	29874.60
562.60	29940.13
562.77	29469.69
562.93	29717.78
563.10	29907.37
563.26	29696.72
563.42	30157.80
563.59	29582.03
563.75	29521.18
563.92	29827.79
564.08	29600.76
564.24	29673.31
564.41	29720.12
564.57	29888.64
564.74	29635.86
564.90	30087.59
565.07	30024.39
565.23	29731.83
565.39	30342.70
565.56	30277.17
565.72	29830.13
565.88	30443.35
566.05	29984.60
566.21	29827.79
566.38	29663.95
566.54	30204.61
566.70	29862.90
566.87	30199.93
567.03	30160.14
567.19	30258.45
567.36	30178.87
567.52	30380.15
567.68	30326.32
567.85	29993.97
568.01	30181.21
568.17	30075.88
568.34	30188.23
568.50	30199.93
568.66	30192.91
568.83	30281.85
568.99	30110.99
569.15	29839.49
569.32	30066.52
569.48	29645.23
569.64	30146.10
569.81	30113.33
569.97	30326.32
570.13	30089.93
570.30	30312.28
570.46	30419.94
570.62	30075.88
570.78	30017.37
570.95	30244.40
571.11	30169.51
571.27	29834.81
571.43	29958.86
571.60	30665.70
571.76	30621.23
571.92	30195.25
572.09	30352.07
572.25	30471.43
572.41	30661.02
572.57	30352.07
572.74	30646.97
572.90	30361.43
573.06	30504.20
573.22	30595.48
573.38	30347.39
573.55	30155.46
573.71	30815.49
573.87	30625.91
574.03	30621.23
574.20	30384.83
574.36	30478.46
574.52	30466.75
574.68	30761.66
574.84	30815.49
575.01	30632.93
575.17	30546.33
575.33	30183.55
575.49	30078.22
575.65	30813.15
575.82	30862.30
575.98	30597.82
576.14	30656.34
576.30	30623.57
576.46	30480.80
576.62	30331.00
576.79	30920.82
576.95	30497.18
577.11	30838.90
577.27	30604.84
577.43	30944.22
577.59	30771.02
577.75	30958.27
577.92	30246.74
578.08	30382.49
578.24	30672.72
578.40	30410.58
578.56	30836.56
578.72	30635.27
578.88	30845.92
579.04	31009.76
579.21	30658.68
579.37	30658.68
579.53	30707.83
579.69	30572.08
579.85	30586.12
580.01	30382.49
580.17	30178.87
580.33	30768.68
580.49	30352.07
580.65	31035.50
580.82	30831.88
580.98	30768.68
581.14	30754.64
581.30	31061.25
581.46	31005.08
581.62	30764.00
581.78	30665.70
581.94	31243.81
582.10	30679.74
582.26	30785.07
582.42	30958.27
582.58	30897.41
582.74	30352.07
582.90	30677.40
583.06	30764.00
583.22	30691.44
583.38	30934.86
583.54	30904.43
583.70	30611.87
583.86	30572.08
584.02	30771.02
584.18	31140.83
584.34	30824.86
584.50	31063.59
584.66	30998.06
584.82	30691.44
584.98	31007.42
585.14	30913.80
585.30	30508.88
585.46	30923.16
585.62	30433.99
585.78	31054.23
585.94	30569.74
586.10	31222.75
586.26	30572.08
586.42	30998.06
586.58	30951.24
586.74	31098.70
586.90	30700.81
587.06	30927.84
587.22	30948.90
587.38	30881.03
587.54	31243.81
587.70	31229.77
587.86	30859.96
588.02	31173.60
588.18	31194.66
588.34	30948.90
588.49	31374.88
588.65	31016.78
588.81	30944.22
588.97	31103.38
589.13	30862.30
589.29	30735.92
589.45	31054.23
589.61	31124.44
589.77	31637.02
589.93	31435.74
590.08	30995.71
590.24	31587.87
590.40	30951.24
590.56	31204.02
590.72	30815.49
590.88	31407.65
591.04	30785.07
591.20	31260.20
591.35	31522.34
591.51	31676.81
591.67	31658.09
591.83	31730.64
591.99	31042.53
592.15	31477.86
592.31	31388.92
592.46	31117.42
592.62	30932.52
592.78	31047.21
592.94	31110.40
593.10	31150.19
593.26	31269.56
593.41	31101.04
593.57	31122.10
593.73	31110.40
593.89	31325.73
594.05	31365.52
594.20	30794.43
594.36	31253.17
594.52	31171.25
594.68	31318.71
594.84	31096.36
594.99	31356.16
595.15	31180.62
595.31	31531.70
595.47	31548.08
595.62	31576.17
595.78	31215.72
595.94	31079.97
596.10	31122.10
596.25	31318.71
596.41	31115.08
596.57	31314.03
596.73	31330.41
596.88	31402.97
597.04	31438.08
597.20	31604.25
597.36	31498.93
597.51	31262.54
597.67	31271.90
597.83	31426.37
597.99	31466.16
598.14	31709.58
598.30	31449.78
598.46	31335.09
598.61	31964.70
598.77	31204.02
598.93	31147.85
599.09	31269.56
599.24	31917.89
599.40	31747.03
599.56	31765.75
599.71	31466.16
599.87	31559.78
600.03	31536.38
600.18	31225.09
600.34	31417.01
600.50	31442.76
600.65	31618.30
600.81	31358.50
600.97	31662.77
601.12	31798.52
601.28	31711.92
601.44	31756.39
601.59	31850.01
601.75	31744.69
601.91	31538.72
602.06	31281.26
602.22	31433.39
602.37	31290.62
602.53	31220.41
602.69	31435.74
602.84	31480.21
603.00	31892.14
603.16	31405.31
603.31	31468.50
603.47	31634.68
603.62	31194.66
603.78	31543.40
603.94	31257.85
604.09	31101.04
604.25	31686.17
604.40	31510.63
604.56	31197.00
604.71	31845.33
604.87	31288.28
605.03	31627.66
605.18	31431.05
605.34	31662.77
605.49	31311.69
605.65	31370.20
605.80	31150.19
605.96	31047.21
606.12	31058.91
606.27	31622.98
606.43	31171.25
606.58	31622.98
606.74	31548.08
606.89	31321.05
607.05	31559.78
607.20	31335.09
607.36	31482.55
607.51	31718.94
607.67	31250.83
607.82	31285.94
607.98	31339.77
608.13	31417.01
608.29	31232.11
608.44	31290.62
608.60	31110.40
608.75	31463.82
608.91	31494.25
609.06	30976.99
609.22	31199.34
609.37	30941.88
609.53	31164.23
609.68	30885.71
609.84	30808.47
609.99	31321.05
610.15	30785.07
610.30	31328.07
610.46	31079.97
610.61	31620.64
610.76	31431.05
610.92	31173.60
611.07	31391.26
611.23	30728.89
611.38	31108.06
611.54	30845.92
611.69	31077.63
611.84	30923.16
612.00	30766.34
612.15	30862.30
612.31	31161.89
612.46	30965.29
612.62	31601.91
612.77	31047.21
612.92	31360.84
613.08	31072.95
613.23	30976.99
613.39	30600.16
613.54	30567.40
613.69	30925.50
613.85	30710.17
614.00	31129.12
614.15	30925.50
614.31	31101.04
614.46	30724.21
614.62	30991.03
614.77	31028.48
614.92	31033.16
615.08	30960.61
615.23	30780.39
615.38	31143.17
615.54	30361.43
615.69	31005.08
615.84	30433.99
616.00	30984.01
616.15	30672.72
616.30	30529.95
616.46	30668.04
616.61	30855.28
616.76	30934.86
616.92	30946.56
617.07	30707.83
617.22	30579.10
617.37	30483.14
617.53	30637.61
617.68	30574.42
617.83	30459.73
617.99	30649.32
618.14	30391.86
618.29	30766.34
618.45	30450.37
618.60	30969.97
618.75	30728.89
618.90	30335.68
619.06	30740.60
619.21	30457.39
619.36	30473.78
619.51	30143.76
619.67	30305.26
619.82	29991.62
619.97	30476.12
620.12	30340.36
620.28	30249.08
620.43	30473.78
620.58	30384.83
620.73	30625.91
620.89	30871.67
621.04	30651.66
621.19	30316.96
621.34	30483.14
621.49	30139.08
621.65	30132.06
621.80	29844.17
621.95	30033.75
622.10	29804.38
622.25	29792.68
622.41	29942.47
622.56	30162.48
622.71	30181.21
622.86	30101.63
623.01	29869.92
623.16	30101.63
623.32	29956.52
623.47	29895.66
623.62	30132.06
623.77	29727.14
623.92	29745.87
624.07	30125.04
624.23	29589.05
624.38	30225.68
624.53	29909.71
624.68	30335.68
624.83	29764.59
624.98	30094.61
625.13	29919.07
625.29	30190.57
625.44	29991.62
625.59	29406.49
625.74	29376.06
625.89	29673.31
626.04	29443.94
626.19	29483.73
626.34	29441.60
626.49	29715.44
626.65	29436.92
626.80	29703.74
626.95	29841.83
627.10	29879.28
627.25	29804.38
627.40	29249.67
627.55	29666.29
627.70	29436.92
627.85	29153.71
628.00	29322.23
628.15	29720.12
628.30	29359.68
628.45	29352.66
628.60	29235.63
628.76	29640.54
628.91	29488.41
629.06	29427.56
629.21	29266.06
629.36	29469.69
629.51	29319.89
629.66	29254.36
629.81	28959.45
629.96	28938.38
630.11	29097.54
630.26	29184.14
630.41	29034.35
630.56	28896.25
630.71	29457.98
630.86	29226.27
631.01	29476.71
631.16	28996.90
631.31	28933.70
631.46	28917.32
631.61	28858.81
631.76	29095.20
631.91	28896.25
632.06	29083.50
632.21	28734.76
632.36	29092.86
632.51	29149.03
632.66	28954.77
632.81	28730.08
632.96	29071.79
633.10	28840.08
633.25	28769.86
633.40	28587.30
633.55	28732.42
633.70	28596.67
633.85	28793.27
634.00	28744.12
634.15	28842.42
634.30	28397.72
634.45	28329.84
634.60	28222.18
634.75	28395.38
634.90	28678.58
635.05	29113.92
635.19	28491.34
635.34	28622.41
635.49	28793.27
635.64	28460.91
635.79	28751.14
635.94	28552.20
636.09	28210.48
636.24	28371.97
636.39	28484.32
636.53	28245.58
636.68	28259.63
636.83	28484.32
636.98	28315.80
637.13	28287.71
637.28	28608.37
637.43	28423.47
637.57	28156.64
637.72	28149.62
637.87	28126.22
638.02	28154.30
638.17	28266.65
638.32	28299.42
638.46	28154.30
638.61	28182.39
638.76	27735.35
638.91	27873.44
639.06	28081.75
639.20	28245.58
639.35	28418.78
639.50	28250.27
639.65	28222.18
639.80	28285.37
639.94	28191.75
640.09	27777.48
640.24	28243.24
640.39	28027.92
640.54	27676.83
640.68	27653.43
640.83	27850.03
640.98	27938.97
641.13	27800.88
641.27	28088.77
641.42	28065.36
641.57	28013.87
641.72	28074.73
641.86	27580.87
642.01	27639.39
642.16	27903.87
642.31	27606.62
642.45	27697.90
642.60	27789.18
642.75	27131.49
642.90	27810.25
643.04	27695.56
643.19	27538.74
643.34	27583.21
643.48	27716.62
643.63	27817.27
643.78	27641.73
643.93	27440.44
644.07	27793.86
644.22	27644.07
644.37	27421.72
644.51	27700.24
644.66	27353.84
644.81	27580.87
644.95	27229.79
645.10	27236.81
645.25	27351.50
645.39	27709.60
645.54	27138.51
645.69	27302.35
645.83	27487.25
645.98	27391.29
646.13	27351.50
646.27	27325.75
646.42	27417.04
646.57	27295.33
646.71	27442.78
646.86	27309.37
647.00	26920.84
647.15	27473.21
647.30	27241.50
647.44	26911.48
647.59	27321.07
647.74	27065.96
647.88	27080.00
648.03	27178.30
648.17	27463.85
648.32	27236.81
648.47	27222.77
648.61	27204.05
648.76	27421.72
648.90	26991.06
649.05	27035.53
649.20	27218.09
649.34	27075.32
649.49	26897.44
649.63	27063.61
649.78	26864.67
649.92	27019.14
650.07	27023.83
650.21	27033.19
650.36	26820.20
650.51	26698.49
650.65	26434.01
650.80	26431.67
650.94	26906.80
651.09	26951.27
651.23	26672.74
651.38	26539.33
651.52	26614.23
651.67	26604.87
651.81	26436.35
651.96	26518.27
652.10	26373.16
652.25	26551.04
652.39	26738.28
652.54	26742.96
652.68	26897.44
652.83	26541.68
652.97	26930.20
653.12	26576.78
653.26	26412.95
653.41	26948.93
653.55	26518.27
653.70	26370.82
653.84	26403.58
653.99	26677.43
654.13	26340.39
654.27	26258.47
654.42	26740.62
654.56	26230.38
654.71	26375.50
654.85	26450.39
655.00	26752.32
655.14	26333.37
655.29	26424.65
655.43	26258.47
655.57	26384.86
655.72	25745.89
655.86	26223.36
656.01	26679.77
656.15	25947.18
656.30	26256.13
656.44	26033.78
656.58	26122.72
656.73	26279.54
656.87	25734.19
657.01	26305.28
657.16	26199.96
657.30	26157.83
657.45	25879.30
657.59	26066.55
657.73	25895.69
657.88	25947.18
658.02	25832.49
658.16	25935.48
658.31	25685.04
658.45	25764.62
658.60	25460.35
658.74	25560.99
658.88	25666.31
659.03	25556.31
659.17	25631.21
659.31	25968.24
659.46	25682.70
659.60	25736.53
659.74	25689.72
659.89	25640.57
660.03	25750.57
660.17	25694.40
660.32	25467.37
660.46	25687.38
660.60	25488.43
660.74	25549.29
660.89	24975.86
661.03	25359.70
661.17	25179.48
661.32	25284.81
661.46	25441.62
661.60	25289.49
661.74	25116.29
661.89	25095.22
662.03	25036.71
662.17	25408.86
662.31	25085.86
662.46	25205.23
662.60	25130.33
662.74	24912.66
662.88	25043.73
663.03	24809.68
663.17	24692.65
663.31	24320.51
663.45	24458.60
663.60	24734.78
663.74	25039.05
663.88	24629.46
664.02	24926.71
664.17	25177.14
664.31	24727.76
664.45	24526.47
664.59	24559.24
664.73	24393.06
664.88	24636.48
665.02	24088.79
665.16	24156.67
665.30	24678.61
665.44	24184.76
665.59	24173.05
665.73	24119.22
665.87	24355.61
666.01	24341.57
666.15	24095.82
666.29	24053.69
666.44	24233.91
666.58	23864.10
666.72	24041.98
666.86	24290.08
667.00	24329.87
667.14	23976.45
667.28	23751.76
667.43	23927.30
667.57	23821.97
667.71	23805.59
667.85	23777.50
667.99	23571.54
668.13	23470.89
668.27	23721.33
668.41	23688.56
668.56	23473.23
668.70	23676.86
668.84	23440.47
668.98	23740.05
669.12	23700.26
669.26	23562.17
669.40	23470.89
669.54	23295.35
669.68	23456.85
669.82	23220.45
669.96	22841.29
670.10	23159.60
670.25	23707.29
670.39	23178.33
670.53	23197.05
670.67	23087.04
670.81	23271.95
670.95	23075.34
671.09	23206.41
671.23	23077.68
671.37	23094.07
671.51	23218.11
671.65	22986.40
671.79	22948.95
671.93	22663.41
672.07	22998.10
672.21	22845.97
672.35	22508.93
672.49	22562.76
672.63	22572.13
672.77	22375.52
672.91	22354.46
673.05	22225.73
673.19	22265.52
673.33	22424.67
673.47	22661.07
673.61	22677.45
673.75	22040.82
673.89	22565.10
674.03	21935.50
674.17	22497.23
674.31	22272.54
674.45	22033.80
674.59	22005.72
674.73	21972.95
674.87	21769.32
675.01	21907.41
675.15	21722.51
675.29	21479.10
675.43	21640.59
675.56	21947.20
675.70	21656.98
675.84	21656.98
675.98	20999.29
676.12	21755.28
676.26	21865.28
676.40	21348.03
676.54	21495.48
676.68	21329.30
676.82	20856.51
676.96	21467.39
677.10	21139.72
677.23	20959.50
677.37	21027.37
677.51	20840.13
677.65	21069.50
677.79	20657.57
677.93	20821.41
678.07	20823.75
678.21	20744.17
678.34	20271.38
678.48	20418.83
678.62	20397.77
678.76	20402.45
678.90	20283.08
679.04	20074.77
679.18	20128.61
679.31	19723.69
679.45	19882.85
679.59	19850.08
679.73	19847.74
679.87	19585.60
680.00	19814.98
680.14	19763.48
680.28	19496.66
680.42	19641.78
680.56	19789.23
680.70	19571.56
680.83	19646.46
680.97	19426.45
681.11	19484.96
681.25	19599.65
681.39	19236.86
681.52	19073.03
681.66	19417.08
681.80	18970.04
681.94	19159.63
682.07	19082.39
682.21	18848.33
682.35	18560.45
682.49	18885.78
682.62	18494.91
682.76	18972.38
682.90	18595.56
683.04	18597.90
683.17	18988.77
683.31	18499.59
683.45	18469.17
683.59	18700.88
683.72	18347.46
683.86	18476.19
684.00	18398.95
684.13	18216.39
684.27	18462.15
684.41	18073.62
684.55	17926.16
684.68	17687.43
684.82	17736.58
684.96	17872.33
685.09	17811.48
685.23	17572.74
685.37	17907.44
685.50	17748.28
685.64	17961.27
685.78	17694.45
685.91	17586.79
686.05	17497.84
686.19	17465.08
686.32	17614.87
686.46	17411.25
686.60	17099.95
686.73	17355.07
686.87	16905.69
687.01	17032.08
687.14	17221.66
687.28	16638.87
687.42	16826.11
687.55	16779.30
687.69	16987.61
687.82	16697.38
687.96	16596.74
688.10	16613.12
688.23	16858.88
688.37	16688.02
688.50	16704.40
688.64	16418.86
688.78	16198.85
688.91	16248.00
689.05	16315.87
689.18	16205.87
689.32	15751.81
689.46	16030.33
689.59	15950.75
689.73	16002.24
689.86	16020.97
690.00	15861.81
690.13	15803.30
690.27	15861.81
690.41	15651.16
690.54	15742.44
690.68	15398.38
690.81	15768.19
690.95	15583.29
691.08	15695.63
691.22	15571.58
691.35	15248.59
691.49	15555.20
691.62	15253.27
691.76	15087.09
691.89	15023.90
692.03	14719.63
692.16	14630.69
692.30	14759.42
692.43	14974.75
692.57	14740.69
692.70	14745.38
692.84	14736.01
692.97	14574.52
693.11	14597.92
693.24	14436.42
693.38	14588.56
693.51	14445.79
693.65	14513.66
693.78	14300.67
693.92	14530.05
694.05	14307.69
694.19	14153.22
694.32	14181.31
694.45	14263.22
694.59	13984.70
694.72	13930.87
694.86	13446.38
694.99	13682.77
695.13	13631.28
695.26	13696.82
695.39	13516.59
695.53	13778.73
695.66	13621.92
695.80	13762.35
695.93	13769.37
696.07	13439.36
696.20	13591.49
696.33	13600.85
696.47	13451.06
696.60	13172.54
696.73	13224.03
696.87	13149.13
697.00	13355.10
697.14	13043.81
697.27	12730.17
697.40	12952.52
697.54	12847.20
697.67	12510.16
697.80	12475.06
697.94	12713.79
698.07	12596.76
698.21	12453.99
698.34	12383.77
698.47	12699.75
698.61	12327.60
698.74	12367.39
698.87	12395.48
699.01	12264.41
699.14	12269.09
699.27	12086.53
699.40	12081.85
699.54	12004.61
699.67	11981.20
699.80	12077.16
699.94	11939.07
700.07	12121.63
700.20	11611.40
700.34	11730.76
700.47	11672.25
700.60	11672.25
700.73	11576.29
700.87	11583.31
701.00	11477.99
701.13	11637.14
701.26	11506.07
701.40	11351.60
701.53	11494.37
701.66	11520.12
701.79	10979.45
701.93	11283.72
702.06	11206.48
702.19	11154.99
702.32	11021.58
702.46	11110.52
702.59	10869.45
702.72	11063.71
702.85	10869.45
702.99	10979.45
703.12	10815.62
703.25	10654.12
703.38	10555.82
703.51	10890.51
703.65	10626.03
703.78	10506.66
703.91	10527.73
704.04	10698.59
704.17	10633.05
704.31	10513.69
704.44	10473.90
704.57	10253.89
704.70	10207.08
704.83	10057.28
704.96	9987.07
705.10	10150.90
705.23	10047.92
>>>>>End Processed Spectral Data<<<<<
