SpectraSuite Data File
++++++++++++++++++++++++++++++++++++
Date: Fri Oct 18 13:58:08 GMT-05:00 2013
User: bianchi
Dark Spectrum Present: No
Reference Spectrum Present: No
Number of Sampled Component Spectra: 1
Spectrometers: USB2+H05261
Integration Time (usec): 50000 (USB2+H05261)
Spectra Averaged: 1 (USB2+H05261)
Boxcar Smoothing: 0 (USB2+H05261)
Correct for Electrical Dark: No (USB2+H05261)
Strobe/Lamp Enabled: No (USB2+H05261)
Correct for Detector Non-linearity: No (USB2+H05261)
Correct for Stray Light: No (USB2+H05261)
Number of Pixels in Processed Spectrum: 2048
>>>>>Begin Processed Spectral Data<<<<<
365.73	0.00
365.92	0.00
366.12	0.00
366.32	0.00
366.52	0.00
366.72	0.00
366.91	0.00
367.11	0.00
367.31	0.00
367.51	0.00
367.70	0.00
367.90	0.00
368.10	0.00
368.30	0.00
368.49	0.00
368.69	0.00
368.89	0.00
369.09	0.00
369.28	0.00
369.48	0.00
369.68	0.00
369.87	0.00
370.07	0.00
370.27	0.00
370.47	0.00
370.66	67.88
370.86	114.69
371.06	100.64
371.25	105.32
371.45	107.66
371.65	124.05
371.84	133.41
372.04	166.18
372.24	88.94
372.44	156.82
372.63	189.58
372.83	212.99
373.03	205.97
373.22	170.86
373.42	234.05
373.62	208.31
373.81	210.65
374.01	231.71
374.21	299.59
374.40	259.80
374.60	238.73
374.79	252.78
374.99	259.80
375.19	227.03
375.38	306.61
375.58	285.55
375.78	294.91
375.97	243.42
376.17	273.84
376.37	287.89
376.56	290.23
376.76	280.86
376.95	318.31
377.15	318.31
377.35	238.73
377.54	299.59
377.74	276.18
377.93	290.23
378.13	358.10
378.33	278.52
378.52	344.06
378.72	297.25
378.91	257.46
379.11	271.50
379.31	320.65
379.50	290.23
379.70	238.73
379.89	318.31
380.09	362.78
380.28	304.27
380.48	308.95
380.68	299.59
380.87	252.78
381.07	229.37
381.26	325.33
381.46	355.76
381.65	351.08
381.85	327.68
382.04	365.12
382.24	313.63
382.43	292.57
382.63	341.72
382.83	344.06
383.02	383.85
383.22	470.45
383.41	430.66
383.61	416.62
383.80	358.10
384.00	428.32
384.19	393.21
384.39	409.59
384.58	301.93
384.78	397.89
384.97	409.59
385.17	407.25
385.36	379.17
385.56	456.40
385.75	442.36
385.95	386.19
386.14	407.25
386.34	416.62
386.53	437.68
386.72	285.55
386.92	390.87
387.11	470.45
387.31	351.08
387.50	365.12
387.70	397.89
387.89	421.30
388.09	458.74
388.28	400.23
388.48	442.36
388.67	463.43
388.86	358.10
389.06	423.64
389.25	463.43
389.45	535.98
389.64	437.68
389.84	589.82
390.03	543.00
390.22	435.34
390.42	437.68
390.61	533.64
390.81	498.53
391.00	500.87
391.19	587.47
391.39	559.39
391.58	526.62
391.78	493.85
391.97	568.75
392.16	535.98
392.36	561.73
392.55	468.11
392.75	599.18
392.94	465.77
393.13	580.45
393.33	575.77
393.52	461.09
393.71	568.75
393.91	596.84
394.10	657.69
394.29	643.65
394.49	622.58
394.68	566.41
394.88	669.39
395.07	692.80
395.26	681.10
395.46	575.77
395.65	620.24
395.84	559.39
396.04	695.14
396.23	636.63
396.42	638.97
396.62	643.65
396.81	748.97
397.00	671.73
397.19	720.88
397.39	702.16
397.58	641.31
397.77	641.31
397.97	720.88
398.16	692.80
398.35	760.67
398.55	744.29
398.74	718.54
398.93	821.53
399.12	741.95
399.32	695.14
399.51	697.48
399.70	781.74
399.90	720.88
400.09	800.46
400.28	819.19
400.47	835.57
400.67	774.72
400.86	795.78
401.05	873.02
401.24	758.33
401.44	849.61
401.63	929.19
401.82	905.79
402.01	844.93
402.21	732.59
402.40	901.11
402.59	842.59
402.78	854.30
402.97	802.80
403.17	880.04
403.36	861.32
403.55	835.57
403.74	894.08
403.93	901.11
404.13	873.02
404.32	915.15
404.51	976.00
404.70	903.45
404.89	898.77
405.09	973.66
405.28	903.45
405.47	898.77
405.66	884.72
405.85	959.62
406.05	950.26
406.24	940.90
406.43	1076.65
406.62	997.07
406.81	1069.62
407.00	971.32
407.20	952.60
407.39	954.94
407.58	1128.14
407.77	1078.99
407.96	1055.58
408.15	1153.88
408.34	1107.07
408.54	1188.99
408.73	978.34
408.92	1151.54
409.11	1093.03
409.30	1158.57
409.49	1184.31
409.68	1088.35
409.87	1102.39
410.07	1181.97
410.26	1200.69
410.45	1203.04
410.64	1245.16
410.83	1238.14
411.02	1172.61
411.21	1273.25
411.40	1165.59
411.59	1336.45
411.78	1341.13
411.98	1284.95
412.17	1376.24
412.36	1359.85
412.55	1357.51
412.74	1383.26
412.93	1324.74
413.12	1348.15
413.31	1516.67
413.50	1416.02
413.69	1387.94
413.88	1411.34
414.07	1474.54
414.26	1465.18
414.45	1584.54
414.64	1547.09
414.83	1514.33
415.02	1554.12
415.22	1568.16
415.41	1544.75
415.60	1563.48
415.79	1570.50
415.98	1561.14
416.17	1659.44
416.36	1657.10
416.55	1706.25
416.74	1619.65
416.93	1598.59
417.12	1565.82
417.31	1767.10
417.50	1703.91
417.69	1722.63
417.88	1633.69
418.07	1762.42
418.26	1699.23
418.45	1816.26
418.64	1844.34
418.83	1860.73
419.02	1776.47
419.21	1734.34
419.39	1893.49
419.58	1687.53
419.77	1776.47
419.96	1849.02
420.15	1954.35
420.34	1893.49
420.53	1853.70
420.72	1919.24
420.91	1987.11
421.10	1980.09
421.29	1956.69
421.48	1893.49
421.67	2001.16
421.86	1914.56
422.05	1926.26
422.24	2076.06
422.43	1973.07
422.61	2038.61
422.80	2104.14
422.99	2083.08
423.18	2078.40
423.37	2008.18
423.56	1907.54
423.75	2066.69
423.94	1977.75
424.13	1912.22
424.32	1959.03
424.50	2059.67
424.69	2150.95
424.88	2040.95
425.07	2003.50
425.26	1949.67
425.45	2122.87
425.64	2062.01
425.83	2033.93
426.01	2066.69
426.20	2031.58
426.39	2106.48
426.58	2165.00
426.77	2160.31
426.96	2167.34
427.15	2097.12
427.33	2195.42
427.52	2132.23
427.71	2197.76
427.90	2129.89
428.09	2153.29
428.28	2225.85
428.46	2303.09
428.65	2225.85
428.84	2286.70
429.03	2413.09
429.22	2246.91
429.40	2235.21
429.59	2258.62
429.78	2258.62
429.97	2160.31
430.16	2284.36
430.34	2380.32
430.53	2366.28
430.72	2349.90
430.91	2338.20
431.10	2303.09
431.28	2356.92
431.47	2457.56
431.66	2459.90
431.85	2438.84
432.03	2502.03
432.22	2527.78
432.41	2518.42
432.60	2469.27
432.79	2427.14
432.97	2497.35
433.16	2537.14
433.35	2483.31
433.54	2478.63
433.72	2523.10
433.91	2518.42
434.10	2621.40
434.28	2628.42
434.47	2406.07
434.66	2630.76
434.85	2684.59
435.03	2621.40
435.22	2576.93
435.41	2703.32
435.59	2693.96
435.78	2569.91
435.97	2689.28
436.16	2677.57
436.34	2738.43
436.53	2698.64
436.72	2792.26
436.90	2719.70
437.09	2712.68
437.28	2677.57
437.46	2867.16
437.65	2710.34
437.84	2810.98
438.02	2885.88
438.21	2792.26
438.40	2890.56
438.58	2876.52
438.77	3007.59
438.96	2778.22
439.14	2932.69
439.33	2913.97
439.52	2953.76
439.70	3026.31
439.89	2977.16
440.08	2920.99
440.26	3080.14
440.45	2986.52
440.63	3052.06
440.82	3126.96
441.01	3126.96
441.19	3150.36
441.38	3398.46
441.57	3248.66
441.75	3267.39
441.94	3262.71
442.12	3274.41
442.31	3407.82
442.50	3288.45
442.68	3382.07
442.87	3309.52
443.05	3358.67
443.24	3461.65
443.43	3372.71
443.61	3398.46
443.80	3496.76
443.98	3382.07
444.17	3365.69
444.35	3456.97
444.54	3644.21
444.73	3616.13
444.91	3433.57
445.10	3534.21
445.28	3590.38
445.47	3463.99
445.65	3536.55
445.84	3602.08
446.02	3520.17
446.21	3524.85
446.39	3583.36
446.58	3499.10
446.77	3632.51
446.95	3534.21
447.14	3524.85
447.32	3632.51
447.51	3555.27
447.69	3426.54
447.88	3698.05
448.06	3597.40
448.25	3501.44
448.43	3604.42
448.62	3466.33
448.80	3714.43
448.99	3700.39
449.17	3527.19
449.36	3590.38
449.54	3616.13
449.73	3829.12
449.91	3676.98
450.10	3702.73
450.28	3782.31
450.46	3749.54
450.65	3779.97
450.83	3801.03
451.02	3826.78
451.20	3857.20
451.39	3833.80
451.57	3831.46
451.76	3805.71
451.94	3899.33
452.13	3859.54
452.31	4035.08
452.49	3976.57
452.68	3953.16
452.86	3934.44
453.05	3997.64
453.23	3932.10
453.42	3978.91
453.60	3815.07
453.78	3974.23
453.97	3943.80
454.15	3943.80
454.34	3768.26
454.52	4093.60
454.70	4070.19
454.89	4168.49
455.07	4128.70
455.26	4248.07
455.44	4222.33
455.62	4074.87
455.81	4131.05
455.99	4175.52
456.17	4208.28
456.36	4142.75
456.54	4287.86
456.73	4231.69
456.91	4198.92
457.09	4379.14
457.28	4463.40
457.46	4432.97
457.64	4383.82
457.83	4468.08
458.01	4327.65
458.19	4395.53
458.38	4423.61
458.56	4594.47
458.74	4507.87
458.93	4348.72
459.11	4545.32
459.29	4634.26
459.48	4617.88
459.66	4561.70
459.84	4540.64
460.03	4739.58
460.21	4458.72
460.39	4641.28
460.57	4660.01
460.76	4685.75
460.94	4713.84
461.12	4662.35
461.31	4709.16
461.49	4667.03
461.67	4699.80
461.85	4786.40
462.04	4954.91
462.22	5006.41
462.40	4917.47
462.59	4821.50
462.77	5004.07
462.95	4770.01
463.13	4849.59
463.32	4840.23
463.50	4777.03
463.68	4877.68
463.86	5067.26
464.05	4793.42
464.23	4889.38
464.41	4912.78
464.59	4821.50
464.78	4931.51
464.96	4978.32
465.14	4912.78
465.32	4968.96
465.50	5083.64
465.69	5165.56
465.87	5008.75
466.05	5083.64
466.23	5085.98
466.41	5193.65
466.60	5366.85
466.78	5139.82
466.96	5114.07
467.14	5135.14
467.32	5268.55
467.51	5224.08
467.69	5004.07
467.87	5329.40
468.05	5247.48
468.23	5282.59
468.41	5343.44
468.60	5369.19
468.78	5343.44
468.96	5303.65
469.14	5350.46
469.32	5296.63
469.50	5401.96
469.69	5437.06
469.87	5551.75
470.05	5472.17
470.23	5397.28
470.41	5425.36
470.59	5551.75
470.77	5514.30
470.95	5537.71
471.14	5673.46
471.32	5575.16
471.50	5680.48
471.68	5579.84
471.86	5783.46
472.04	5769.42
472.22	5884.11
472.40	5764.74
472.58	5771.76
472.77	5774.10
472.95	6008.16
473.13	5977.73
473.31	5694.52
473.49	5895.81
473.67	5947.30
473.85	5994.11
474.03	6134.54
474.21	6092.41
474.39	6080.71
474.57	6080.71
474.75	6221.14
474.93	6317.11
475.12	6218.80
475.30	6296.04
475.48	6129.86
475.66	6253.91
475.84	6448.18
476.02	6452.86
476.20	6633.08
476.38	6502.01
476.56	6705.63
476.74	6698.61
476.92	6679.89
477.10	6621.38
477.28	6913.94
477.46	6684.57
477.64	6715.00
477.82	6906.92
478.00	7061.40
478.18	7115.23
478.36	6986.50
478.54	7204.17
478.72	7269.70
478.90	7204.17
479.08	7246.30
479.26	7243.96
479.44	7431.20
479.62	7454.61
479.80	7632.49
479.98	7751.85
480.16	7566.95
480.34	7522.48
480.52	7768.24
480.70	7646.53
480.88	7768.24
481.06	7873.56
481.24	7878.24
481.41	7913.35
481.59	8035.06
481.77	8173.15
481.95	8056.12
482.13	8365.07
482.31	8259.75
482.49	8439.97
482.67	8479.76
482.85	8484.44
483.03	8594.45
483.21	8634.24
483.39	8847.22
483.57	8760.63
483.74	8690.41
483.92	8929.14
484.10	8819.14
484.28	9125.75
484.46	9348.10
484.64	9334.06
484.82	8973.61
485.00	9238.09
485.18	9472.15
485.35	9589.17
485.53	9317.67
485.71	9577.47
485.89	9722.59
486.07	9717.90
486.25	9755.35
486.43	9802.16
486.61	9991.75
486.78	9966.00
486.96	9919.19
487.14	10202.40
487.32	10246.87
487.50	10171.97
487.68	10265.59
487.85	10384.96
488.03	10595.61
488.21	10752.42
488.39	10537.09
488.57	10904.56
488.75	10923.28
488.92	11105.84
489.10	11007.54
489.28	11164.36
489.46	11260.32
489.64	11187.76
489.81	11403.09
489.99	11332.87
490.17	11681.61
490.35	11646.51
490.53	11817.36
490.70	11875.88
490.88	11868.86
491.06	12009.29
491.24	11967.16
491.41	12194.19
491.59	12100.57
491.77	12063.12
491.95	12241.00
492.13	12477.40
492.30	12226.96
492.48	12320.58
492.66	12395.48
492.84	12641.23
493.01	12971.25
493.19	12959.55
493.37	12695.07
493.54	12961.89
493.72	12868.27
493.90	13090.62
494.08	13172.54
494.25	13383.18
494.43	13420.63
494.61	13350.42
494.79	13558.72
494.96	13495.53
495.14	13603.19
495.32	13619.58
495.49	13994.06
495.67	13640.64
495.85	13954.27
496.02	13951.93
496.20	13994.06
496.38	14185.99
496.55	14244.50
496.73	14787.50
496.91	14387.27
497.09	14534.73
497.26	14516.00
497.44	14717.29
497.62	14635.37
497.79	14911.55
497.97	14799.21
498.14	14974.75
498.32	15264.97
498.50	15070.71
498.67	15379.66
498.85	15016.88
499.03	15520.09
499.20	15283.70
499.38	15325.83
499.56	15665.21
499.73	15304.76
499.91	15707.34
500.08	15763.51
500.26	15339.87
500.44	15669.89
500.61	15421.79
500.79	15655.84
500.97	15871.17
501.14	16140.33
501.32	16035.01
501.49	16084.16
501.67	16240.98
501.84	16093.52
502.02	16243.32
502.20	16255.02
502.37	16449.28
502.55	16718.45
502.72	16493.76
502.90	16315.87
503.07	16451.63
503.25	16517.16
503.43	16449.28
503.60	16798.02
503.78	16666.95
503.95	16575.67
504.13	16657.59
504.30	16699.72
504.48	16968.88
504.65	17076.55
504.83	17348.05
505.01	17640.62
505.18	16987.61
505.36	17277.83
505.53	17200.60
505.71	17317.62
505.88	17486.14
506.06	17383.16
506.23	17518.91
506.41	17874.67
506.58	17628.92
506.76	17806.80
506.93	17853.61
507.11	17579.76
507.28	17823.18
507.46	17774.03
507.63	18050.21
507.81	18139.15
507.98	17991.70
508.16	18024.47
508.33	18204.69
508.50	18221.07
508.68	18111.07
508.85	18644.71
509.03	18593.22
509.20	18607.26
509.38	18778.12
509.55	18733.65
509.73	18728.97
509.90	18508.96
510.08	18298.31
510.25	18724.29
510.42	19009.83
510.60	18902.17
510.77	18768.76
510.95	19241.54
511.12	18977.06
511.30	18878.76
511.47	19241.54
511.64	19349.21
511.82	19424.11
511.99	19309.42
512.17	19391.34
512.34	19527.09
512.51	19271.97
512.69	19566.88
512.86	19463.90
513.04	19534.11
513.21	19763.48
513.38	19765.82
513.56	19960.09
513.73	19875.83
513.90	19779.87
514.08	20152.01
514.25	20198.82
514.43	20173.08
514.60	20175.42
514.77	19871.15
514.95	20168.40
515.12	20367.34
515.29	20208.19
515.47	20224.57
515.64	20416.49
515.81	20137.97
515.99	20746.51
516.16	20449.26
516.33	20734.81
516.51	20870.56
516.68	20638.84
516.85	20210.53
517.03	20688.00
517.20	20870.56
517.37	20638.84
517.54	20879.92
517.72	20819.07
517.89	20950.14
518.06	21043.76
518.24	20936.09
518.41	21064.82
518.58	21186.53
518.75	21350.37
518.93	21151.42
519.10	21202.91
519.27	21266.11
519.45	21261.43
519.62	21303.56
519.79	21310.58
519.96	21341.00
520.14	21872.31
520.31	21680.38
520.48	21813.79
520.65	22125.08
520.83	21390.16
521.00	22024.44
521.17	21556.33
521.34	21839.54
521.52	21788.05
521.69	21961.25
521.86	22157.85
522.03	22113.38
522.20	22368.50
522.38	22132.11
522.55	22099.34
522.72	22068.91
522.89	21884.01
523.07	22520.63
523.24	22553.40
523.41	22469.14
523.58	22583.83
523.75	22750.01
523.92	22274.88
524.10	22618.94
524.27	22501.91
524.44	22703.20
524.61	22686.81
524.78	23077.68
524.96	22845.97
525.13	22916.19
525.30	22609.58
525.47	22668.09
525.64	23061.30
525.81	23058.96
525.98	23037.89
526.16	23068.32
526.33	23250.88
526.50	23365.57
526.67	23183.01
526.84	23337.48
527.01	23260.24
527.18	23094.07
527.36	23463.87
527.53	23431.10
527.70	23623.03
527.87	23716.65
528.04	23339.82
528.21	23915.59
528.38	23625.37
528.55	23826.65
528.72	23620.69
528.89	23620.69
529.07	24018.58
529.24	23913.25
529.41	23950.70
529.58	23864.10
529.75	23608.98
529.92	23768.14
530.09	23887.51
530.26	24133.26
530.43	24123.90
530.60	23988.15
530.77	23995.17
530.94	24170.71
531.11	24297.10
531.28	24346.25
531.46	24496.05
531.63	24383.70
531.80	24060.71
531.97	24451.58
532.14	24503.07
532.31	24367.32
532.48	24685.63
532.65	24514.77
532.82	24346.25
532.99	24699.67
533.16	24697.33
533.33	24973.52
533.50	24933.73
533.67	24975.86
533.84	24877.55
534.01	24915.00
534.18	24458.60
534.35	24723.08
534.52	24755.85
534.69	25364.39
534.86	25092.88
535.03	24498.39
535.20	25268.42
535.37	24917.34
535.54	25216.93
535.71	24936.07
535.88	25146.72
536.05	25549.29
536.22	25453.33
536.38	25799.73
536.55	25371.41
536.72	25823.13
536.89	25462.69
537.06	25483.75
537.23	25483.75
537.40	25359.70
537.57	25479.07
537.74	25397.15
537.91	25757.60
538.08	25788.02
538.25	25640.57
538.42	25450.99
538.59	25933.14
538.75	25472.05
538.92	25895.69
539.09	25923.77
539.26	25802.07
539.43	25898.03
539.60	26099.31
539.77	25930.80
539.94	26054.84
540.11	25958.88
540.28	26319.32
540.44	26061.87
540.61	26019.74
540.78	26101.65
540.95	25951.86
541.12	25811.43
541.29	26305.28
541.46	26295.92
541.62	26408.26
541.79	26202.30
541.96	25919.09
542.13	26157.83
542.30	26576.78
542.47	26677.43
542.63	26515.93
542.80	26717.22
542.97	26799.13
543.14	26558.06
543.31	26958.29
543.48	26735.94
543.64	26974.67
543.81	26941.91
543.98	26946.59
544.15	26913.82
544.32	26869.35
544.48	27166.60
544.65	27072.98
544.82	27110.43
544.99	26909.14
545.16	27089.36
545.32	27241.50
545.49	27136.17
545.66	27541.08
545.83	27108.08
546.00	27590.24
546.16	27143.19
546.33	27049.57
546.50	27005.10
546.67	27278.94
546.83	26897.44
547.00	27503.64
547.17	27393.63
547.34	27967.06
547.50	27358.52
547.67	27948.34
547.84	28044.30
548.00	27702.58
548.17	27751.73
548.34	27740.03
548.51	27693.22
548.67	27688.54
548.84	27683.86
549.01	27583.21
549.18	27852.38
549.34	27861.74
549.51	27803.22
549.68	27857.06
549.84	27613.64
550.01	27981.10
550.18	27655.77
550.34	27850.03
550.51	28135.58
550.68	27924.93
550.84	27747.05
551.01	28084.09
551.18	27681.52
551.34	27835.99
551.51	27960.04
551.68	28102.81
551.84	28147.28
552.01	28011.53
552.18	28734.76
552.34	28257.29
552.51	28198.77
552.68	28341.55
552.84	27821.95
553.01	28451.55
553.18	28210.48
553.34	28542.83
553.51	28210.48
553.67	28510.07
553.84	28416.44
554.01	28725.39
554.17	28486.66
554.34	28622.41
554.51	28355.59
554.67	28762.84
554.84	28615.39
555.00	28423.47
555.17	28741.78
555.33	28622.41
555.50	28458.57
555.67	28545.17
555.83	28933.70
556.00	28786.25
556.16	28889.23
556.33	28697.31
556.50	28952.43
556.66	28767.52
556.83	28945.41
556.99	29165.42
557.16	29067.11
557.32	29347.98
557.49	29230.95
557.65	28608.37
557.82	29036.69
557.98	28828.38
558.15	29092.86
558.32	28819.02
558.48	29252.02
558.65	29460.32
558.81	29027.32
558.98	28870.51
559.14	29083.50
559.31	29032.00
559.47	29139.67
559.64	29422.87
559.80	29457.98
559.97	29467.34
560.13	29090.52
560.30	29015.62
560.46	29373.72
560.63	29448.62
560.79	29551.60
560.96	29242.65
561.12	29200.52
561.29	29240.31
561.45	29355.00
561.61	29357.34
561.78	29474.37
561.94	29483.73
562.11	29476.71
562.27	29116.26
562.44	29207.55
562.60	29226.27
562.77	28889.23
562.93	29324.57
563.10	29731.83
563.26	29387.77
563.42	29680.33
563.59	29687.36
563.75	29347.98
563.92	29830.13
564.08	29216.91
564.24	29303.51
564.41	29481.39
564.57	29429.90
564.74	29825.45
564.90	29996.31
565.07	29521.18
565.23	30101.63
565.39	29560.97
565.56	30115.67
565.72	29734.17
565.88	29799.70
566.05	29626.50
566.21	29612.46
566.38	29893.32
566.54	29661.61
566.70	30045.46
566.87	30298.23
567.03	29968.22
567.19	30146.10
567.36	29883.96
567.52	30192.91
567.68	29717.78
567.85	30024.39
568.01	29930.77
568.17	29586.71
568.34	30244.40
568.50	29926.09
568.66	30059.50
568.83	29890.98
568.99	30204.61
569.15	30050.14
569.32	30031.41
569.48	29776.30
569.64	30082.91
569.81	29741.19
569.97	30043.12
570.13	30003.33
570.30	30000.99
570.46	30417.60
570.62	30118.01
570.78	30146.10
570.95	30031.41
571.11	30096.95
571.27	29785.66
571.43	30012.69
571.60	29874.60
571.76	30110.99
571.92	29827.79
572.09	30382.49
572.25	30508.88
572.41	30132.06
572.57	30221.00
572.74	30497.18
572.90	30450.37
573.06	29841.83
573.22	29921.41
573.38	30061.84
573.55	29879.28
573.71	30473.78
573.87	30576.76
574.03	30221.00
574.20	30696.13
574.36	30092.27
574.52	30092.27
574.68	30249.08
574.84	29996.31
575.01	30672.72
575.17	30225.68
575.33	30000.99
575.49	30560.37
575.65	30492.50
575.82	30150.78
575.98	30373.13
576.14	30600.16
576.30	30478.46
576.46	29963.54
576.62	30328.66
576.79	30740.60
576.95	30143.76
577.11	30228.02
577.27	29706.08
577.43	30256.11
577.59	30536.97
577.75	30354.41
577.92	29874.60
578.08	29993.97
578.24	30127.38
578.40	30349.73
578.56	30501.86
578.72	30431.65
578.88	30398.88
579.04	30696.13
579.21	30148.44
579.37	30665.70
579.53	30761.66
579.69	29991.62
579.85	30499.52
580.01	30483.14
580.17	30272.49
580.33	30497.18
580.49	30148.44
580.65	30555.69
580.82	30462.07
580.98	30850.60
581.14	30401.22
581.30	30733.57
581.46	30279.51
581.62	30199.93
581.78	30258.45
581.94	30235.04
582.10	30092.27
582.26	30281.85
582.42	30747.62
582.58	30682.08
582.74	30450.37
582.90	30558.03
583.06	31274.24
583.22	30473.78
583.38	30497.18
583.54	30441.01
583.70	30082.91
583.86	30668.04
584.02	30508.88
584.18	30410.58
584.34	30735.92
584.50	30962.95
584.66	30153.12
584.82	30373.13
584.98	30464.41
585.14	30562.72
585.30	30244.40
585.46	30443.35
585.62	30391.86
585.78	30948.90
585.94	30321.64
586.10	31126.78
586.26	30829.54
586.42	30656.34
586.58	30562.72
586.74	30686.76
586.90	30565.06
587.06	30155.46
587.22	30335.68
587.38	30412.92
587.54	30668.04
587.70	31143.17
587.86	30600.16
588.02	30749.96
588.18	31161.89
588.34	30733.57
588.49	30768.68
588.65	30663.36
588.81	30621.23
588.97	31096.36
589.13	30682.08
589.29	30822.51
589.45	30951.24
589.61	30862.30
589.77	30628.25
589.93	31037.84
590.08	30670.38
590.24	30899.75
590.40	31044.87
590.56	30838.90
590.72	30958.27
590.88	30780.39
591.04	31175.94
591.20	31019.12
591.35	30892.73
591.51	30958.27
591.67	31133.81
591.83	31318.71
591.99	30991.03
592.15	31065.93
592.31	31005.08
592.46	31103.38
592.62	30778.04
592.78	30707.83
592.94	30361.43
593.10	30698.47
593.26	30682.08
593.41	31414.67
593.57	30871.67
593.73	31072.95
593.89	30717.19
594.05	31208.70
594.20	30967.63
594.36	31033.16
594.52	31180.62
594.68	30813.15
594.84	31002.74
594.99	31281.26
595.15	31019.12
595.31	31192.32
595.47	31136.15
595.62	31131.47
595.78	31117.42
595.94	31175.94
596.10	31147.85
596.25	30792.09
596.41	30920.82
596.57	30476.12
596.73	31028.48
596.88	30916.14
597.04	31187.64
597.20	31150.19
597.36	31353.82
597.51	31372.54
597.67	31157.21
597.83	30904.43
597.99	31154.87
598.14	30871.67
598.30	31243.81
598.46	31253.17
598.61	31197.00
598.77	31407.65
598.93	31613.62
599.09	31087.00
599.24	31709.58
599.40	31421.69
599.56	31044.87
599.71	31236.79
599.87	31344.45
600.03	31075.29
600.18	31072.95
600.34	30850.60
600.50	30876.35
600.65	30993.37
600.81	31335.09
600.97	31271.90
601.12	31365.52
601.28	31630.00
601.44	31433.39
601.59	31409.99
601.75	31475.52
601.91	31522.34
602.06	31253.17
602.22	31178.28
602.37	31192.32
602.53	31110.40
602.69	31372.54
602.84	31143.17
603.00	31433.39
603.16	31463.82
603.31	31166.57
603.47	31342.11
603.62	31307.01
603.78	31206.36
603.94	31269.56
604.09	31234.45
604.25	30892.73
604.40	31159.55
604.56	31047.21
604.71	31559.78
604.87	31412.33
605.03	31051.89
605.18	31264.88
605.34	31152.53
605.49	31072.95
605.65	30937.20
605.80	30974.65
605.96	31182.96
606.12	30967.63
606.27	31201.68
606.43	30920.82
606.58	31426.37
606.74	30911.46
606.89	31098.70
607.05	31339.77
607.20	31360.84
607.36	31199.34
607.51	31103.38
607.67	30778.04
607.82	31019.12
607.98	31197.00
608.13	31213.38
608.29	30682.08
608.44	30916.14
608.60	31056.57
608.75	31173.60
608.91	31094.02
609.06	31110.40
609.22	30906.77
609.37	30501.86
609.53	30836.56
609.68	30927.84
609.84	30834.22
609.99	30604.84
610.15	30785.07
610.30	30728.89
610.46	30759.32
610.61	30937.20
610.76	31016.78
610.92	31051.89
611.07	30927.84
611.23	31246.15
611.38	31056.57
611.54	30410.58
611.69	30717.19
611.84	30637.61
612.00	30565.06
612.15	30567.40
612.31	30815.49
612.46	30768.68
612.62	30752.30
612.77	31021.46
612.92	30991.03
613.08	30752.30
613.23	30815.49
613.39	30841.24
613.54	30611.87
613.69	30586.12
613.85	30644.63
614.00	30305.26
614.15	30499.52
614.31	30377.81
614.46	30808.47
614.62	30677.40
614.77	30749.96
614.92	30752.30
615.08	30799.11
615.23	30565.06
615.38	30740.60
615.54	30253.76
615.69	30398.88
615.84	30036.09
616.00	30497.18
616.15	30169.51
616.30	30890.39
616.46	30417.60
616.61	30251.42
616.76	30773.36
616.92	30572.08
617.07	30368.45
617.22	30522.93
617.37	30115.67
617.53	30162.48
617.68	30356.75
617.83	30483.14
617.99	30026.73
618.14	30171.85
618.29	30043.12
618.45	30101.63
618.60	30675.06
618.75	30242.06
618.90	30450.37
619.06	30462.07
619.21	30087.59
619.36	30319.30
619.51	29893.32
619.67	30068.86
619.82	29759.91
619.97	29912.05
620.12	29837.15
620.28	29855.87
620.43	30216.32
620.58	30316.96
620.73	30401.22
620.89	29975.24
621.04	30401.22
621.19	30003.33
621.34	30295.89
621.49	29521.18
621.65	30054.82
621.80	30185.89
621.95	29631.18
622.10	29666.29
622.25	29228.61
622.41	29909.71
622.56	29755.23
622.71	29673.31
622.86	29802.04
623.01	29518.84
623.16	29755.23
623.32	29699.06
623.47	29715.44
623.62	30024.39
623.77	29724.80
623.92	29783.32
624.07	29699.06
624.23	29481.39
624.38	29439.26
624.53	29598.41
624.68	29668.63
624.83	29790.34
624.98	30061.84
625.13	29408.83
625.29	29741.19
625.44	29846.51
625.59	29071.79
625.74	29226.27
625.89	29209.89
626.04	29188.82
626.19	29099.88
626.34	29137.33
626.49	29362.02
626.65	29181.80
626.80	29216.91
626.95	29521.18
627.10	29411.17
627.25	29132.65
627.40	29142.01
627.55	29069.45
627.70	29284.78
627.85	29355.00
628.00	28870.51
628.15	29378.40
628.30	28933.70
628.45	28875.19
628.60	29017.96
628.76	29486.07
628.91	29097.54
629.06	29001.58
629.21	29259.04
629.36	29230.95
629.51	29443.94
629.66	29228.61
629.81	28795.61
629.96	28503.04
630.11	28957.11
630.26	28823.70
630.41	28931.36
630.56	28741.78
630.71	29055.41
630.86	28830.72
631.01	28950.09
631.16	28910.30
631.31	28779.23
631.46	28746.46
631.61	28910.30
631.76	28484.32
631.91	28652.84
632.06	28755.82
632.21	28664.54
632.36	28744.12
632.51	28458.57
632.66	28549.85
632.81	28484.32
632.96	28727.74
633.10	28484.32
633.25	28966.47
633.40	28437.51
633.55	28566.24
633.70	28276.01
633.85	28292.40
634.00	28217.50
634.15	28058.34
634.30	28271.33
634.45	28514.75
634.60	28334.53
634.75	28322.82
634.90	28631.77
635.05	28769.86
635.19	28322.82
635.34	28648.16
635.49	28320.48
635.64	28341.55
635.79	28360.27
635.94	28023.23
636.09	28294.74
636.24	28004.51
636.39	28180.05
636.53	28196.43
636.68	27784.50
636.83	27833.65
636.98	28575.60
637.13	28336.87
637.28	28205.80
637.43	28657.52
637.57	28283.03
637.72	28030.26
637.87	28158.99
638.02	27927.27
638.17	27943.66
638.32	27356.18
638.46	27967.06
638.61	27391.29
638.76	27700.24
638.91	27845.35
639.06	27936.63
639.20	28004.51
639.35	27871.10
639.50	27889.82
639.65	28013.87
639.80	27845.35
639.94	27929.61
640.09	27683.86
640.24	27676.83
640.39	27601.94
640.54	27772.80
640.68	27667.47
640.83	27309.37
640.98	27482.57
641.13	27623.00
641.27	27658.11
641.42	27660.45
641.57	27473.21
641.72	27681.52
641.86	27718.96
642.01	27417.04
642.16	27550.45
642.31	27246.18
642.45	27534.06
642.60	27124.47
642.75	27379.59
642.90	27211.07
643.04	27154.90
643.19	27618.32
643.34	27442.78
643.48	27241.50
643.63	27218.09
643.78	27110.43
643.93	27484.91
644.07	27466.19
644.22	27194.68
644.37	27239.15
644.51	27105.74
644.66	27182.98
644.81	26845.94
644.95	27061.27
645.10	26726.58
645.25	27007.44
645.39	27424.06
645.54	27089.36
645.69	26967.65
645.83	27005.10
645.98	27190.00
646.13	27281.28
646.27	27058.93
646.42	27061.27
646.57	27016.80
646.71	27023.83
646.86	26829.56
647.00	27243.84
647.15	26864.67
647.30	26852.97
647.44	26934.88
647.59	26859.99
647.74	26920.84
647.88	27007.44
648.03	26890.41
648.17	26845.94
648.32	26937.23
648.47	27140.85
648.61	26719.56
648.76	26958.29
648.90	26761.69
649.05	27110.43
649.20	26876.37
649.34	26377.84
649.49	26307.62
649.63	26658.70
649.78	26649.34
649.92	26211.66
650.07	26438.69
650.21	26621.25
650.36	26401.24
650.51	26258.47
650.65	26466.78
650.80	26457.42
650.94	26429.33
651.09	26623.59
651.23	26366.13
651.38	26389.54
651.52	25919.09
651.67	26373.16
651.81	26134.42
651.96	26625.93
652.10	26267.83
652.25	26438.69
652.39	26324.01
652.54	26600.19
652.68	26359.11
652.83	26347.41
652.97	26331.03
653.12	26167.19
653.26	25986.97
653.41	26555.72
653.55	26026.76
653.70	26150.81
653.84	25986.97
653.99	26141.44
654.13	26214.00
654.27	25844.20
654.42	26024.42
654.56	26111.02
654.71	25947.18
654.85	26146.12
655.00	26150.81
655.14	26108.68
655.29	26017.40
655.43	26092.29
655.57	26167.19
655.72	26082.93
655.86	25947.18
656.01	26087.61
656.15	25617.16
656.30	26089.95
656.44	25783.34
656.58	25678.02
656.73	25869.94
656.87	25914.41
657.01	25544.61
657.16	26054.84
657.30	25792.70
657.45	25596.10
657.59	25816.11
657.73	25493.12
657.88	25596.10
658.02	25563.33
658.16	25713.13
658.31	25619.50
658.45	25340.98
658.60	25123.31
658.74	25493.12
658.88	25455.67
659.03	25839.51
659.17	25062.46
659.31	25104.59
659.46	25539.93
659.60	25553.97
659.74	25706.10
659.89	25200.55
660.03	25238.00
660.17	25282.47
660.32	25216.93
660.46	24842.45
660.60	25268.42
660.74	25270.76
660.89	25340.98
661.03	24821.38
661.17	24816.70
661.32	25081.18
661.46	25008.62
661.60	24884.58
661.74	25177.14
661.89	24856.49
662.03	24886.92
662.17	25106.93
662.31	24842.45
662.46	24889.26
662.60	24905.64
662.74	24584.99
662.88	24655.20
663.03	24444.56
663.17	24435.19
663.31	24521.79
663.45	24451.58
663.60	24404.77
663.74	24208.16
663.88	24641.16
664.02	24313.48
664.17	24877.55
664.31	24526.47
664.45	24032.62
664.59	24554.56
664.73	24428.17
664.88	24250.29
665.02	24348.59
665.16	23828.99
665.30	24154.33
665.44	24269.01
665.59	24011.56
665.73	23875.80
665.87	23871.12
666.01	23939.00
666.15	23843.04
666.29	24226.89
666.44	24114.54
666.58	23878.15
666.72	23398.34
666.86	23906.23
667.00	23798.57
667.14	23843.04
667.28	23695.58
667.43	23594.94
667.57	23751.76
667.71	23349.18
667.85	23571.54
667.99	23407.70
668.13	23480.25
668.27	23627.71
668.41	23513.02
668.56	23407.70
668.70	23346.84
668.84	23173.64
668.98	23545.79
669.12	23115.13
669.26	23377.27
669.40	23192.37
669.54	23278.97
669.68	23138.54
669.82	23068.32
669.96	22998.10
670.10	23033.21
670.25	23014.49
670.39	22941.93
670.53	22892.78
670.67	22677.45
670.81	23356.21
670.95	22885.76
671.09	22897.46
671.23	22530.00
671.37	22843.63
671.51	22775.75
671.65	23262.58
671.79	22700.86
671.93	22616.60
672.07	22466.80
672.21	22197.64
672.35	22122.74
672.49	22396.59
672.63	22085.30
672.77	22101.68
672.91	22291.26
673.05	22199.98
673.19	22171.89
673.33	22284.24
673.47	22146.15
673.61	22441.06
673.75	22003.38
673.89	22019.76
674.03	21961.25
674.17	21977.63
674.31	21649.96
674.45	21694.43
674.59	21970.61
674.73	21544.63
674.87	21745.92
675.01	21364.41
675.15	21912.10
675.29	21546.97
675.43	21284.83
675.56	21579.74
675.70	21511.86
675.84	21387.82
675.98	20900.98
676.12	21373.77
676.26	21245.04
676.40	21104.61
676.54	21104.61
676.68	21184.19
676.82	20592.03
676.96	20900.98
677.10	20809.70
677.23	21062.48
677.37	20470.33
677.51	20643.52
677.65	20730.12
677.79	20273.72
677.93	20292.44
678.07	20304.15
678.21	20472.67
678.34	20266.70
678.48	20276.06
678.62	20318.19
678.76	20084.14
678.90	19906.26
679.04	20077.12
679.18	20135.63
679.31	19529.43
679.45	19784.55
679.59	19772.85
679.73	19800.93
679.87	19508.37
680.00	19475.60
680.14	19630.07
680.28	19576.24
680.42	19456.87
680.56	19264.95
680.70	19323.46
680.83	19604.33
680.97	19374.95
681.11	19161.97
681.25	19124.52
681.39	19026.21
681.52	19220.48
681.66	19124.52
681.80	18953.66
681.94	19136.22
682.07	19257.93
682.21	18806.20
682.35	18569.81
682.49	18462.15
682.62	18441.08
682.76	18881.10
682.90	18532.36
683.04	18417.68
683.17	18511.30
683.31	18270.22
683.45	18574.49
683.59	18597.90
683.72	18211.71
683.86	18511.30
684.00	18136.81
684.13	18127.45
684.27	17998.72
684.41	17937.87
684.55	17832.54
684.68	17446.35
684.82	17661.68
684.96	17523.59
685.09	17816.16
685.23	17413.59
685.37	17390.18
685.50	17621.89
685.64	17649.98
685.78	17535.29
685.91	17308.26
686.05	17502.53
686.19	17341.03
686.32	17448.69
686.46	17064.85
686.60	16870.58
686.73	16893.99
686.87	16774.62
687.01	16779.30
687.14	16816.75
687.28	16851.86
687.42	16697.38
687.55	16346.30
687.69	16451.63
687.82	16264.38
687.96	16327.58
688.10	16540.57
688.23	16800.37
688.37	16313.53
688.50	16517.16
688.64	16194.17
688.78	15997.56
688.91	16184.80
689.05	16042.03
689.18	15836.06
689.32	15695.63
689.46	15749.46
689.59	15688.61
689.73	15707.34
689.86	15482.64
690.00	15616.05
690.13	15611.37
690.27	15517.75
690.41	15653.50
690.54	15719.04
690.68	15396.04
690.81	15660.52
690.95	15513.07
691.08	15487.32
691.22	15351.57
691.35	15255.61
691.49	15166.67
691.62	15239.23
691.76	15384.34
691.89	14923.26
692.03	14689.20
692.16	14981.77
692.30	14658.78
692.43	14607.28
692.57	14499.62
692.70	14527.71
692.84	14506.64
692.97	14464.51
693.11	14246.84
693.24	14427.06
693.38	14455.15
693.51	14209.39
693.65	14391.95
693.78	14207.05
693.92	14162.58
694.05	14026.83
694.19	14108.75
694.32	13865.33
694.45	13923.85
694.59	13825.54
694.72	13678.09
694.86	13696.82
694.99	13348.08
695.13	13806.82
695.26	13479.15
695.39	13289.56
695.53	13605.53
695.66	13610.22
695.80	13465.10
695.93	13418.29
696.07	13408.93
696.20	13460.42
696.33	13074.23
696.47	13142.11
696.60	13123.38
696.73	13315.31
696.87	13076.57
697.00	13200.62
697.14	12891.67
697.27	12575.70
697.40	12610.81
697.54	12688.04
697.67	12603.78
697.80	12453.99
697.94	12386.12
698.07	12346.33
698.21	12432.93
698.34	12500.80
698.47	12489.10
698.61	12568.68
698.74	12336.96
698.87	12437.61
699.01	12177.81
699.14	12081.85
699.27	11861.84
699.40	12154.40
699.54	11978.86
699.67	12053.76
699.80	11686.29
699.94	11599.70
700.07	11955.46
700.20	11709.70
700.34	11548.20
700.47	11461.60
700.60	11695.66
700.73	11585.65
700.87	11695.66
701.00	11393.73
701.13	11204.14
701.26	11571.61
701.40	11538.84
701.53	11454.58
701.66	11208.83
701.79	11080.10
701.93	11171.38
702.06	11082.44
702.19	10757.10
702.32	10822.64
702.46	10750.08
702.59	10890.51
702.72	10464.54
702.85	10796.89
702.99	10551.14
703.12	10832.00
703.25	10626.03
703.38	10516.03
703.51	10684.55
703.65	10628.37
703.78	10511.35
703.91	10579.22
704.04	10595.61
704.17	10408.36
704.31	10534.75
704.44	10366.23
704.57	10328.78
704.70	10200.05
704.83	10099.41
704.96	10003.45
705.10	9687.48
705.23	9879.40
>>>>>End Processed Spectral Data<<<<<
