SpectraSuite Data File
++++++++++++++++++++++++++++++++++++
Date: Fri Oct 18 13:58:29 GMT-05:00 2013
User: bianchi
Dark Spectrum Present: No
Reference Spectrum Present: No
Number of Sampled Component Spectra: 1
Spectrometers: USB2+H05261
Integration Time (usec): 50000 (USB2+H05261)
Spectra Averaged: 1 (USB2+H05261)
Boxcar Smoothing: 0 (USB2+H05261)
Correct for Electrical Dark: No (USB2+H05261)
Strobe/Lamp Enabled: No (USB2+H05261)
Correct for Detector Non-linearity: No (USB2+H05261)
Correct for Stray Light: No (USB2+H05261)
Number of Pixels in Processed Spectrum: 2048
>>>>>Begin Processed Spectral Data<<<<<
365.73	0.00
365.92	0.00
366.12	0.00
366.32	0.00
366.52	0.00
366.72	0.00
366.91	0.00
367.11	0.00
367.31	0.00
367.51	0.00
367.70	0.00
367.90	0.00
368.10	0.00
368.30	0.00
368.49	0.00
368.69	0.00
368.89	0.00
369.09	0.00
369.28	0.00
369.48	0.00
369.68	0.00
369.87	0.00
370.07	0.00
370.27	0.00
370.47	0.00
370.66	124.05
370.86	133.41
371.06	163.84
371.25	142.77
371.45	168.52
371.65	175.54
371.84	205.97
372.04	119.37
372.24	170.86
372.44	142.77
372.63	177.88
372.83	227.03
373.03	154.48
373.22	156.82
373.42	189.58
373.62	208.31
373.81	255.12
374.01	269.16
374.21	173.20
374.40	231.71
374.60	234.05
374.79	269.16
374.99	203.63
375.19	264.48
375.38	201.29
375.58	170.86
375.78	252.78
375.97	250.44
376.17	280.86
376.37	241.08
376.56	264.48
376.76	201.29
376.95	257.46
377.15	334.70
377.35	257.46
377.54	308.95
377.74	266.82
377.93	229.37
378.13	292.57
378.33	264.48
378.52	222.35
378.72	245.76
378.91	325.33
379.11	229.37
379.31	299.59
379.50	292.57
379.70	292.57
379.89	283.20
380.09	301.93
380.28	243.42
380.48	276.18
380.68	245.76
380.87	238.73
381.07	262.14
381.26	283.20
381.46	301.93
381.65	306.61
381.85	294.91
382.04	341.72
382.24	372.15
382.43	376.83
382.63	379.17
382.83	330.02
383.02	297.25
383.22	325.33
383.41	315.97
383.61	325.33
383.80	360.44
384.00	346.40
384.19	299.59
384.39	362.78
384.58	390.87
384.78	409.59
384.97	383.85
385.17	381.51
385.36	365.12
385.56	395.55
385.75	489.17
385.95	416.62
386.14	409.59
386.34	383.85
386.53	330.02
386.72	322.99
386.92	435.34
387.11	402.57
387.31	372.15
387.50	489.17
387.70	407.25
387.89	423.64
388.09	433.00
388.28	381.51
388.48	402.57
388.67	519.60
388.86	498.53
389.06	425.98
389.25	500.87
389.45	461.09
389.64	442.36
389.84	451.72
390.03	440.02
390.22	545.34
390.42	496.19
390.61	386.19
390.81	416.62
391.00	440.02
391.19	503.22
391.39	397.89
391.58	587.47
391.78	498.53
391.97	566.41
392.16	559.39
392.36	510.24
392.55	582.79
392.75	503.22
392.94	510.24
393.13	692.80
393.33	517.26
393.52	561.73
393.71	580.45
393.91	559.39
394.10	622.58
394.29	561.73
394.49	573.43
394.68	603.86
394.88	622.58
395.07	660.03
395.26	613.22
395.46	554.71
395.65	653.01
395.84	706.84
396.04	669.39
396.23	585.13
396.42	547.69
396.62	634.29
396.81	732.59
397.00	669.39
397.19	664.71
397.39	603.86
397.58	660.03
397.77	662.37
397.97	566.41
398.16	692.80
398.35	681.10
398.55	711.52
398.74	699.82
398.93	807.48
399.12	753.65
399.32	627.26
399.51	685.78
399.70	826.21
399.90	692.80
400.09	739.61
400.28	767.70
400.47	760.67
400.67	802.80
400.86	751.31
401.05	786.42
401.24	802.80
401.44	805.14
401.63	784.08
401.82	774.72
402.01	826.21
402.21	856.64
402.40	887.06
402.59	812.17
402.78	777.06
402.97	844.93
403.17	851.96
403.36	849.61
403.55	858.98
403.74	819.19
403.93	887.06
404.13	870.68
404.32	858.98
404.51	858.98
404.70	924.51
404.89	898.77
405.09	929.19
405.28	959.62
405.47	978.34
405.66	901.11
405.85	1039.20
406.05	915.15
406.24	983.02
406.43	957.28
406.62	1001.75
406.81	1006.43
407.00	1006.43
407.20	1015.79
407.39	1064.94
407.58	1060.26
407.77	1034.52
407.96	1135.16
408.15	1111.75
408.34	1067.28
408.54	1086.01
408.73	1032.18
408.92	1090.69
409.11	1104.73
409.30	1121.12
409.49	1088.35
409.68	1153.88
409.87	1163.25
410.07	1146.86
410.26	1153.88
410.45	1193.67
410.64	1146.86
410.83	1273.25
411.02	1238.14
411.21	1261.55
411.40	1114.10
411.59	1282.61
411.78	1291.98
411.98	1193.67
412.17	1196.01
412.36	1254.53
412.55	1348.15
412.74	1390.28
412.93	1256.87
413.12	1317.72
413.31	1373.89
413.50	1385.60
413.69	1437.09
413.88	1409.00
414.07	1385.60
414.26	1399.64
414.45	1406.66
414.64	1472.20
414.83	1519.01
415.02	1418.36
415.22	1535.39
415.41	1514.33
415.60	1540.07
415.79	1493.26
415.98	1526.03
416.17	1619.65
416.36	1575.18
416.55	1521.35
416.74	1579.86
416.93	1631.35
417.12	1701.57
417.31	1589.22
417.50	1633.69
417.69	1696.89
417.88	1762.42
418.07	1619.65
418.26	1689.87
418.45	1739.02
418.64	1769.44
418.83	1886.47
419.02	1792.85
419.21	1914.56
419.39	1778.81
419.58	1860.73
419.77	1816.26
419.96	1867.75
420.15	1952.01
420.34	1816.26
420.53	1825.62
420.72	1781.15
420.91	1872.43
421.10	1949.67
421.29	1893.49
421.48	1858.39
421.67	1935.62
421.86	1933.28
422.05	2022.22
422.24	1935.62
422.43	1902.86
422.61	1944.99
422.80	1970.73
422.99	2043.29
423.18	1947.33
423.37	2033.93
423.56	1994.14
423.75	1942.64
423.94	1980.09
424.13	1907.54
424.32	1947.33
424.50	2033.93
424.69	2083.08
424.88	1963.71
425.07	1919.24
425.26	1984.77
425.45	1940.30
425.64	2003.50
425.83	2052.65
426.01	2099.46
426.20	1977.75
426.39	2090.10
426.58	2054.99
426.77	2040.95
426.96	2181.38
427.15	2045.63
427.33	2132.23
427.52	2085.42
427.71	2263.30
427.90	2204.78
428.09	2218.83
428.28	2244.57
428.46	2076.06
428.65	2230.53
428.84	2155.63
429.03	2237.55
429.22	2162.66
429.40	2216.49
429.59	2253.94
429.78	2148.61
429.97	2270.32
430.16	2172.02
430.34	2218.83
430.53	2300.75
430.72	2317.13
430.91	2305.43
431.10	2228.19
431.28	2228.19
431.47	2340.54
431.66	2462.24
431.85	2340.54
432.03	2443.52
432.22	2450.54
432.41	2532.46
432.60	2347.56
432.79	2438.84
432.97	2394.37
433.16	2417.77
433.35	2504.37
433.54	2518.42
433.72	2511.39
433.91	2523.10
434.10	2497.35
434.28	2450.54
434.47	2408.41
434.66	2647.15
434.85	2586.29
435.03	2546.50
435.22	2527.78
435.41	2616.72
435.59	2544.16
435.78	2654.17
435.97	2597.99
436.16	2602.68
436.34	2509.05
436.53	2572.25
436.72	2818.00
436.90	2579.27
437.09	2719.70
437.28	2499.69
437.46	2722.04
437.65	2717.36
437.84	2698.64
438.02	2806.30
438.21	2766.51
438.40	2682.25
438.58	2881.20
438.77	2874.18
438.96	2871.84
439.14	2984.18
439.33	2949.08
439.52	2939.71
439.70	3056.74
439.89	2977.16
440.08	2916.31
440.26	3070.78
440.45	2953.76
440.63	3052.06
440.82	3101.21
441.01	3089.51
441.19	3117.59
441.38	3150.36
441.57	3131.64
441.75	3131.64
441.94	3201.85
442.12	3192.49
442.31	3323.56
442.50	3178.45
442.68	3258.03
442.87	3332.92
443.05	3311.86
443.24	3286.11
443.43	3398.46
443.61	3304.84
443.80	3466.33
443.98	3393.78
444.17	3248.66
444.35	3400.80
444.54	3435.91
444.73	3459.31
444.91	3431.23
445.10	3447.61
445.28	3342.28
445.47	3365.69
445.65	3375.05
445.84	3440.59
446.02	3447.61
446.21	3417.18
446.39	3459.31
446.58	3389.10
446.77	3466.33
446.95	3398.46
447.14	3510.80
447.32	3454.63
447.51	3494.42
447.69	3473.36
447.88	3510.80
448.06	3595.06
448.25	3510.80
448.43	3487.40
448.62	3590.38
448.80	3463.99
448.99	3538.89
449.17	3616.13
449.36	3536.55
449.54	3576.34
449.73	3705.07
449.91	3667.62
450.10	3669.96
450.28	3779.97
450.46	3641.87
450.65	3845.50
450.83	3665.28
451.02	3667.62
451.20	3688.68
451.39	3817.41
451.57	3777.62
451.76	3824.44
451.94	3808.05
452.13	3747.20
452.31	3772.94
452.49	3716.77
452.68	3761.24
452.86	3817.41
453.05	3974.23
453.23	3873.59
453.42	3808.05
453.60	3822.09
453.78	3889.97
453.97	3810.39
454.15	4002.32
454.34	3925.08
454.52	4014.02
454.70	3887.63
454.89	3946.14
455.07	3936.78
455.26	3960.19
455.44	4084.23
455.62	4126.36
455.81	4084.23
455.99	4112.32
456.17	4142.75
456.36	4138.07
456.54	4212.96
456.73	4152.11
456.91	4205.94
457.09	4278.50
457.28	4250.41
457.46	4278.50
457.64	4252.75
457.83	4205.94
458.01	4285.52
458.19	4409.57
458.38	4304.25
458.56	4367.44
458.74	4362.76
458.93	4425.95
459.11	4423.61
459.29	4376.80
459.48	4428.29
459.66	4425.95
459.84	4353.40
460.03	4500.85
460.21	4587.45
460.39	4503.19
460.57	4437.66
460.76	4631.92
460.94	4585.11
461.12	4624.90
461.31	4521.92
461.49	4631.92
461.67	4641.28
461.85	4765.33
462.04	4753.63
462.22	4889.38
462.40	4627.24
462.59	4737.24
462.77	4709.16
462.95	4793.42
463.13	4634.26
463.32	4711.50
463.50	4638.94
463.68	4737.24
463.86	4667.03
464.05	4580.43
464.23	4688.09
464.41	4990.02
464.59	4727.88
464.78	4922.15
464.96	4994.70
465.14	4802.78
465.32	5022.79
465.50	4910.44
465.69	4898.74
465.87	4809.80
466.05	4873.00
466.23	5151.52
466.41	4889.38
466.60	5109.39
466.78	4954.91
466.96	4882.36
467.14	5107.05
467.32	5186.63
467.51	5130.45
467.69	4964.28
467.87	5057.90
468.05	5289.61
468.23	5163.22
468.41	5179.61
468.60	5034.49
468.78	5275.57
468.96	5085.98
469.14	5252.16
469.32	5270.89
469.50	5083.64
469.69	5252.16
469.87	5411.32
470.05	5514.30
470.23	5341.10
470.41	5479.19
470.59	5430.04
470.77	5376.21
470.95	5423.02
471.14	5549.41
471.32	5472.17
471.50	5568.13
471.68	5507.28
471.86	5678.14
472.04	5563.45
472.22	5806.87
472.40	5696.86
472.58	5713.25
472.77	5614.95
472.95	5746.02
473.13	5959.00
473.31	5753.04
473.49	5830.27
473.67	5813.89
473.85	5895.81
474.03	5902.83
474.21	5942.62
474.39	5947.30
474.57	6057.31
474.75	6141.57
474.93	6256.25
475.12	6010.50
475.30	6181.35
475.48	6099.44
475.66	6012.84
475.84	6284.34
476.02	6265.61
476.20	6363.92
476.38	6434.13
476.56	6513.71
476.74	6670.53
476.92	6429.45
477.10	6452.86
477.28	6583.93
477.46	6602.65
477.64	6635.42
477.82	6890.54
478.00	6942.03
478.18	6895.22
478.36	7148.00
478.54	7073.10
478.72	7110.55
478.90	7140.97
479.08	7115.23
479.26	7309.49
479.44	7220.55
479.62	7204.17
479.80	7349.28
479.98	7300.13
480.16	7447.58
480.34	7356.30
480.52	7531.84
480.70	7433.54
480.88	7691.00
481.06	7470.99
481.24	7606.74
481.41	7805.69
481.59	7925.05
481.77	7880.58
481.95	7936.76
482.13	8226.98
482.31	8070.17
482.49	8250.39
482.67	8301.88
482.85	8292.52
483.03	8360.39
483.21	8397.84
483.39	8407.20
483.57	8320.60
483.74	8655.30
483.92	8737.22
484.10	8573.38
484.28	8931.48
484.46	8823.82
484.64	9170.22
484.82	8879.99
485.00	8957.23
485.18	9205.33
485.35	9362.14
485.53	9221.71
485.71	9240.44
485.89	9521.30
486.07	9493.21
486.25	9399.59
486.43	9830.25
486.61	9612.58
486.78	9778.76
486.96	9905.15
487.14	10010.47
487.32	9799.82
487.50	10384.96
487.68	10197.71
487.85	10335.81
488.03	10251.55
488.21	10401.34
488.39	10485.60
488.57	10593.26
488.75	10670.50
488.92	10471.56
489.10	10689.23
489.28	10864.77
489.46	10932.64
489.64	10899.87
489.81	11159.67
489.99	11255.64
490.17	11321.17
490.35	11370.32
490.53	11419.47
490.70	11538.84
490.88	11522.46
491.06	11442.88
491.24	11576.29
491.41	11726.08
491.59	11936.73
491.77	11810.34
491.95	12051.42
492.13	12114.61
492.30	12154.40
492.48	12039.72
492.66	12093.55
492.84	12383.77
493.01	12334.62
493.19	12531.23
493.37	12629.53
493.54	12774.64
493.72	12940.82
493.90	12655.28
494.08	12861.24
494.25	12985.29
494.43	12849.54
494.61	13165.51
494.79	13004.02
494.96	13322.33
495.14	13032.10
495.32	13130.41
495.49	13535.32
495.67	13483.83
495.85	13827.88
496.02	13820.86
496.20	14141.52
496.38	13893.42
496.55	13614.90
496.73	14249.18
496.91	14001.08
497.09	13930.87
497.26	14237.48
497.44	13973.00
497.62	14272.59
497.79	14483.24
497.97	14408.34
498.14	14537.07
498.32	14532.39
498.50	14569.83
498.67	14881.13
498.85	14801.55
499.03	14925.60
499.20	14927.94
499.38	14939.64
499.56	15178.37
499.73	15157.31
499.91	15363.28
500.08	15321.15
500.26	15267.31
500.44	15211.14
500.61	15314.13
500.79	15513.07
500.97	15742.44
501.14	15513.07
501.32	15697.97
501.49	15559.88
501.67	15641.80
501.84	15503.71
502.02	15704.99
502.20	16133.31
502.37	16109.91
502.55	15943.73
502.72	15873.51
502.90	16063.10
503.07	16004.58
503.25	16063.10
503.43	15967.13
503.60	15990.54
503.78	16264.38
503.95	16390.77
504.13	16603.76
504.30	16472.69
504.48	16498.44
504.65	16688.02
504.83	16875.26
505.01	16954.84
505.18	16959.52
505.36	16957.18
505.53	16795.68
505.71	16936.12
505.88	16973.56
506.06	17116.34
506.23	17296.56
506.41	17083.57
506.58	17099.95
506.76	17289.54
506.93	17579.76
507.11	17191.23
507.28	17221.66
507.46	17488.48
507.63	17373.80
507.81	17832.54
507.98	17565.72
508.16	17504.87
508.33	17785.73
508.50	17530.61
508.68	17687.43
508.85	17947.23
509.03	17886.37
509.20	18293.63
509.38	17998.72
509.55	18314.69
509.73	18010.42
509.90	18136.81
510.08	18181.28
510.25	18249.16
510.42	18246.82
510.60	18317.03
510.77	18572.15
510.95	18583.85
511.12	18579.17
511.30	18492.57
511.47	18654.07
511.64	18565.13
511.82	18995.79
511.99	18689.18
512.17	18948.98
512.34	18820.25
512.51	19066.00
512.69	18970.04
512.86	19047.28
513.04	18991.11
513.21	19529.43
513.38	19147.92
513.56	19316.44
513.73	19377.30
513.90	19456.87
514.08	18967.70
514.25	19578.58
514.43	19583.26
514.60	19700.29
514.77	19655.82
514.95	19845.40
515.12	19517.73
515.29	19646.46
515.47	19896.89
515.64	19758.80
515.81	20196.48
515.99	20049.03
516.16	20046.69
516.33	20137.97
516.51	20346.28
516.68	19927.32
516.85	19847.74
517.03	20411.81
517.20	20287.76
517.37	20458.62
517.54	20418.83
517.72	20589.69
517.89	20793.32
518.06	20287.76
518.24	20414.15
518.41	20215.21
518.58	20823.75
518.75	21013.33
518.93	20692.68
519.10	20985.24
519.27	20783.96
519.45	21144.40
519.62	20945.45
519.79	20783.96
519.96	21003.97
520.14	21296.53
520.31	21193.55
520.48	21186.53
520.65	21118.65
520.83	21462.71
521.00	21184.19
521.17	21254.40
521.34	21226.32
521.52	21362.07
521.69	21397.18
521.86	21357.39
522.03	21561.02
522.20	21645.27
522.38	21844.22
522.55	22061.89
522.72	21406.54
522.89	21851.24
523.07	21994.01
523.24	21525.91
523.41	22281.90
523.58	21596.12
523.75	22129.77
523.92	21905.07
524.10	22113.38
524.27	21991.67
524.44	22429.35
524.61	22607.23
524.78	22555.74
524.96	22637.66
525.13	22270.20
525.30	22078.27
525.47	22192.96
525.64	22731.28
525.81	22588.51
525.98	22850.65
526.16	22831.93
526.33	22742.99
526.50	22698.52
526.67	22274.88
526.84	22649.36
527.01	22904.48
527.18	22855.33
527.36	22867.03
527.53	23236.84
527.70	23164.28
527.87	23133.86
528.04	22750.01
528.21	23159.60
528.38	22675.11
528.55	22724.26
528.72	22890.44
528.89	23304.71
529.07	23171.30
529.24	23197.05
529.41	23068.32
529.58	23190.03
529.75	23314.08
529.92	23358.55
530.09	23190.03
530.26	23208.75
530.43	23571.54
530.60	23543.45
530.77	23503.66
530.94	23899.21
531.11	23271.95
531.28	23683.88
531.46	23498.98
531.63	24002.19
531.80	23833.68
531.97	23866.44
532.14	23831.33
532.31	23728.35
532.48	24023.26
532.65	24037.30
532.82	23655.79
532.99	24093.47
533.16	24170.71
533.33	24093.47
533.50	24290.08
533.67	24372.00
533.84	24271.36
534.01	23901.55
534.18	24072.41
534.35	24498.39
534.52	24105.18
534.69	24400.08
534.86	24374.34
535.03	24261.99
535.20	24556.90
535.37	24505.41
535.54	24767.55
535.71	24465.62
535.88	24655.20
536.05	24458.60
536.22	25078.84
536.38	24987.56
536.55	24634.14
536.72	25135.01
536.89	24372.00
537.06	24711.38
537.23	24765.21
537.40	24762.87
537.57	24945.43
537.74	24812.02
537.91	24936.07
538.08	25209.91
538.25	25177.14
538.42	24919.68
538.59	25149.06
538.75	25027.35
538.92	25008.62
539.09	25221.61
539.26	25048.41
539.43	25427.58
539.60	25378.43
539.77	25385.45
539.94	25809.09
540.11	25273.10
540.28	25326.94
540.44	25654.61
540.61	25088.20
540.78	25348.00
540.95	25656.95
541.12	25642.91
541.29	25240.34
541.46	25546.95
541.62	25371.41
541.79	25645.25
541.96	25167.78
542.13	25652.27
542.30	25663.97
542.47	25956.54
542.63	25940.16
542.80	25773.98
542.97	26120.38
543.14	26462.10
543.31	25853.56
543.48	25916.75
543.64	26139.10
543.81	26459.76
543.98	26223.36
544.15	26031.44
544.32	26464.44
544.48	26356.77
544.65	26192.94
544.82	26499.55
544.99	25806.75
545.16	26490.18
545.32	26527.63
545.49	26649.34
545.66	26410.60
545.83	26867.01
546.00	26408.26
546.16	26700.83
546.33	26700.83
546.50	26319.32
546.67	26586.15
546.83	26291.24
547.00	26759.34
547.17	26799.13
547.34	26799.13
547.50	27091.70
547.67	26883.39
547.84	26806.16
548.00	27140.85
548.17	27168.94
548.34	26848.29
548.51	27283.62
548.67	27126.81
548.84	26977.01
549.01	27358.52
549.18	27154.90
549.34	27166.60
549.51	27101.06
549.68	26965.31
549.84	27267.24
550.01	26998.08
550.18	27201.71
550.34	27026.17
550.51	27524.70
550.68	27367.88
550.84	27161.92
551.01	27590.24
551.18	27190.00
551.34	27300.01
551.51	27274.26
551.68	27433.42
551.84	27538.74
552.01	27222.77
552.18	27805.56
552.34	27377.25
552.51	27491.93
552.68	27620.66
552.84	27253.20
553.01	27564.49
553.18	28037.28
553.34	27601.94
553.51	27328.10
553.67	27761.09
553.84	27894.50
554.01	27990.47
554.17	27814.93
554.34	27625.34
554.51	27723.65
554.67	28236.22
554.84	27838.33
555.00	27798.54
555.17	27723.65
555.33	28261.97
555.50	28077.07
555.67	27725.99
555.83	27981.10
556.00	28327.50
556.16	27908.55
556.33	28077.07
556.50	27896.85
556.66	28056.00
556.83	27981.10
556.99	28716.03
557.16	28105.15
557.32	28128.56
557.49	28041.96
557.65	27728.33
557.82	28135.58
557.98	28105.15
558.15	28121.54
558.32	28390.70
558.48	28425.81
558.65	28699.65
558.81	28383.68
558.98	28596.67
559.14	28011.53
559.31	28105.15
559.47	28540.49
559.64	28533.47
559.80	28465.60
559.97	28772.21
560.13	28388.36
560.30	28634.11
560.46	28320.48
560.63	28491.34
560.79	28432.83
560.96	28683.27
561.12	28367.29
561.29	28278.35
561.45	28596.67
561.61	28276.01
561.78	28294.74
561.94	28430.49
562.11	28650.50
562.27	28503.04
562.44	28608.37
562.60	28678.58
562.77	28446.87
562.93	28481.98
563.10	28765.18
563.26	28673.90
563.42	29188.82
563.59	28603.69
563.75	28706.67
563.92	28943.06
564.08	28959.45
564.24	28418.78
564.41	28680.92
564.57	29195.84
564.74	28723.05
564.90	29046.05
565.07	28510.07
565.23	28940.72
565.39	28828.38
565.56	28734.76
565.72	28884.55
565.88	28837.74
566.05	28877.53
566.21	28645.82
566.38	28919.66
566.54	29184.14
566.70	28940.72
566.87	29446.28
567.03	29200.52
567.19	29305.85
567.36	29188.82
567.52	29097.54
567.68	29149.03
567.85	28645.82
568.01	28790.93
568.17	29233.29
568.34	28950.09
568.50	29256.70
568.66	28931.36
568.83	29291.80
568.99	29165.42
569.15	29184.14
569.32	28961.79
569.48	29151.37
569.64	29223.93
569.81	29223.93
569.97	28877.53
570.13	29364.36
570.30	29144.35
570.46	29472.03
570.62	28966.47
570.78	29081.16
570.95	29380.74
571.11	29109.24
571.27	28709.01
571.43	28952.43
571.60	29584.37
571.76	29097.54
571.92	29230.95
572.09	29165.42
572.25	29193.50
572.41	29221.59
572.57	29387.77
572.74	29434.58
572.90	28896.25
573.06	29495.43
573.22	29263.72
573.38	29242.65
573.55	29427.56
573.71	29579.69
573.87	29371.38
574.03	29003.92
574.20	29385.43
574.36	29338.62
574.52	29425.22
574.68	29324.57
574.84	29067.11
575.01	29661.61
575.17	29895.66
575.33	29806.72
575.49	29436.92
575.65	29486.07
575.82	29586.71
575.98	29422.87
576.14	29551.60
576.30	29380.74
576.46	29053.07
576.62	29076.48
576.79	29537.56
576.95	29078.82
577.11	29170.10
577.27	29708.42
577.43	29626.50
577.59	29511.81
577.75	29315.21
577.92	29347.98
578.08	29181.80
578.24	29553.94
578.40	29408.83
578.56	29553.94
578.72	29345.64
578.88	29750.55
579.04	29867.58
579.21	29350.32
579.37	29607.78
579.53	29720.12
579.69	29448.62
579.85	29032.00
580.01	29682.67
580.17	29106.90
580.33	29553.94
580.49	29434.58
580.65	29525.86
580.82	29865.24
580.98	29883.96
581.14	29483.73
581.30	29296.49
581.46	29514.16
581.62	29207.55
581.78	29621.82
581.94	29727.14
582.10	29509.47
582.26	29670.97
582.42	29322.23
582.58	29626.50
582.74	29818.42
582.90	29965.88
583.06	29841.83
583.22	29357.34
583.38	29544.58
583.54	29523.52
583.70	29530.54
583.86	29572.67
584.02	29710.76
584.18	29605.44
584.34	30038.44
584.50	29930.77
584.66	29731.83
584.82	29294.14
584.98	29809.06
585.14	29530.54
585.30	29577.35
585.46	29689.70
585.62	29769.27
585.78	29612.46
585.94	29696.72
586.10	29605.44
586.26	29596.07
586.42	29872.26
586.58	29900.34
586.74	29640.54
586.90	29256.70
587.06	29455.64
587.22	29617.14
587.38	29734.17
587.54	29647.57
587.70	30120.35
587.86	29970.56
588.02	29848.85
588.18	29764.59
588.34	29954.18
588.49	29745.87
588.65	29682.67
588.81	29357.34
588.97	29666.29
589.13	29523.52
589.29	29905.02
589.45	29972.90
589.61	29769.27
589.77	30415.26
589.93	29996.31
590.08	30003.33
590.24	29797.36
590.40	29996.31
590.56	30148.44
590.72	29776.30
590.88	30183.55
591.04	29895.66
591.20	30059.50
591.35	30342.70
591.51	30438.67
591.67	30225.68
591.83	30132.06
591.99	30382.49
592.15	30204.61
592.31	30026.73
592.46	29996.31
592.62	29708.42
592.78	29720.12
592.94	29958.86
593.10	29902.68
593.26	30213.98
593.41	29970.56
593.57	30221.00
593.73	30047.80
593.89	29872.26
594.05	30087.59
594.20	29689.70
594.36	30148.44
594.52	30424.62
594.68	29813.74
594.84	30047.80
594.99	30120.35
595.15	30134.40
595.31	30125.04
595.47	30419.94
595.62	29930.77
595.78	29874.60
595.94	30157.80
596.10	30202.27
596.25	30054.82
596.41	30000.99
596.57	29872.26
596.73	30106.31
596.88	29951.84
597.04	30239.72
597.20	30389.52
597.36	30555.69
597.51	30543.99
597.67	30548.67
597.83	30462.07
597.99	30211.64
598.14	30202.27
598.30	30139.08
598.46	29802.04
598.61	30260.79
598.77	30150.78
598.93	30251.42
599.09	30052.48
599.24	30768.68
599.40	30246.74
599.56	30490.16
599.71	30157.80
599.87	30352.07
600.03	30312.28
600.18	30380.15
600.34	29713.10
600.50	29874.60
600.65	30288.87
600.81	30110.99
600.97	30885.71
601.12	30450.37
601.28	30340.36
601.44	30246.74
601.59	30391.86
601.75	30588.46
601.91	30410.58
602.06	30382.49
602.22	30101.63
602.37	30197.59
602.53	30134.40
602.69	30185.89
602.84	30543.99
603.00	30382.49
603.16	29907.37
603.31	30340.36
603.47	30422.28
603.62	30267.81
603.78	30066.52
603.94	29834.81
604.09	30340.36
604.25	30057.16
604.40	30038.44
604.56	30370.79
604.71	30136.74
604.87	30340.36
605.03	30632.93
605.18	30169.51
605.34	30197.59
605.49	30242.06
605.65	30408.24
605.80	30092.27
605.96	30022.05
606.12	30253.76
606.27	30068.86
606.43	30476.12
606.58	30253.76
606.74	30216.32
606.89	30429.30
607.05	29883.96
607.20	30419.94
607.36	30204.61
607.51	30649.32
607.67	29677.99
607.82	30190.57
607.98	30099.29
608.13	30562.72
608.29	30022.05
608.44	30008.01
608.60	30106.31
608.75	30204.61
608.91	30331.00
609.06	30223.34
609.22	30167.16
609.37	29422.87
609.53	29860.55
609.68	30181.21
609.84	30132.06
609.99	29813.74
610.15	29738.85
610.30	29804.38
610.46	30125.04
610.61	30249.08
610.76	30017.37
610.92	29537.56
611.07	30052.48
611.23	29692.04
611.38	29701.40
611.54	29661.61
611.69	29366.70
611.84	29851.19
612.00	29776.30
612.15	29551.60
612.31	30106.31
612.46	29727.14
612.62	29916.73
612.77	30010.35
612.92	29930.77
613.08	29916.73
613.23	29556.28
613.39	29266.06
613.54	29649.91
613.69	29745.87
613.85	29436.92
614.00	29308.19
614.15	29724.80
614.31	29411.17
614.46	29818.42
614.62	29406.49
614.77	29846.51
614.92	29563.31
615.08	29736.51
615.23	29237.97
615.38	29823.11
615.54	29387.77
615.69	29390.11
615.84	29333.93
616.00	29195.84
616.15	29146.69
616.30	29369.04
616.46	29495.43
616.61	29390.11
616.76	29717.78
616.92	29446.28
617.07	29474.37
617.22	29235.63
617.37	29500.11
617.53	29511.81
617.68	29230.95
617.83	29301.17
617.99	29387.77
618.14	29202.86
618.29	29387.77
618.45	29078.82
618.60	29165.42
618.75	29465.00
618.90	29039.03
619.06	29462.66
619.21	29097.54
619.36	29200.52
619.51	28814.34
619.67	28840.08
619.82	29048.39
619.97	29205.20
620.12	28819.02
620.28	29081.16
620.43	29273.08
620.58	29106.90
620.73	29076.48
620.89	29088.18
621.04	29457.98
621.19	28933.70
621.34	29273.08
621.49	28739.44
621.65	28877.53
621.80	28872.85
621.95	28617.73
622.10	28849.44
622.25	28933.70
622.41	28922.00
622.56	28872.85
622.71	29177.12
622.86	28903.28
623.01	28629.43
623.16	28861.15
623.32	28627.09
623.47	28833.06
623.62	28648.16
623.77	28554.54
623.92	28779.23
624.07	28418.78
624.23	28727.74
624.38	28774.55
624.53	28697.31
624.68	28655.18
624.83	28671.56
624.98	28837.74
625.13	28577.94
625.29	28601.35
625.44	28451.55
625.59	28517.09
625.74	28456.23
625.89	28627.09
626.04	28187.07
626.19	28306.44
626.34	28421.13
626.49	28168.35
626.65	28521.77
626.80	28496.02
626.95	28411.76
627.10	28467.94
627.25	28088.77
627.40	28196.43
627.55	28044.30
627.70	28116.86
627.85	28311.12
628.00	28140.26
628.15	28081.75
628.30	27997.49
628.45	28079.41
628.60	27875.78
628.76	27892.16
628.91	28332.18
629.06	27843.01
629.21	28404.74
629.36	27828.97
629.51	28105.15
629.66	28158.99
629.81	27775.14
629.96	27817.27
630.11	27503.64
630.26	27475.55
630.41	27831.31
630.56	27627.68
630.71	27913.23
630.86	28189.41
631.01	28208.14
631.16	27819.61
631.31	28048.98
631.46	27285.97
631.61	27454.48
631.76	27630.02
631.91	27814.93
632.06	27779.82
632.21	27803.22
632.36	27410.01
632.51	27391.29
632.66	27201.71
632.81	27215.75
632.96	27805.56
633.10	27889.82
633.25	27880.46
633.40	27494.27
633.55	27604.28
633.70	27800.88
633.85	27222.77
634.00	27147.87
634.15	27421.72
634.30	27206.39
634.45	27578.53
634.60	27222.77
634.75	27318.73
634.90	27428.74
635.05	27585.55
635.19	27477.89
635.34	27538.74
635.49	27608.96
635.64	27831.31
635.79	27410.01
635.94	27122.13
636.09	27410.01
636.24	27431.08
636.39	26969.99
636.53	27136.17
636.68	27166.60
636.83	27246.18
636.98	27714.28
637.13	26890.41
637.28	27599.60
637.43	27491.93
637.57	27391.29
637.72	27222.77
637.87	27398.31
638.02	26733.60
638.17	27117.45
638.32	26712.53
638.46	26757.00
638.61	26604.87
638.76	26895.10
638.91	26979.36
639.06	26878.71
639.20	27143.19
639.35	27049.57
639.50	27065.96
639.65	26920.84
639.80	27117.45
639.94	27005.10
640.09	26883.39
640.24	27047.23
640.39	26909.14
640.54	26771.05
640.68	27042.55
640.83	26511.25
640.98	26471.46
641.13	26424.65
641.27	26789.77
641.42	26609.55
641.57	26544.02
641.72	26679.77
641.86	26211.66
642.01	26562.74
642.16	26541.68
642.31	26279.54
642.45	26504.23
642.60	26452.73
642.75	26277.19
642.90	26106.34
643.04	26260.81
643.19	26209.32
643.34	26747.64
643.48	26368.48
643.63	26644.66
643.78	26394.22
643.93	26473.80
644.07	26490.18
644.22	26375.50
644.37	26518.27
644.51	26246.77
644.66	26221.02
644.81	26405.92
644.95	26047.82
645.10	26176.55
645.25	26239.75
645.39	26396.56
645.54	26246.77
645.69	26103.99
645.83	26359.11
645.98	26291.24
646.13	26302.94
646.27	26143.78
646.42	26136.76
646.57	26075.91
646.71	25965.90
646.86	26059.52
647.00	26127.40
647.15	25933.14
647.30	26338.05
647.44	25757.60
647.59	26295.92
647.74	25867.60
647.88	26113.36
648.03	26010.37
648.17	26157.83
648.32	26008.03
648.47	26235.06
648.61	26038.46
648.76	25933.14
648.90	25947.18
649.05	26204.64
649.20	25434.60
649.34	25603.12
649.49	25591.42
649.63	25324.60
649.78	25411.20
649.92	25434.60
650.07	26024.42
650.21	25640.57
650.36	25942.50
650.51	25591.42
650.65	25685.04
650.80	25586.74
650.94	25979.95
651.09	25465.03
651.23	25556.31
651.38	25886.32
651.52	25441.62
651.67	25785.68
651.81	25649.93
651.96	25371.41
652.10	25745.89
652.25	25212.25
652.39	25715.47
652.54	25301.19
652.68	25256.72
652.83	25514.18
652.97	25645.25
653.12	25336.30
653.26	25516.52
653.41	25247.36
653.55	25434.60
653.70	25202.89
653.84	25394.81
653.99	25429.92
654.13	25252.04
654.27	25202.89
654.42	25200.55
654.56	25427.58
654.71	25317.57
654.85	25062.46
655.00	25137.35
655.14	25436.94
655.29	24917.34
655.43	24987.56
655.57	25376.09
655.72	24865.85
655.86	24950.11
656.01	25013.31
656.15	24748.82
656.30	24865.85
656.44	24816.70
656.58	24702.01
656.73	24959.47
656.87	25039.05
657.01	24826.06
657.16	24779.25
657.30	24854.15
657.45	25135.01
657.59	24933.73
657.73	25202.89
657.88	24950.11
658.02	24957.13
658.16	24521.79
658.31	24622.44
658.45	24760.53
658.60	24119.22
658.74	24652.86
658.88	24575.62
659.03	24276.04
659.17	24592.01
659.31	24521.79
659.46	24767.55
659.60	24758.19
659.74	24627.12
659.89	24538.18
660.03	24374.34
660.17	24474.98
660.32	24369.66
660.46	23950.70
660.60	24077.09
660.74	23892.19
660.89	24261.99
661.03	24030.28
661.17	24184.76
661.32	24226.89
661.46	24130.92
661.60	24151.99
661.74	24222.20
661.89	23791.55
662.03	24016.24
662.17	23941.34
662.31	23721.33
662.46	24184.76
662.60	24049.00
662.74	23917.93
662.88	23669.84
663.03	23442.81
663.17	23377.27
663.31	23367.91
663.45	23559.83
663.60	23550.47
663.74	23522.38
663.88	23803.25
664.02	23309.40
664.17	23845.38
664.31	23491.96
664.45	23592.60
664.59	23580.90
664.73	23484.94
664.88	23379.61
665.02	23218.11
665.16	23398.34
665.30	23255.56
665.44	23037.89
665.59	22850.65
665.73	23087.04
665.87	22841.29
666.01	23115.13
666.15	23349.18
666.29	22932.57
666.44	23456.85
666.58	22745.33
666.72	22895.12
666.86	23077.68
667.00	23044.91
667.14	22986.40
667.28	22511.27
667.43	22675.11
667.57	22820.22
667.71	22801.50
667.85	22801.50
667.99	22698.52
668.13	22728.94
668.27	22651.70
668.41	22724.26
668.56	22544.04
668.70	22391.91
668.84	22752.35
668.98	22670.43
669.12	22693.83
669.26	22616.60
669.40	22396.59
669.54	22228.07
669.68	22422.33
669.82	22111.04
669.96	22242.11
670.10	21734.21
670.25	22277.22
670.39	22015.08
670.53	21766.98
670.67	21961.25
670.81	22115.72
670.95	22288.92
671.09	21982.31
671.23	21797.41
671.37	21984.65
671.51	21682.72
671.65	21921.46
671.79	21783.37
671.93	21804.43
672.07	22008.06
672.21	21900.39
672.35	21661.66
672.49	21401.86
672.63	21268.45
672.77	21476.76
672.91	21511.86
673.05	21331.64
673.19	21640.59
673.33	21392.50
673.47	21369.09
673.61	21397.18
673.75	21415.90
673.89	20950.14
674.03	21345.69
674.17	21050.78
674.31	20858.85
674.45	21177.17
674.59	21202.91
674.73	21202.91
674.87	20744.17
675.01	20716.08
675.15	20613.10
675.29	20514.80
675.43	20891.62
675.56	20790.98
675.70	20741.83
675.84	20582.67
675.98	20121.59
676.12	20968.86
676.26	20809.70
676.40	20650.55
676.54	20617.78
676.68	20554.58
676.82	20098.18
676.96	20210.53
677.10	19880.51
677.23	20116.90
677.37	19960.09
677.51	19667.52
677.65	19796.25
677.79	19852.42
677.93	19641.78
678.07	19403.04
678.21	19840.72
678.34	19491.98
678.48	19456.87
678.62	19616.03
678.76	19463.90
678.90	19159.63
679.04	19323.46
679.18	19330.48
679.31	19208.78
679.45	18916.21
679.59	19150.26
679.73	19250.91
679.87	19040.26
680.00	18759.39
680.14	18771.10
680.28	18782.80
680.42	18895.14
680.56	19042.60
680.70	18712.58
680.83	18782.80
680.97	18478.53
681.11	18565.13
681.25	18649.39
681.39	18647.05
681.52	18644.71
681.66	18361.50
681.80	18178.94
681.94	18293.63
682.07	18230.43
682.21	17958.93
682.35	17811.48
682.49	18101.70
682.62	17991.70
682.76	17633.60
682.90	18097.02
683.04	17972.97
683.17	17827.86
683.31	17547.00
683.45	17696.79
683.59	17745.94
683.72	17694.45
683.86	17525.93
684.00	17319.96
684.13	17366.78
684.27	17380.82
684.41	17003.99
684.55	16812.07
684.68	16952.50
684.82	16872.92
684.96	16854.20
685.09	16978.25
685.23	16765.26
685.37	16945.48
685.50	17160.81
685.64	16957.18
685.78	16833.13
685.91	16805.05
686.05	16725.47
686.19	16594.40
686.32	16599.08
686.46	16423.54
686.60	16257.36
686.73	16477.37
686.87	16109.91
687.01	16147.36
687.14	16372.05
687.28	15990.54
687.42	15892.24
687.55	16077.14
687.69	16042.03
687.82	16287.79
687.96	15885.22
688.10	16088.84
688.23	15873.51
688.37	15470.94
688.50	15623.08
688.64	15461.58
688.78	15700.31
688.91	15840.75
689.05	15227.53
689.18	15239.23
689.32	14911.55
689.46	15250.93
689.59	15314.13
689.73	14881.13
689.86	15180.71
690.00	15208.80
690.13	15129.22
690.27	14977.09
690.41	15059.01
690.54	14892.83
690.68	15009.86
690.81	14965.39
690.95	14822.61
691.08	14813.25
691.22	14736.01
691.35	14698.56
691.49	14689.20
691.62	14555.79
691.76	14228.12
691.89	14450.47
692.03	14230.46
692.16	13991.72
692.30	14127.47
692.43	13813.84
692.57	13825.54
692.70	13968.32
692.84	14104.07
692.97	13940.23
693.11	14047.90
693.24	13827.88
693.38	13692.13
693.51	13785.76
693.65	13797.46
693.78	13741.29
693.92	13832.57
694.05	13666.39
694.19	13591.49
694.32	13504.89
694.45	13497.87
694.59	12950.18
694.72	13139.77
694.86	13163.17
694.99	13170.19
695.13	12959.55
695.26	12924.44
695.39	13027.42
695.53	13071.89
695.66	12814.43
695.80	12868.27
695.93	13076.57
696.07	12926.78
696.20	12791.03
696.33	13069.55
696.47	12746.56
696.60	12737.20
696.73	12575.70
696.87	12414.20
697.00	12285.47
697.14	12351.01
697.27	12271.43
697.40	12432.93
697.54	12416.54
697.67	12049.08
697.80	12123.98
697.94	12035.03
698.07	11861.84
698.21	12030.35
698.34	11906.31
698.47	12126.32
698.61	11939.07
698.74	11939.07
698.87	11962.48
699.01	11857.15
699.14	11606.72
699.27	11843.11
699.40	11747.15
699.54	11599.70
699.67	11555.22
699.80	11346.92
699.94	11367.98
700.07	11112.86
700.20	11211.17
700.34	11360.96
700.47	11030.94
700.60	11236.91
700.73	11232.23
700.87	11044.99
701.00	11026.26
701.13	11110.52
701.26	11042.65
701.40	11096.48
701.53	10817.96
701.66	10874.13
701.79	10523.05
701.93	10764.12
702.06	10490.28
702.19	10626.03
702.32	10546.45
702.46	10373.25
702.59	10272.61
702.72	10267.93
702.85	10396.66
702.99	10263.25
703.12	10104.09
703.25	10326.44
703.38	10314.74
703.51	10080.69
703.65	10136.86
703.78	10225.80
703.91	9987.07
704.04	9923.87
704.17	10078.35
704.31	10104.09
704.44	10129.84
704.57	9635.99
704.70	9856.00
704.83	9621.94
704.96	9617.26
705.10	9533.00
705.23	9528.32
>>>>>End Processed Spectral Data<<<<<
