SpectraSuite Data File
++++++++++++++++++++++++++++++++++++
Date: Fri Oct 18 13:58:10 GMT-05:00 2013
User: bianchi
Dark Spectrum Present: No
Reference Spectrum Present: No
Number of Sampled Component Spectra: 1
Spectrometers: USB2+H05261
Integration Time (usec): 50000 (USB2+H05261)
Spectra Averaged: 1 (USB2+H05261)
Boxcar Smoothing: 0 (USB2+H05261)
Correct for Electrical Dark: No (USB2+H05261)
Strobe/Lamp Enabled: No (USB2+H05261)
Correct for Detector Non-linearity: No (USB2+H05261)
Correct for Stray Light: No (USB2+H05261)
Number of Pixels in Processed Spectrum: 2048
>>>>>Begin Processed Spectral Data<<<<<
365.73	0.00
365.92	0.00
366.12	0.00
366.32	0.00
366.52	0.00
366.72	0.00
366.91	0.00
367.11	0.00
367.31	0.00
367.51	0.00
367.70	0.00
367.90	0.00
368.10	0.00
368.30	0.00
368.49	0.00
368.69	0.00
368.89	0.00
369.09	0.00
369.28	0.00
369.48	0.00
369.68	0.00
369.87	0.00
370.07	0.00
370.27	0.00
370.47	0.00
370.66	28.09
370.86	88.94
371.06	175.54
371.25	173.20
371.45	154.48
371.65	163.84
371.84	156.82
372.04	124.05
372.24	152.13
372.44	173.20
372.63	222.35
372.83	212.99
373.03	220.01
373.22	220.01
373.42	208.31
373.62	229.37
373.81	156.82
374.01	205.97
374.21	280.86
374.40	217.67
374.60	227.03
374.79	208.31
374.99	271.50
375.19	231.71
375.38	287.89
375.58	257.46
375.78	308.95
375.97	250.44
376.17	334.70
376.37	201.29
376.56	208.31
376.76	217.67
376.95	276.18
377.15	252.78
377.35	285.55
377.54	327.68
377.74	273.84
377.93	283.20
378.13	255.12
378.33	278.52
378.52	262.14
378.72	294.91
378.91	301.93
379.11	255.12
379.31	264.48
379.50	311.29
379.70	294.91
379.89	290.23
380.09	290.23
380.28	330.02
380.48	334.70
380.68	318.31
380.87	315.97
381.07	271.50
381.26	348.74
381.46	404.91
381.65	353.42
381.85	320.65
382.04	322.99
382.24	255.12
382.43	435.34
382.63	311.29
382.83	397.89
383.02	325.33
383.22	348.74
383.41	395.55
383.61	409.59
383.80	383.85
384.00	374.49
384.19	374.49
384.39	360.44
384.58	379.17
384.78	379.17
384.97	425.98
385.17	376.83
385.36	411.93
385.56	407.25
385.75	395.55
385.95	390.87
386.14	430.66
386.34	437.68
386.53	367.46
386.72	433.00
386.92	451.72
387.11	421.30
387.31	423.64
387.50	360.44
387.70	456.40
387.89	440.02
388.09	472.79
388.28	463.43
388.48	369.80
388.67	505.56
388.86	470.45
389.06	468.11
389.25	486.83
389.45	528.96
389.64	496.19
389.84	477.47
390.03	477.47
390.22	482.15
390.42	540.66
390.61	517.26
390.81	468.11
391.00	454.06
391.19	519.60
391.39	531.30
391.58	491.51
391.78	491.51
391.97	582.79
392.16	468.11
392.36	578.11
392.55	613.22
392.75	589.82
392.94	543.00
393.13	521.94
393.33	606.20
393.52	697.48
393.71	645.99
393.91	566.41
394.10	622.58
394.29	636.63
394.49	704.50
394.68	638.97
394.88	634.29
395.07	582.79
395.26	641.31
395.46	615.56
395.65	615.56
395.84	620.24
396.04	723.23
396.23	636.63
396.42	552.37
396.62	617.90
396.81	631.94
397.00	564.07
397.19	669.39
397.39	660.03
397.58	716.20
397.77	739.61
397.97	690.46
398.16	688.12
398.35	716.20
398.55	692.80
398.74	723.23
398.93	711.52
399.12	770.04
399.32	748.97
399.51	767.70
399.70	791.10
399.90	711.52
400.09	760.67
400.28	751.31
400.47	786.42
400.67	699.82
400.86	819.19
401.05	833.23
401.24	805.14
401.44	870.68
401.63	840.25
401.82	763.01
402.01	758.33
402.21	898.77
402.40	924.51
402.59	908.13
402.78	926.85
402.97	898.77
403.17	802.80
403.36	873.02
403.55	910.47
403.74	933.87
403.93	889.40
404.13	971.32
404.32	924.51
404.51	863.66
404.70	992.39
404.89	868.34
405.09	947.92
405.28	905.79
405.47	973.66
405.66	959.62
405.85	936.21
406.05	992.39
406.24	983.02
406.43	980.68
406.62	1060.26
406.81	1083.67
407.00	1025.15
407.20	1102.39
407.39	992.39
407.58	1041.54
407.77	1104.73
407.96	1053.24
408.15	1095.37
408.34	1093.03
408.54	1100.05
408.73	1107.07
408.92	1156.22
409.11	1137.50
409.30	1160.91
409.49	1174.95
409.68	1196.01
409.87	1107.07
410.07	1170.27
410.26	1217.08
410.45	1139.84
410.64	1217.08
410.83	1181.97
411.02	1149.20
411.21	1275.59
411.40	1273.25
411.59	1299.00
411.78	1322.40
411.98	1242.82
412.17	1345.81
412.36	1252.19
412.55	1355.17
412.74	1355.17
412.93	1308.36
413.12	1240.48
413.31	1404.32
413.50	1390.28
413.69	1434.75
413.88	1439.43
414.07	1406.66
414.26	1476.88
414.45	1507.30
414.64	1462.83
414.83	1521.35
415.02	1472.20
415.22	1570.50
415.41	1537.73
415.60	1486.24
415.79	1556.46
415.98	1617.31
416.17	1621.99
416.36	1535.39
416.55	1610.29
416.74	1689.87
416.93	1633.69
417.12	1767.10
417.31	1664.12
417.50	1760.08
417.69	1834.98
417.88	1781.15
418.07	1736.68
418.26	1788.17
418.45	1809.23
418.64	1865.41
418.83	1867.75
419.02	1757.74
419.21	1891.15
419.39	1827.96
419.58	1764.76
419.77	1832.64
419.96	1853.70
420.15	1919.24
420.34	1989.46
420.53	1900.52
420.72	1933.28
420.91	1959.03
421.10	1952.01
421.29	2012.86
421.48	1919.24
421.67	1970.73
421.86	1933.28
422.05	2083.08
422.24	1989.46
422.43	2090.10
422.61	2031.58
422.80	2054.99
422.99	2080.74
423.18	2059.67
423.37	2083.08
423.56	2078.40
423.75	1998.82
423.94	1996.48
424.13	1912.22
424.32	1921.58
424.50	2122.87
424.69	2008.18
424.88	2113.50
425.07	2094.78
425.26	2026.90
425.45	2026.90
425.64	2092.44
425.83	2150.95
426.01	2251.60
426.20	2071.37
426.39	2118.18
426.58	2031.58
426.77	2050.31
426.96	2190.74
427.15	2062.01
427.33	2230.53
427.52	2169.68
427.71	2207.13
427.90	2064.35
428.09	2228.19
428.28	2228.19
428.46	2214.15
428.65	2218.83
428.84	2319.47
429.03	2270.32
429.22	2239.89
429.40	2324.15
429.59	2303.09
429.78	2155.63
429.97	2244.57
430.16	2293.72
430.34	2370.96
430.53	2342.88
430.72	2476.29
430.91	2312.45
431.10	2408.41
431.28	2452.88
431.47	2396.71
431.66	2502.03
431.85	2361.60
432.03	2410.75
432.22	2555.86
432.41	2574.59
432.60	2434.16
432.79	2602.68
432.97	2452.88
433.16	2459.90
433.35	2495.01
433.54	2452.88
433.72	2504.37
433.91	2614.38
434.10	2621.40
434.28	2523.10
434.47	2555.86
434.66	2712.68
434.85	2696.30
435.03	2696.30
435.22	2628.42
435.41	2752.47
435.59	2621.40
435.78	2647.15
435.97	2551.18
436.16	2722.04
436.34	2789.92
436.53	2904.60
436.72	2806.30
436.90	2668.21
437.09	2818.00
437.28	2682.25
437.46	2773.53
437.65	2773.53
437.84	2808.64
438.02	2874.18
438.21	2864.82
438.40	2892.90
438.58	2902.26
438.77	2986.52
438.96	2892.90
439.14	2928.01
439.33	2942.05
439.52	3012.27
439.70	3077.80
439.89	3080.14
440.08	3143.34
440.26	3112.91
440.45	3138.66
440.63	3124.62
440.82	3080.14
441.01	3148.02
441.19	3115.25
441.38	3159.72
441.57	3290.79
441.75	3248.66
441.94	3414.84
442.12	3414.84
442.31	3262.71
442.50	3442.93
442.68	3454.63
442.87	3365.69
443.05	3227.60
443.24	3407.82
443.43	3520.17
443.61	3499.10
443.80	3419.52
443.98	3356.33
444.17	3302.50
444.35	3372.71
444.54	3625.49
444.73	3536.55
444.91	3489.74
445.10	3471.01
445.28	3527.19
445.47	3370.37
445.65	3478.04
445.84	3536.55
446.02	3564.64
446.21	3358.67
446.39	3508.46
446.58	3625.49
446.77	3740.18
446.95	3475.70
447.14	3520.17
447.32	3590.38
447.51	3541.23
447.69	3590.38
447.88	3637.19
448.06	3442.93
448.25	3585.70
448.43	3646.55
448.62	3487.40
448.80	3627.83
448.99	3709.75
449.17	3695.71
449.36	3576.34
449.54	3709.75
449.73	3836.14
449.91	3695.71
450.10	3803.37
450.28	3801.03
450.46	3716.77
450.65	3714.43
450.83	3784.65
451.02	3726.13
451.20	3871.25
451.39	3714.43
451.57	3911.04
451.76	3829.12
451.94	3709.75
452.13	4049.13
452.31	3936.78
452.49	3761.24
452.68	3908.69
452.86	3974.23
453.05	3913.38
453.23	3976.57
453.42	3882.95
453.60	3889.97
453.78	3946.14
453.97	3878.27
454.15	4023.38
454.34	3990.61
454.52	4308.93
454.70	4049.13
454.89	4131.05
455.07	4161.47
455.26	4194.24
455.44	4117.00
455.62	4004.66
455.81	4140.41
455.99	4154.45
456.17	4238.71
456.36	4290.20
456.54	4285.52
456.73	4334.67
456.91	4227.01
457.09	4423.61
457.28	4395.53
457.46	4374.46
457.64	4402.55
457.83	4442.34
458.01	4273.82
458.19	4456.38
458.38	4308.93
458.56	4505.53
458.74	4430.63
458.93	4489.15
459.11	4578.09
459.29	4407.23
459.48	4657.67
459.66	4505.53
459.84	4601.49
460.03	4676.39
460.21	4641.28
460.39	4571.07
460.57	4664.69
460.76	4526.60
460.94	4720.86
461.12	4655.33
461.31	4788.74
461.49	4809.80
461.67	4760.65
461.85	4849.59
462.04	4821.50
462.22	5114.07
462.40	4833.21
462.59	4802.78
462.77	4887.04
462.95	4851.93
463.13	4830.87
463.32	4947.89
463.50	4870.65
463.68	4975.98
463.86	4884.70
464.05	4957.25
464.23	4940.87
464.41	4931.51
464.59	4891.72
464.78	5074.28
464.96	4908.10
465.14	5043.85
465.32	4971.30
465.50	4987.68
465.69	5083.64
465.87	5062.58
466.05	5029.81
466.23	5149.18
466.41	5090.67
466.60	5273.23
466.78	5046.20
466.96	5006.41
467.14	5217.05
467.32	5146.84
467.51	5322.38
467.69	5188.97
467.87	5270.89
468.05	5240.46
468.23	5165.56
468.41	5231.10
468.60	5214.71
468.78	5425.36
468.96	5313.02
469.14	5467.49
469.32	5416.00
469.50	5336.42
469.69	5404.30
469.87	5521.32
470.05	5575.16
470.23	5596.22
470.41	5584.52
470.59	5523.66
470.77	5626.65
470.95	5554.09
471.14	5771.76
471.32	5579.84
471.50	5664.10
471.68	5675.80
471.86	5760.06
472.04	5692.18
472.22	5914.53
472.40	5643.03
472.58	5727.29
472.77	5621.97
472.95	5970.71
473.13	6183.70
473.31	5973.05
473.49	5959.00
473.67	6036.24
473.85	6076.03
474.03	6279.66
474.21	6073.69
474.39	6211.78
474.57	6193.06
474.75	6317.11
474.93	6377.96
475.12	6305.40
475.30	6342.85
475.48	6427.11
475.66	6396.68
475.84	6349.87
476.02	6457.54
476.20	6492.65
476.38	6579.25
476.56	6677.55
476.74	6520.73
476.92	6715.00
477.10	6633.08
477.28	6593.29
477.46	6773.51
477.64	6895.22
477.82	7007.56
478.00	7021.61
478.18	7101.19
478.36	7126.93
478.54	7052.03
478.72	7265.02
478.90	7241.62
479.08	7405.46
479.26	7529.50
479.44	7393.75
479.62	7517.80
479.80	7548.23
479.98	7571.63
480.16	7620.78
480.34	7536.52
480.52	7735.47
480.70	7953.14
480.88	7660.57
481.06	7974.21
481.24	7925.05
481.41	8063.15
481.59	8081.87
481.77	8231.66
481.95	8126.34
482.13	8100.59
482.31	8140.38
482.49	8397.84
482.67	8318.26
482.85	8521.89
483.03	8564.02
483.21	8723.18
483.39	8681.05
483.57	8498.49
483.74	8842.54
483.92	8781.69
484.10	8727.86
484.28	9109.36
484.46	9202.99
484.64	9348.10
484.82	9139.79
485.00	9394.91
485.18	9364.48
485.35	9577.47
485.53	9675.77
485.71	9591.52
485.89	9729.61
486.07	9888.76
486.25	9839.61
486.43	9811.53
486.61	10036.22
486.78	10101.75
486.96	10354.53
487.14	10178.99
487.32	10260.91
487.50	10637.73
487.68	10607.31
487.85	10555.82
488.03	10597.95
488.21	10600.29
488.39	10850.72
488.57	10951.37
488.75	11094.14
488.92	11105.84
489.10	11129.25
489.28	11037.97
489.46	11279.04
489.64	11026.26
489.81	11524.80
489.99	11447.56
490.17	11529.48
490.35	11632.46
490.53	11702.68
490.70	11803.32
490.88	11859.49
491.06	12154.40
491.24	12006.95
491.41	12074.82
491.59	12170.79
491.77	12341.64
491.95	12262.07
492.13	12400.16
492.30	12578.04
492.48	12489.10
492.66	12636.55
492.84	12446.97
493.01	12624.85
493.19	12798.05
493.37	13186.58
493.54	13188.92
493.72	12992.31
493.90	13020.40
494.08	13205.30
494.25	13399.57
494.43	13444.04
494.61	13565.74
494.79	13626.60
494.96	13429.99
495.14	13511.91
495.32	13752.99
495.49	13907.46
495.67	13893.42
495.85	13926.19
496.02	14132.15
496.20	14185.99
496.38	14045.55
496.55	14209.39
496.73	14569.83
496.91	14452.81
497.09	14473.87
497.26	14817.93
497.44	14635.37
497.62	14513.66
497.79	14618.99
497.97	14799.21
498.14	15073.05
498.32	15077.73
498.50	15089.43
498.67	15255.61
498.85	15374.98
499.03	15424.13
499.20	15503.71
499.38	15545.84
499.56	15555.20
499.73	15337.53
499.91	15651.16
500.08	15585.63
500.26	15573.92
500.44	15817.34
500.61	15557.54
500.79	15843.09
500.97	16208.21
501.14	16290.13
501.32	16079.48
501.49	16056.08
501.67	16128.63
501.84	16402.47
502.02	16343.96
502.20	16599.08
502.37	16706.74
502.55	16652.91
502.72	16226.93
502.90	16634.19
503.07	16566.31
503.25	16397.79
503.43	16739.51
503.60	16945.48
503.78	16982.93
503.95	17006.33
504.13	17015.69
504.30	16898.67
504.48	16919.73
504.65	17219.32
504.83	17240.39
505.01	17467.42
505.18	17404.22
505.36	17703.81
505.53	17575.08
505.71	17352.73
505.88	17689.77
506.06	17635.94
506.23	17708.49
506.41	17619.55
506.58	17757.64
506.76	17689.77
506.93	17848.93
507.11	17738.92
507.28	17734.24
507.46	18061.91
507.63	17781.05
507.81	18167.24
507.98	18066.60
508.16	18134.47
508.33	18164.90
508.50	18314.69
508.68	18717.26
508.85	18640.03
509.03	18649.39
509.20	18427.04
509.38	18670.45
509.55	18766.42
509.73	18574.49
509.90	18548.75
510.08	18714.92
510.25	18747.69
510.42	18965.36
510.60	19531.77
510.77	19035.58
510.95	19147.92
511.12	18916.21
511.30	19063.66
511.47	19136.22
511.64	19080.05
511.82	19384.32
511.99	19152.60
512.17	19777.53
512.34	19559.86
512.51	19414.74
512.69	19501.34
512.86	19716.67
513.04	19777.53
513.21	19953.07
513.38	19840.72
513.56	19770.51
513.73	19716.67
513.90	19791.57
514.08	19803.27
514.25	20290.10
514.43	20273.72
514.60	20245.63
514.77	20257.34
514.95	20528.84
515.12	20166.06
515.29	20343.94
515.47	20631.82
515.64	20367.34
515.81	20269.04
515.99	20645.87
516.16	20697.36
516.33	20917.37
516.51	20676.29
516.68	20702.04
516.85	20744.17
517.03	20711.40
517.20	21003.97
517.37	21139.72
517.54	20856.51
517.72	21025.03
517.89	21226.32
518.06	21144.40
518.24	21092.91
518.41	21287.17
518.58	21282.49
518.75	21235.68
518.93	21441.65
519.10	21703.79
519.27	21628.89
519.45	21502.50
519.62	21406.54
519.79	21432.29
519.96	21462.71
520.14	21839.54
520.31	21799.75
520.48	21823.16
520.65	21598.46
520.83	21701.45
521.00	22139.13
521.17	21926.14
521.34	22106.36
521.52	21975.29
521.69	22195.30
521.86	21994.01
522.03	22415.31
522.20	22445.74
522.38	22319.35
522.55	22396.59
522.72	22459.78
522.89	22396.59
523.07	22445.74
523.24	22588.51
523.41	22848.31
523.58	22677.45
523.75	22759.37
523.92	22537.02
524.10	22787.46
524.27	22822.56
524.44	22817.88
524.61	22869.37
524.78	23047.26
524.96	22754.69
525.13	23180.67
525.30	23246.20
525.47	23248.54
525.64	23115.13
525.81	22984.06
525.98	23592.60
526.16	23133.86
526.33	23461.53
526.50	23587.92
526.67	23407.70
526.84	23470.89
527.01	23157.26
527.18	23405.36
527.36	23538.77
527.53	23257.90
527.70	23796.23
527.87	23697.92
528.04	23665.16
528.21	23756.44
528.38	23737.71
528.55	23885.17
528.72	24102.84
528.89	23831.33
529.07	23810.27
529.24	23742.39
529.41	23784.52
529.58	23833.68
529.75	23854.74
529.92	24226.89
530.09	24212.84
530.26	24166.03
530.43	24194.12
530.60	24325.19
530.77	24505.41
530.94	24046.66
531.11	24203.48
531.28	24308.80
531.46	24151.99
531.63	24194.12
531.80	24739.46
531.97	25106.93
532.14	24797.98
532.31	24769.89
532.48	24812.02
532.65	24915.00
532.82	24343.91
532.99	24666.91
533.16	24470.30
533.33	24823.72
533.50	25015.65
533.67	25032.03
533.84	25230.98
534.01	24765.21
534.18	24828.40
534.35	24865.85
534.52	24940.75
534.69	25326.94
534.86	25235.66
535.03	24994.58
535.20	25205.23
535.37	25207.57
535.54	25308.21
535.71	25050.75
535.88	25521.20
536.05	25123.31
536.22	25598.44
536.38	25888.67
536.55	25902.71
536.72	25743.55
536.89	25504.82
537.06	25729.51
537.23	25851.22
537.40	25586.74
537.57	25635.89
537.74	25755.26
537.91	25972.92
538.08	25900.37
538.25	25806.75
538.42	26075.91
538.59	26244.43
538.75	25701.42
538.92	25947.18
539.09	26331.03
539.26	25979.95
539.43	26230.38
539.60	26033.78
539.77	26059.52
539.94	26066.55
540.11	26242.09
540.28	26251.45
540.44	26291.24
540.61	26059.52
540.78	26195.28
540.95	26375.50
541.12	26153.15
541.29	26597.85
541.46	26520.61
541.62	26380.18
541.79	26450.39
541.96	26312.30
542.13	26384.86
542.30	26164.85
542.47	26672.74
542.63	26677.43
542.80	26735.94
542.97	27239.15
543.14	26951.27
543.31	26583.80
543.48	26944.25
543.64	27084.68
543.81	27154.90
543.98	26892.76
544.15	27264.90
544.32	27140.85
544.48	27220.43
544.65	27157.24
544.82	27466.19
544.99	26761.69
545.16	27470.87
545.32	27051.91
545.49	27353.84
545.66	27536.40
545.83	27524.70
546.00	27491.93
546.16	27487.25
546.33	27218.09
546.50	26883.39
546.67	27438.10
546.83	27103.40
547.00	27356.18
547.17	27400.65
547.34	27604.28
547.50	27672.15
547.67	27889.82
547.84	27866.42
548.00	27927.27
548.17	27976.42
548.34	27613.64
548.51	28002.17
548.67	27950.68
548.84	28177.71
549.01	27859.40
549.18	27906.21
549.34	27903.87
549.51	27953.02
549.68	27625.34
549.84	27995.15
550.01	28126.22
550.18	27669.81
550.34	28196.43
550.51	28231.54
550.68	28465.60
550.84	27835.99
551.01	28151.96
551.18	27817.27
551.34	28278.35
551.51	28166.01
551.68	28226.86
551.84	28428.15
552.01	28400.06
552.18	28500.70
552.34	28327.50
552.51	28683.27
552.68	28680.92
552.84	28196.43
553.01	28411.76
553.18	28709.01
553.34	28531.13
553.51	28496.02
553.67	28924.34
553.84	28795.61
554.01	29191.16
554.17	29287.12
554.34	28765.18
554.51	28613.05
554.67	28856.46
554.84	28676.24
555.00	28758.16
555.17	29071.79
555.33	29008.60
555.50	28879.87
555.67	28484.32
555.83	29053.07
556.00	28828.38
556.16	29046.05
556.33	29149.03
556.50	28973.49
556.66	29109.24
556.83	28931.36
556.99	29359.68
557.16	29380.74
557.32	29450.96
557.49	29525.86
557.65	28900.94
557.82	29479.05
557.98	29111.58
558.15	28797.95
558.32	29603.10
558.48	29364.36
558.65	29195.84
558.81	29287.12
558.98	29151.37
559.14	29273.08
559.31	29156.05
559.47	29420.53
559.64	28898.59
559.80	29226.27
559.97	29610.12
560.13	29556.28
560.30	29675.65
560.46	29392.45
560.63	29380.74
560.79	29525.86
560.96	29699.06
561.12	29413.51
561.29	29518.84
561.45	29305.85
561.61	29762.25
561.78	29603.10
561.94	29347.98
562.11	29785.66
562.27	29673.31
562.44	29624.16
562.60	29750.55
562.77	29612.46
562.93	29764.59
563.10	30139.08
563.26	29490.75
563.42	29888.64
563.59	30043.12
563.75	29549.26
563.92	30036.09
564.08	29839.49
564.24	29532.88
564.41	29434.58
564.57	30080.56
564.74	29965.88
564.90	29738.85
565.07	29783.32
565.23	30316.96
565.39	29809.06
565.56	29975.24
565.72	29914.39
565.88	29982.26
566.05	29614.80
566.21	29942.47
566.38	29935.45
566.54	30302.92
566.70	30522.93
566.87	30073.54
567.03	30092.27
567.19	30265.47
567.36	30230.36
567.52	29827.79
567.68	30148.44
567.85	30157.80
568.01	29909.71
568.17	30057.16
568.34	29755.23
568.50	30256.11
568.66	30625.91
568.83	30174.19
568.99	30307.60
569.15	30553.35
569.32	30129.72
569.48	30155.46
569.64	30110.99
569.81	30162.48
569.97	30448.03
570.13	30380.15
570.30	29930.77
570.46	30387.18
570.62	30480.80
570.78	30253.76
570.95	30368.45
571.11	30218.66
571.27	30129.72
571.43	30022.05
571.60	30265.47
571.76	30462.07
571.92	29912.05
572.09	30206.95
572.25	30494.84
572.41	30635.27
572.57	30272.49
572.74	30492.50
572.90	30141.42
573.06	30375.47
573.22	30113.33
573.38	30429.30
573.55	30375.47
573.71	30874.01
573.87	30738.26
574.03	30338.02
574.20	30583.78
574.36	30052.48
574.52	30146.10
574.68	30218.66
574.84	30316.96
575.01	30478.46
575.17	30543.99
575.33	30431.65
575.49	30323.98
575.65	30661.02
575.82	30368.45
575.98	30663.36
576.14	30506.54
576.30	30501.86
576.46	30223.34
576.62	30464.41
576.79	30852.94
576.95	30656.34
577.11	30745.28
577.27	30874.01
577.43	30543.99
577.59	30831.88
577.75	29972.90
577.92	30567.40
578.08	30850.60
578.24	30132.06
578.40	30838.90
578.56	30625.91
578.72	30366.11
578.88	30698.47
579.04	31077.63
579.21	30756.98
579.37	30845.92
579.53	30670.38
579.69	30405.90
579.85	30251.42
580.01	30403.56
580.17	30354.41
580.33	30740.60
580.49	30679.74
580.65	30789.75
580.82	30747.62
580.98	30532.29
581.14	30361.43
581.30	31147.85
581.46	30293.55
581.62	30649.32
581.78	30244.40
581.94	30773.36
582.10	30801.45
582.26	30841.24
582.42	30548.67
582.58	30536.97
582.74	30625.91
582.90	30689.10
583.06	30981.67
583.22	30735.92
583.38	30562.72
583.54	30567.40
583.70	30881.03
583.86	30890.39
584.02	30513.56
584.18	31065.93
584.34	30717.19
584.50	31101.04
584.66	31133.81
584.82	30497.18
584.98	30721.87
585.14	30527.61
585.30	30923.16
585.46	30656.34
585.62	30838.90
585.78	30822.51
585.94	30558.03
586.10	30382.49
586.26	30441.01
586.42	30796.77
586.58	31187.64
586.74	30703.15
586.90	30609.53
587.06	30230.36
587.22	30920.82
587.38	30911.46
587.54	31124.44
587.70	30885.71
587.86	31000.40
588.02	30822.51
588.18	30794.43
588.34	31040.18
588.49	30881.03
588.65	30728.89
588.81	30862.30
588.97	30455.05
589.13	30740.60
589.29	30841.24
589.45	30850.60
589.61	31035.50
589.77	31033.16
589.93	31232.11
590.08	30864.64
590.24	31026.14
590.40	31157.21
590.56	31185.30
590.72	31023.80
590.88	30986.35
591.04	31159.55
591.20	31330.41
591.35	31257.85
591.51	31421.69
591.67	31260.20
591.83	31576.17
591.99	31236.79
592.15	30810.81
592.31	31302.32
592.46	31063.59
592.62	30551.01
592.78	31056.57
592.94	31075.29
593.10	31295.30
593.26	31297.64
593.41	31365.52
593.57	31374.88
593.73	31283.60
593.89	31047.21
594.05	31714.26
594.20	31253.17
594.36	30927.84
594.52	31058.91
594.68	31215.72
594.84	31204.02
594.99	30890.39
595.15	31283.60
595.31	31353.82
595.47	31323.39
595.62	31353.82
595.78	31339.77
595.94	30801.45
596.10	31377.22
596.25	31393.61
596.41	31189.98
596.57	31082.31
596.73	31180.62
596.88	31082.31
597.04	31353.82
597.20	31622.98
597.36	31447.44
597.51	31417.01
597.67	31260.20
597.83	31384.24
597.99	31117.42
598.14	31157.21
598.30	30780.39
598.46	31171.25
598.61	31316.37
598.77	31040.18
598.93	31400.63
599.09	31215.72
599.24	31819.58
599.40	31723.62
599.56	31503.61
599.71	31337.43
599.87	31225.09
600.03	31431.05
600.18	31290.62
600.34	31248.49
600.50	31173.60
600.65	31578.51
600.81	31791.50
600.97	31234.45
601.12	31578.51
601.28	31281.26
601.44	31358.50
601.59	31995.12
601.75	31363.18
601.91	31527.02
602.06	31337.43
602.22	31527.02
602.37	31285.94
602.53	31414.67
602.69	31887.46
602.84	31475.52
603.00	31447.44
603.16	31660.43
603.31	31473.18
603.47	31290.62
603.62	31283.60
603.78	31117.42
603.94	31234.45
604.09	31248.49
604.25	31108.06
604.40	31246.15
604.56	31501.27
604.71	31903.84
604.87	31718.94
605.03	31571.49
605.18	31426.37
605.34	31716.60
605.49	31578.51
605.65	31028.48
605.80	31077.63
605.96	31323.39
606.12	31288.28
606.27	31409.99
606.43	31307.01
606.58	32011.51
606.74	31667.45
606.89	31604.25
607.05	31201.68
607.20	31456.80
607.36	31372.54
607.51	31517.65
607.67	31091.68
607.82	31386.58
607.98	31309.35
608.13	31276.58
608.29	31049.55
608.44	30991.03
608.60	31278.92
608.75	31470.84
608.91	31346.79
609.06	31037.84
609.22	31381.90
609.37	30693.79
609.53	31433.39
609.68	30635.27
609.84	31229.77
609.99	31379.56
610.15	30855.28
610.30	30726.55
610.46	30864.64
610.61	31030.82
610.76	31494.25
610.92	31299.98
611.07	31211.04
611.23	30749.96
611.38	30904.43
611.54	30976.99
611.69	30974.65
611.84	30862.30
612.00	31049.55
612.15	30639.95
612.31	30485.48
612.46	31367.86
612.62	31229.77
612.77	30822.51
612.92	31091.68
613.08	31108.06
613.23	30649.32
613.39	30560.37
613.54	30560.37
613.69	30558.03
613.85	30480.80
614.00	30852.94
614.15	30984.01
614.31	30829.54
614.46	30857.62
614.62	30934.86
614.77	30874.01
614.92	30778.04
615.08	30993.37
615.23	30656.34
615.38	30644.63
615.54	30625.91
615.69	30373.13
615.84	30333.34
616.00	30490.16
616.15	30419.94
616.30	30487.82
616.46	30885.71
616.61	30803.79
616.76	30918.48
616.92	30871.67
617.07	30693.79
617.22	30686.76
617.37	30691.44
617.53	30487.82
617.68	30466.75
617.83	30473.78
617.99	30221.00
618.14	30686.76
618.29	30382.49
618.45	30359.09
618.60	30436.33
618.75	30066.52
618.90	30595.48
619.06	30340.36
619.21	30312.28
619.36	30459.73
619.51	30195.25
619.67	30169.51
619.82	30057.16
619.97	30319.30
620.12	30333.34
620.28	29785.66
620.43	29977.58
620.58	30246.74
620.73	30295.89
620.89	30333.34
621.04	30375.47
621.19	30352.07
621.34	29963.54
621.49	30302.92
621.65	29935.45
621.80	30218.66
621.95	30080.56
622.10	29820.77
622.25	29869.92
622.41	30321.64
622.56	30073.54
622.71	30080.56
622.86	30029.07
623.01	30260.79
623.16	29771.61
623.32	30022.05
623.47	29923.75
623.62	29516.50
623.77	30094.61
623.92	29797.36
624.07	30132.06
624.23	29832.47
624.38	29851.19
624.53	30279.51
624.68	29778.64
624.83	29802.04
624.98	30015.03
625.13	29670.97
625.29	29762.25
625.44	29727.14
625.59	29631.18
625.74	29818.42
625.89	29614.80
626.04	29582.03
626.19	29252.02
626.34	29670.97
626.49	29385.43
626.65	29483.73
626.80	29692.04
626.95	29792.68
627.10	29490.75
627.25	29504.79
627.40	29322.23
627.55	29427.56
627.70	29394.79
627.85	29095.20
628.00	29352.66
628.15	29230.95
628.30	29102.22
628.45	29186.48
628.60	29422.87
628.76	29319.89
628.91	29127.97
629.06	29237.97
629.21	29177.12
629.36	29340.96
629.51	29455.64
629.66	29198.18
629.81	28971.15
629.96	29097.54
630.11	29039.03
630.26	29029.66
630.41	29240.31
630.56	28849.44
630.71	28992.22
630.86	29186.48
631.01	29170.10
631.16	28793.27
631.31	28882.21
631.46	28701.99
631.61	29013.28
631.76	29331.59
631.91	28868.17
632.06	28772.21
632.21	28552.20
632.36	28713.69
632.51	28943.06
632.66	29060.09
632.81	28872.85
632.96	28842.42
633.10	28809.65
633.25	28816.68
633.40	28985.19
633.55	29029.66
633.70	28343.89
633.85	28517.09
634.00	28519.43
634.15	28685.61
634.30	28706.67
634.45	28084.09
634.60	28271.33
634.75	28755.82
634.90	28294.74
635.05	28491.34
635.19	28819.02
635.34	28685.61
635.49	28299.42
635.64	28734.76
635.79	28318.14
635.94	28219.84
636.09	28058.34
636.24	28151.96
636.39	27976.42
636.53	28350.91
636.68	28044.30
636.83	28524.11
636.98	28617.73
637.13	28037.28
637.28	28734.76
637.43	28437.51
637.57	28191.75
637.72	28147.28
637.87	28048.98
638.02	28095.79
638.17	28182.39
638.32	28013.87
638.46	27999.83
638.61	28004.51
638.76	27569.17
638.91	27817.27
639.06	27962.38
639.20	28287.71
639.35	28264.31
639.50	28151.96
639.65	28142.60
639.80	28063.02
639.94	27967.06
640.09	27843.01
640.24	28196.43
640.39	27789.18
640.54	27618.32
640.68	27466.19
640.83	27693.22
640.98	27796.20
641.13	27276.60
641.27	27901.53
641.42	27604.28
641.57	27875.78
641.72	27700.24
641.86	27620.66
642.01	27573.85
642.16	27840.67
642.31	27754.07
642.45	27737.69
642.60	27431.08
642.75	27278.94
642.90	27337.46
643.04	27402.99
643.19	27421.72
643.34	27510.66
643.48	27440.44
643.63	27632.36
643.78	27793.86
643.93	27522.36
644.07	27597.26
644.22	27529.38
644.37	27543.42
644.51	27576.19
644.66	27587.89
644.81	27159.58
644.95	27714.28
645.10	27356.18
645.25	27098.72
645.39	27283.62
645.54	27091.70
645.69	27325.75
645.83	27505.98
645.98	27150.21
646.13	27332.78
646.27	27505.98
646.42	27204.05
646.57	27335.12
646.71	27161.92
646.86	27522.36
647.00	27342.14
647.15	27253.20
647.30	27063.61
647.44	27087.02
647.59	27201.71
647.74	26623.59
647.88	26876.37
648.03	26951.27
648.17	27199.37
648.32	26904.46
648.47	26754.66
648.61	27054.25
648.76	26974.67
648.90	26862.33
649.05	26796.79
649.20	26499.55
649.34	26773.39
649.49	26689.13
649.63	26623.59
649.78	26745.30
649.92	26691.47
650.07	26733.60
650.21	26757.00
650.36	26958.29
650.51	26560.40
650.65	26824.88
650.80	26916.16
650.94	26738.28
651.09	26993.40
651.23	26485.50
651.38	26682.11
651.52	26625.93
651.67	26401.24
651.81	26642.32
651.96	26747.64
652.10	26759.34
652.25	26590.83
652.39	26766.37
652.54	26740.62
652.68	26553.38
652.83	26899.78
652.97	26504.23
653.12	26977.01
653.26	26202.30
653.41	26162.51
653.55	26160.17
653.70	25979.95
653.84	26185.91
653.99	26176.55
654.13	26230.38
654.27	26478.48
654.42	26431.67
654.56	26061.87
654.71	26445.71
654.85	26567.42
655.00	26214.00
655.14	26419.97
655.29	26206.98
655.43	26134.42
655.57	26136.76
655.72	26001.01
655.86	26160.17
656.01	26195.28
656.15	26143.78
656.30	26171.87
656.44	25975.27
656.58	26115.70
656.73	25699.08
656.87	25951.86
657.01	25993.99
657.16	26178.89
657.30	26359.11
657.45	25802.07
657.59	26202.30
657.73	25703.76
657.88	25862.92
658.02	26059.52
658.16	25867.60
658.31	25755.26
658.45	25656.95
658.60	25345.66
658.74	25729.51
658.88	25612.48
659.03	25586.74
659.17	25511.84
659.31	25551.63
659.46	25869.94
659.60	25575.03
659.74	25553.97
659.89	25621.84
660.03	25425.24
660.17	25401.83
660.32	25504.82
660.46	25450.99
660.60	25282.47
660.74	25429.92
660.89	25209.91
661.03	24994.58
661.17	25221.61
661.32	25146.72
661.46	25336.30
661.60	25127.99
661.74	25429.92
661.89	25149.06
662.03	25537.59
662.17	25268.42
662.31	24802.66
662.46	25195.87
662.60	24687.97
662.74	25046.07
662.88	24912.66
663.03	24840.11
663.17	24339.23
663.31	24744.14
663.45	24514.77
663.60	24613.07
663.74	24294.76
663.88	24561.58
664.02	24395.40
664.17	24868.19
664.31	24175.39
664.45	24758.19
664.59	24503.07
664.73	24376.68
664.88	24313.48
665.02	24236.25
665.16	24449.24
665.30	24290.08
665.44	24276.04
665.59	23978.79
665.73	24301.78
665.87	23733.03
666.01	24159.01
666.15	24168.37
666.29	24170.71
666.44	23903.89
666.58	23803.25
666.72	24308.80
666.86	24041.98
667.00	24231.57
667.14	23882.83
667.28	23828.99
667.43	23531.75
667.57	23508.34
667.71	23840.70
667.85	23866.44
667.99	23857.08
668.13	23414.72
668.27	23744.73
668.41	23728.35
668.56	23520.04
668.70	23695.58
668.84	23428.76
668.98	23213.43
669.12	23412.38
669.26	23431.10
669.40	23328.12
669.54	23461.53
669.68	23365.57
669.82	22881.08
669.96	23019.17
670.10	23206.41
670.25	23065.98
670.39	23243.86
670.53	22836.61
670.67	22939.59
670.81	23009.81
670.95	22958.31
671.09	23089.38
671.23	22965.34
671.37	23131.51
671.51	23173.64
671.65	22820.22
671.79	22635.32
671.93	22911.50
672.07	22733.62
672.21	22501.91
672.35	22537.02
672.49	22143.81
672.63	22602.55
672.77	22391.91
672.91	22513.61
673.05	22464.46
673.19	22333.39
673.33	22199.98
673.47	22162.53
673.61	22324.03
673.75	21994.01
673.89	22246.79
674.03	22218.71
674.17	22223.39
674.31	21886.35
674.45	21958.91
674.59	21898.05
674.73	22118.06
674.87	21757.62
675.01	21488.46
675.15	21743.58
675.29	21638.25
675.43	21589.10
675.56	21593.78
675.70	21312.92
675.84	21729.53
675.98	21474.42
676.12	21617.19
676.26	21872.31
676.40	21818.47
676.54	21151.42
676.68	21310.58
676.82	20989.92
676.96	21149.08
677.10	20908.01
677.23	20662.25
677.37	20577.99
677.51	20830.77
677.65	20833.11
677.79	20570.97
677.93	20561.61
678.07	20489.05
678.21	20187.12
678.34	20531.18
678.48	20538.20
678.62	20460.96
678.76	20343.94
678.90	20123.93
679.04	20210.53
679.18	20348.62
679.31	20262.02
679.45	19917.96
679.59	19768.16
679.73	19522.41
679.87	19686.25
680.00	19442.83
680.14	19616.03
680.28	19372.61
680.42	19648.80
680.56	19559.86
680.70	19372.61
680.83	19531.77
680.97	19524.75
681.11	19531.77
681.25	19550.49
681.39	19461.55
681.52	19349.21
681.66	19178.35
681.80	19194.73
681.94	19122.18
682.07	19016.85
682.21	19033.24
682.35	18618.96
682.49	18644.71
682.62	18937.27
682.76	18628.32
682.90	18494.91
683.04	18717.26
683.17	18501.93
683.31	18417.68
683.45	18579.17
683.59	18532.36
683.72	18682.16
683.86	18286.61
684.00	18090.00
684.13	18111.07
684.27	18059.57
684.41	17994.04
684.55	17678.07
684.68	17685.09
684.82	17923.82
684.96	17659.34
685.09	17862.97
685.23	17841.90
685.37	17659.34
685.50	17708.49
685.64	17465.08
685.78	17692.11
685.91	17699.13
686.05	17525.93
686.19	17579.76
686.32	17734.24
686.46	16861.22
686.60	16987.61
686.73	16989.95
686.87	17139.74
687.01	16926.75
687.14	16739.51
687.28	16809.73
687.42	16725.47
687.55	16896.33
687.69	16336.94
687.82	16702.06
687.96	16620.14
688.10	16610.78
688.23	16599.08
688.37	16769.94
688.50	16381.41
688.64	16601.42
688.78	16388.43
688.91	16095.86
689.05	16170.76
689.18	16248.00
689.32	15829.04
689.46	16074.80
689.59	15969.48
689.73	15990.54
689.86	15857.13
690.00	15784.57
690.13	15653.50
690.27	15838.41
690.41	15758.83
690.54	15452.22
690.68	15569.24
690.81	15524.77
690.95	15580.95
691.08	15618.39
691.22	15293.06
691.35	15335.19
691.49	15316.47
691.62	15499.03
691.76	15131.56
691.89	15117.52
692.03	14881.13
692.16	14705.59
692.30	14789.85
692.43	14780.48
692.57	14626.01
692.70	14719.63
692.84	14647.07
692.97	14497.28
693.11	14501.96
693.24	14682.18
693.38	14532.39
693.51	14546.43
693.65	14370.89
693.78	14331.10
693.92	14214.07
694.05	14326.42
694.19	14267.91
694.32	13900.44
694.45	14015.13
694.59	13989.38
694.72	13809.16
694.86	13891.08
694.99	13862.99
695.13	13687.45
695.26	13638.30
695.39	13397.23
695.53	13671.07
695.66	13549.36
695.80	13528.30
695.93	13893.42
696.07	13584.47
696.20	13451.06
696.33	13214.66
696.47	13322.33
696.60	13207.64
696.73	13256.79
696.87	13226.37
697.00	13167.85
697.14	12884.65
697.27	12613.15
697.40	12760.60
697.54	12868.27
697.67	12402.50
697.80	12697.41
697.94	12348.67
698.07	12505.48
698.21	12475.06
698.34	12608.47
698.47	12510.16
698.61	12580.38
698.74	12580.38
698.87	12257.39
699.01	12175.47
699.14	12271.43
699.27	12315.90
699.40	12425.90
699.54	12009.29
699.67	12224.62
699.80	11850.13
699.94	11871.20
700.07	11641.82
700.20	11789.28
700.34	11618.42
700.47	11602.04
700.60	11646.51
700.73	11676.93
700.87	11798.64
701.00	11389.05
701.13	11389.05
701.26	11302.45
701.40	11592.67
701.53	11297.77
701.66	11616.08
701.79	11145.63
701.93	11192.44
702.06	11108.18
702.19	10909.24
702.32	10984.13
702.46	10906.90
702.59	10892.85
702.72	10850.72
702.85	10869.45
702.99	10803.91
703.12	10965.41
703.25	10380.28
703.38	10558.16
703.51	10516.03
703.65	10616.67
703.78	10438.79
703.91	10499.64
704.04	10677.52
704.17	10359.21
704.31	10560.50
704.44	10595.61
704.57	10244.52
704.70	10408.36
704.83	10038.56
704.96	10085.37
705.10	10043.24
705.23	9820.89
>>>>>End Processed Spectral Data<<<<<
