SpectraSuite Data File
++++++++++++++++++++++++++++++++++++
Date: Fri Oct 18 13:58:04 GMT-05:00 2013
User: bianchi
Dark Spectrum Present: No
Reference Spectrum Present: No
Number of Sampled Component Spectra: 1
Spectrometers: USB2+H05261
Integration Time (usec): 50000 (USB2+H05261)
Spectra Averaged: 1 (USB2+H05261)
Boxcar Smoothing: 0 (USB2+H05261)
Correct for Electrical Dark: No (USB2+H05261)
Strobe/Lamp Enabled: No (USB2+H05261)
Correct for Detector Non-linearity: No (USB2+H05261)
Correct for Stray Light: No (USB2+H05261)
Number of Pixels in Processed Spectrum: 2048
>>>>>Begin Processed Spectral Data<<<<<
365.73	0.00
365.92	0.00
366.12	0.00
366.32	0.00
366.52	0.00
366.72	0.00
366.91	0.00
367.11	0.00
367.31	0.00
367.51	0.00
367.70	0.00
367.90	0.00
368.10	0.00
368.30	0.00
368.49	0.00
368.69	0.00
368.89	0.00
369.09	0.00
369.28	0.00
369.48	0.00
369.68	0.00
369.87	0.00
370.07	0.00
370.27	0.00
370.47	0.00
370.66	67.88
370.86	135.75
371.06	163.84
371.25	182.56
371.45	98.30
371.65	177.88
371.84	91.28
372.04	107.66
372.24	243.42
372.44	138.09
372.63	166.18
372.83	149.79
373.03	278.52
373.22	236.39
373.42	238.73
373.62	222.35
373.81	224.69
374.01	215.33
374.21	255.12
374.40	166.18
374.60	224.69
374.79	210.65
374.99	234.05
375.19	245.76
375.38	196.60
375.58	215.33
375.78	273.84
375.97	217.67
376.17	236.39
376.37	332.36
376.56	222.35
376.76	278.52
376.95	163.84
377.15	304.27
377.35	255.12
377.54	229.37
377.74	346.40
377.93	250.44
378.13	224.69
378.33	351.08
378.52	262.14
378.72	283.20
378.91	241.08
379.11	292.57
379.31	294.91
379.50	234.05
379.70	421.30
379.89	308.95
380.09	325.33
380.28	304.27
380.48	358.10
380.68	301.93
380.87	383.85
381.07	301.93
381.26	325.33
381.46	355.76
381.65	297.25
381.85	318.31
382.04	358.10
382.24	341.72
382.43	414.27
382.63	325.33
382.83	332.36
383.02	369.80
383.22	278.52
383.41	222.35
383.61	346.40
383.80	315.97
384.00	397.89
384.19	414.27
384.39	428.32
384.58	470.45
384.78	299.59
384.97	428.32
385.17	395.55
385.36	341.72
385.56	358.10
385.75	393.21
385.95	465.77
386.14	416.62
386.34	379.17
386.53	482.15
386.72	489.17
386.92	407.25
387.11	465.77
387.31	493.85
387.50	383.85
387.70	484.49
387.89	531.30
388.09	470.45
388.28	449.38
388.48	430.66
388.67	463.43
388.86	423.64
389.06	507.90
389.25	519.60
389.45	444.70
389.64	423.64
389.84	514.92
390.03	442.36
390.22	510.24
390.42	479.81
390.61	559.39
390.81	451.72
391.00	592.16
391.19	437.68
391.39	519.60
391.58	554.71
391.78	526.62
391.97	547.69
392.16	545.34
392.36	559.39
392.55	493.85
392.75	533.64
392.94	535.98
393.13	531.30
393.33	596.84
393.52	547.69
393.71	517.26
393.91	543.00
394.10	587.47
394.29	568.75
394.49	540.66
394.68	510.24
394.88	594.50
395.07	627.26
395.26	622.58
395.46	664.71
395.65	617.90
395.84	709.18
396.04	709.18
396.23	655.35
396.42	674.07
396.62	650.67
396.81	671.73
397.00	587.47
397.19	716.20
397.39	660.03
397.58	706.84
397.77	552.37
397.97	674.07
398.16	676.41
398.35	699.82
398.55	784.08
398.74	720.88
398.93	727.91
399.12	786.42
399.32	725.57
399.51	688.12
399.70	814.51
399.90	615.56
400.09	765.36
400.28	711.52
400.47	706.84
400.67	765.36
400.86	847.27
401.05	854.30
401.24	800.46
401.44	833.23
401.63	830.89
401.82	856.64
402.01	807.48
402.21	873.02
402.40	821.53
402.59	884.72
402.78	898.77
402.97	873.02
403.17	912.81
403.36	844.93
403.55	873.02
403.74	908.13
403.93	940.90
404.13	919.83
404.32	901.11
404.51	933.87
404.70	1004.09
404.89	868.34
405.09	891.74
405.28	990.05
405.47	938.55
405.66	1050.90
405.85	980.68
406.05	947.92
406.24	978.34
406.43	1006.43
406.62	1029.84
406.81	1123.46
407.00	994.73
407.20	1078.99
407.39	1015.79
407.58	1057.92
407.77	1090.69
407.96	1121.12
408.15	1053.24
408.34	1069.62
408.54	1104.73
408.73	1128.14
408.92	1034.52
409.11	1067.28
409.30	1090.69
409.49	1132.82
409.68	1200.69
409.87	1144.52
410.07	1277.93
410.26	1233.46
410.45	1224.10
410.64	1179.63
410.83	1235.80
411.02	1177.29
411.21	1270.91
411.40	1170.27
411.59	1261.55
411.78	1289.64
411.98	1188.99
412.17	1352.83
412.36	1270.91
412.55	1345.81
412.74	1394.96
412.93	1472.20
413.12	1303.68
413.31	1554.12
413.50	1425.39
413.69	1380.92
413.88	1540.07
414.07	1411.34
414.26	1533.05
414.45	1483.90
414.64	1472.20
414.83	1533.05
415.02	1643.06
415.22	1577.52
415.41	1584.54
415.60	1575.18
415.79	1586.88
415.98	1633.69
416.17	1600.93
416.36	1645.40
416.55	1626.67
416.74	1710.93
416.93	1582.20
417.12	1607.95
417.31	1647.74
417.50	1717.95
417.69	1678.16
417.88	1664.12
418.07	1689.87
418.26	1764.76
418.45	1739.02
418.64	1916.90
418.83	1870.09
419.02	1792.85
419.21	1823.28
419.39	1834.98
419.58	1849.02
419.77	1795.19
419.96	1863.07
420.15	1898.17
420.34	1825.62
420.53	1914.56
420.72	1867.75
420.91	1959.03
421.10	1975.41
421.29	1954.35
421.48	1895.83
421.67	1975.41
421.86	1982.43
422.05	2064.35
422.24	1827.96
422.43	1984.77
422.61	1984.77
422.80	1935.62
422.99	1982.43
423.18	2038.61
423.37	2057.33
423.56	1952.01
423.75	1909.88
423.94	2076.06
424.13	1923.92
424.32	1867.75
424.50	2062.01
424.69	2015.20
424.88	2101.80
425.07	1989.46
425.26	2026.90
425.45	2085.42
425.64	2076.06
425.83	2141.59
426.01	2064.35
426.20	2129.89
426.39	2085.42
426.58	1996.48
426.77	2073.71
426.96	2113.50
427.15	2076.06
427.33	2167.34
427.52	2265.64
427.71	2132.23
427.90	2310.11
428.09	2204.78
428.28	2162.66
428.46	2260.96
428.65	2270.32
428.84	2181.38
429.03	2209.47
429.22	2076.06
429.40	2347.56
429.59	2307.77
429.78	2148.61
429.97	2165.00
430.16	2251.60
430.34	2265.64
430.53	2319.47
430.72	2321.81
430.91	2333.51
431.10	2277.34
431.28	2366.28
431.47	2331.17
431.66	2590.97
431.85	2422.45
432.03	2480.97
432.22	2583.95
432.41	2525.44
432.60	2452.88
432.79	2518.42
432.97	2506.71
433.16	2413.09
433.35	2511.39
433.54	2527.78
433.72	2602.68
433.91	2602.68
434.10	2593.31
434.28	2539.48
434.47	2621.40
434.66	2525.44
434.85	2679.91
435.03	2583.95
435.22	2635.44
435.41	2670.55
435.59	2609.70
435.78	2693.96
435.97	2663.53
436.16	2614.38
436.34	2677.57
436.53	2815.66
436.72	2810.98
436.90	2789.92
437.09	2789.92
437.28	2752.47
437.46	2738.43
437.65	2920.99
437.84	2778.22
438.02	2789.92
438.21	2909.29
438.40	2834.39
438.58	2874.18
438.77	2818.00
438.96	2768.85
439.14	2937.37
439.33	2981.84
439.52	2949.08
439.70	3075.46
439.89	3084.83
440.08	3045.04
440.26	3155.04
440.45	3101.21
440.63	3201.85
440.82	3148.02
441.01	3302.50
441.19	3159.72
441.38	3222.92
441.57	3309.52
441.75	3222.92
441.94	3417.18
442.12	3222.92
442.31	3414.84
442.50	3307.18
442.68	3372.71
442.87	3232.28
443.05	3485.06
443.24	3339.94
443.43	3433.57
443.61	3407.82
443.80	3559.95
443.98	3456.97
444.17	3260.37
444.35	3426.54
444.54	3571.66
444.73	3541.23
444.91	3494.42
445.10	3536.55
445.28	3531.87
445.47	3332.92
445.65	3421.86
445.84	3578.68
446.02	3634.85
446.21	3583.36
446.39	3361.01
446.58	3552.93
446.77	3501.44
446.95	3503.78
447.14	3630.17
447.32	3534.21
447.51	3588.04
447.69	3578.68
447.88	3524.85
448.06	3705.07
448.25	3454.63
448.43	3625.49
448.62	3566.98
448.80	3527.19
448.99	3552.93
449.17	3705.07
449.36	3557.61
449.54	3723.79
449.73	3878.27
449.91	3733.15
450.10	3737.84
450.28	3782.31
450.46	3751.88
450.65	3672.30
450.83	3744.86
451.02	3845.50
451.20	3777.62
451.39	3742.52
451.57	3826.78
451.76	3850.18
451.94	4016.36
452.13	3747.20
452.31	3962.53
452.49	3882.95
452.68	3913.38
452.86	3822.09
453.05	4117.00
453.23	3934.44
453.42	3859.54
453.60	3815.07
453.78	3906.35
453.97	3901.67
454.15	4088.92
454.34	3985.93
454.52	4011.68
454.70	4102.96
454.89	4030.40
455.07	4049.13
455.26	4060.83
455.44	4014.02
455.62	4053.81
455.81	4065.51
455.99	4283.18
456.17	4203.60
456.36	4212.96
456.54	4339.35
456.73	4367.44
456.91	4273.82
457.09	4383.82
457.28	4365.10
457.46	4229.35
457.64	4461.06
457.83	4360.42
458.01	4397.87
458.19	4512.55
458.38	4379.14
458.56	4484.47
458.74	4447.02
458.93	4334.67
459.11	4468.08
459.29	4327.65
459.48	4444.68
459.66	4538.30
459.84	4514.89
460.03	4554.68
460.21	4582.77
460.39	4575.75
460.57	4585.11
460.76	4610.86
460.94	4669.37
461.12	4777.03
461.31	4667.03
461.49	4671.71
461.67	4641.28
461.85	4793.42
462.04	4615.54
462.22	5104.71
462.40	4753.63
462.59	4901.08
462.77	4837.89
462.95	4919.81
463.13	4978.32
463.32	4887.04
463.50	4877.68
463.68	5046.20
463.86	4805.12
464.05	4856.61
464.23	4992.36
464.41	4877.68
464.59	4915.12
464.78	4954.91
464.96	4952.57
465.14	5160.88
465.32	5034.49
465.50	5146.84
465.69	5081.30
465.87	4933.85
466.05	5085.98
466.23	5020.45
466.41	5146.84
466.60	5188.97
466.78	5006.41
466.96	5153.86
467.14	5163.22
467.32	5121.09
467.51	5294.29
467.69	5123.43
467.87	5263.86
468.05	5249.82
468.23	5404.30
468.41	5102.37
468.60	5298.97
468.78	5167.90
468.96	5210.03
469.14	5366.85
469.32	5277.91
469.50	5270.89
469.69	5516.64
469.87	5338.76
470.05	5420.68
470.23	5411.32
470.41	5451.11
470.59	5481.53
470.77	5406.64
470.95	5509.62
471.14	5797.51
471.32	5376.21
471.50	5806.87
471.68	5650.05
471.86	5643.03
472.04	5750.70
472.22	5806.87
472.40	5708.57
472.58	5930.92
472.77	5863.04
472.95	6005.81
473.13	6242.21
473.31	6097.10
473.49	5774.10
473.67	6064.33
473.85	5980.07
474.03	6106.46
474.21	6085.39
474.39	6104.12
474.57	6139.23
474.75	6087.73
474.93	6246.89
475.12	6174.33
475.30	6305.40
475.48	6319.45
475.66	6363.92
475.84	6326.47
476.02	6593.29
476.20	6527.75
476.38	6445.84
476.56	6602.65
476.74	6752.45
476.92	6534.78
477.10	6726.70
477.28	6855.43
477.46	6757.13
477.64	6895.22
477.82	7056.72
478.00	6916.28
478.18	6986.50
478.36	7089.48
478.54	7126.93
478.72	6974.80
478.90	7068.42
479.08	7300.13
479.26	7344.60
479.44	7330.56
479.62	7241.62
479.80	7590.36
479.98	7496.74
480.16	7812.71
480.34	7812.71
480.52	7616.10
480.70	7967.18
480.88	7440.56
481.06	7829.09
481.24	7801.01
481.41	7960.16
481.59	8215.28
481.77	8049.10
481.95	8299.54
482.13	8093.57
482.31	7990.59
482.49	8442.31
482.67	8493.80
482.85	8489.12
483.03	8561.68
483.21	8636.58
483.39	8379.12
483.57	8613.17
483.74	8755.94
483.92	9008.72
484.10	9004.04
484.28	9114.05
484.46	9064.89
484.64	9233.41
484.82	9212.35
485.00	9315.33
485.18	9256.82
485.35	9359.80
485.53	9432.36
485.71	9502.58
485.89	9720.24
486.07	9713.22
486.25	9614.92
486.43	9668.75
486.61	9804.50
486.78	10019.83
486.96	10108.77
487.14	10300.70
487.32	10104.09
487.50	10270.27
487.68	10230.48
487.85	10490.28
488.03	10619.01
488.21	10949.03
488.39	10796.89
488.57	10761.78
488.75	10764.12
488.92	11047.33
489.10	11094.14
489.28	11068.39
489.46	11218.19
489.64	11005.20
489.81	11367.98
489.99	11562.25
490.17	11578.63
490.35	11791.62
490.53	11482.67
490.70	11831.41
490.88	11756.51
491.06	11824.39
491.24	11843.11
491.41	12070.14
491.59	12088.87
491.77	11953.12
491.95	12208.23
492.13	12468.03
492.30	12519.53
492.48	12720.81
492.66	12610.81
492.84	12461.01
493.01	12690.38
493.19	12896.35
493.37	12992.31
493.54	12896.35
493.72	13153.81
493.90	12849.54
494.08	13062.53
494.25	13233.39
494.43	13366.80
494.61	13701.50
494.79	13591.49
494.96	13502.55
495.14	13977.68
495.32	13834.91
495.49	13762.35
495.67	13841.93
495.85	14031.51
496.02	14024.49
496.20	14232.80
496.38	14136.84
496.55	14455.15
496.73	14438.76
496.91	14349.82
497.09	14588.56
497.26	14698.56
497.44	14396.64
497.62	14618.99
497.79	14581.54
497.97	14995.81
498.14	15096.46
498.32	14946.66
498.50	14878.79
498.67	15234.55
498.85	15213.48
499.03	15049.64
499.20	15246.25
499.38	15302.42
499.56	15115.18
499.73	15269.66
499.91	15815.00
500.08	15374.98
500.26	15304.76
500.44	15669.89
500.61	15527.11
500.79	15648.82
500.97	15920.32
501.14	16152.04
501.32	16304.17
501.49	16063.10
501.67	15978.84
501.84	15899.26
502.02	16210.55
502.20	16491.41
502.37	16418.86
502.55	16245.66
502.72	16393.11
502.90	16145.02
503.07	16746.53
503.25	16538.23
503.43	16781.64
503.60	16819.09
503.78	16863.56
503.95	16849.52
504.13	16748.87
504.30	17139.74
504.48	16856.54
504.65	17085.91
504.83	17053.14
505.01	17497.84
505.18	17341.03
505.36	17296.56
505.53	17186.55
505.71	17287.20
505.88	17554.02
506.06	17481.46
506.23	17600.83
506.41	17633.60
506.58	17724.88
506.76	17539.97
506.93	17642.96
507.11	17668.70
507.28	17750.62
507.46	18218.73
507.63	17762.33
507.81	18202.35
507.98	17958.93
508.16	17907.44
508.33	18190.64
508.50	18106.38
508.68	18080.64
508.85	18340.44
509.03	18537.04
509.20	18789.82
509.38	18572.15
509.55	18621.30
509.73	18651.73
509.90	18539.38
510.08	18593.22
510.25	18633.00
510.42	18562.79
510.60	18953.66
510.77	18885.78
510.95	18981.74
511.12	18981.74
511.30	19014.51
511.47	19253.25
511.64	19339.85
511.82	19129.20
511.99	19044.94
512.17	19414.74
512.34	19431.13
512.51	19250.91
512.69	19419.42
512.86	19536.45
513.04	19934.34
513.21	19711.99
513.38	19630.07
513.56	19641.78
513.73	19754.12
513.90	19836.04
514.08	19651.14
514.25	20144.99
514.43	20025.62
514.60	20231.59
514.77	20144.99
514.95	20191.80
515.12	20006.90
515.29	20322.87
515.47	20205.84
515.64	20652.89
515.81	20271.38
515.99	20629.48
516.16	20641.18
516.33	20444.58
516.51	20933.75
516.68	20638.84
516.85	20547.56
517.03	20989.92
517.20	20741.83
517.37	20865.88
517.54	20957.16
517.72	20809.70
517.89	20868.22
518.06	21282.49
518.24	21008.65
518.41	21071.84
518.58	21074.18
518.75	21170.15
518.93	21191.21
519.10	21240.36
519.27	21130.36
519.45	21200.57
519.62	21474.42
519.79	21188.87
519.96	21333.98
520.14	21343.35
520.31	21359.73
520.48	21582.08
520.65	21579.74
520.83	21724.85
521.00	21607.83
521.17	21937.84
521.34	22087.64
521.52	21757.62
521.69	22057.21
521.86	22089.98
522.03	22052.53
522.20	22141.47
522.38	22120.40
522.55	22263.18
522.72	22324.03
522.89	22515.95
523.07	22555.74
523.24	22160.19
523.41	22204.66
523.58	22295.94
523.75	22656.39
523.92	22293.60
524.10	22298.28
524.27	22661.07
524.44	22878.74
524.61	22824.90
524.78	22579.15
524.96	22824.90
525.13	22820.22
525.30	22852.99
525.47	22974.70
525.64	22852.99
525.81	23112.79
525.98	23271.95
526.16	23463.87
526.33	23417.06
526.50	23332.80
526.67	22948.95
526.84	23307.05
527.01	23164.28
527.18	23316.42
527.36	23197.05
527.53	23578.56
527.70	23501.32
527.87	23690.90
528.04	23543.45
528.21	23735.37
528.38	23410.04
528.55	23786.86
528.72	23597.28
528.89	23744.73
529.07	24060.71
529.24	23941.34
529.41	24173.05
529.58	23850.06
529.75	23440.47
529.92	23915.59
530.09	24215.18
530.26	24025.60
530.43	24137.94
530.60	24109.86
530.77	24215.18
530.94	24217.52
531.11	24025.60
531.28	23999.85
531.46	24025.60
531.63	24664.57
531.80	24329.87
531.97	24266.67
532.14	24620.10
532.31	24526.47
532.48	24503.07
532.65	24383.70
532.82	24386.04
532.99	24584.99
533.16	24512.43
533.33	24889.26
533.50	24975.86
533.67	25095.22
533.84	24498.39
534.01	24690.31
534.18	24652.86
534.35	25261.40
534.52	24709.04
534.69	24982.88
534.86	24924.36
535.03	25001.60
535.20	25193.53
535.37	25289.49
535.54	25184.16
535.71	24854.15
535.88	25057.78
536.05	24987.56
536.22	25429.92
536.38	25558.65
536.55	25174.80
536.72	25439.28
536.89	25310.55
537.06	25289.49
537.23	25521.20
537.40	25195.87
537.57	25731.85
537.74	25549.29
537.91	25930.80
538.08	25902.71
538.25	25671.00
538.42	25783.34
538.59	25750.57
538.75	25458.01
538.92	25649.93
539.09	26003.35
539.26	25706.10
539.43	25961.22
539.60	25968.24
539.77	26078.25
539.94	26197.62
540.11	26148.46
540.28	25930.80
540.44	25993.99
540.61	26426.99
540.78	25933.14
540.95	26206.98
541.12	26195.28
541.29	26370.82
541.46	26335.71
541.62	26017.40
541.79	26157.83
541.96	26211.66
542.13	25802.07
542.30	26139.10
542.47	26904.46
542.63	26508.91
542.80	26822.54
542.97	26686.79
543.14	26689.13
543.31	26890.41
543.48	26656.36
543.64	26995.74
543.81	27332.78
543.98	26909.14
544.15	27033.19
544.32	27257.88
544.48	26991.06
544.65	26820.20
544.82	27285.97
544.99	26670.40
545.16	27180.64
545.32	26998.08
545.49	27681.52
545.66	27484.91
545.83	27077.66
546.00	27587.89
546.16	27140.85
546.33	27108.08
546.50	27042.55
546.67	27321.07
546.83	26792.11
547.00	27627.68
547.17	27353.84
547.34	27150.21
547.50	27424.06
547.67	27843.01
547.84	27360.86
548.00	27630.02
548.17	27857.06
548.34	27297.67
548.51	27840.67
548.67	27983.44
548.84	27559.81
549.01	27880.46
549.18	27489.59
549.34	27814.93
549.51	27847.69
549.68	27676.83
549.84	27601.94
550.01	27709.60
550.18	27934.29
550.34	27812.59
550.51	28084.09
550.68	28002.17
550.84	27821.95
551.01	28016.21
551.18	27627.68
551.34	27772.80
551.51	28093.45
551.68	28133.24
551.84	28367.29
552.01	27981.10
552.18	28435.17
552.34	28074.73
552.51	28041.96
552.68	28271.33
552.84	28173.03
553.01	28559.22
553.18	28243.24
553.34	28313.46
553.51	28245.58
553.67	28507.72
553.84	28631.77
554.01	28549.85
554.17	28278.35
554.34	28566.24
554.51	28247.93
554.67	28694.97
554.84	28587.30
555.00	28463.25
555.17	28421.13
555.33	28706.67
555.50	28694.97
555.67	28613.05
555.83	28395.38
556.00	28510.07
556.16	28596.67
556.33	28428.15
556.50	28783.91
556.66	28896.25
556.83	28987.53
556.99	29177.12
557.16	29039.03
557.32	29039.03
557.49	29188.82
557.65	28744.12
557.82	29153.71
557.98	29106.90
558.15	29008.60
558.32	29003.92
558.48	29156.05
558.65	29284.78
558.81	29088.18
558.98	29177.12
559.14	28982.85
559.31	29411.17
559.47	28968.81
559.64	29032.00
559.80	29329.25
559.97	29287.12
560.13	29315.21
560.30	29507.13
560.46	29296.49
560.63	29425.22
560.79	29326.91
560.96	29455.64
561.12	29326.91
561.29	29282.44
561.45	29120.95
561.61	29483.73
561.78	29743.53
561.94	29694.38
562.11	29729.48
562.27	29233.29
562.44	29104.56
562.60	29769.27
562.77	29668.63
562.93	29312.87
563.10	29837.15
563.26	29516.50
563.42	29741.19
563.59	29649.91
563.75	29862.90
563.92	29165.42
564.08	29778.64
564.24	29572.67
564.41	29773.95
564.57	29614.80
564.74	29633.52
564.90	29677.99
565.07	29682.67
565.23	29888.64
565.39	29713.10
565.56	29776.30
565.72	29736.51
565.88	29750.55
566.05	29521.18
566.21	29355.00
566.38	30024.39
566.54	29825.45
566.70	29956.52
566.87	29848.85
567.03	29802.04
567.19	30347.39
567.36	29900.34
567.52	29860.55
567.68	29984.60
567.85	29921.41
568.01	29582.03
568.17	30064.18
568.34	30122.69
568.50	30181.21
568.66	30150.78
568.83	30347.39
568.99	29989.28
569.15	30022.05
569.32	29495.43
569.48	29769.27
569.64	30436.33
569.81	30000.99
569.97	29766.93
570.13	30291.21
570.30	29848.85
570.46	30487.82
570.62	30277.17
570.78	29996.31
570.95	29830.13
571.11	30045.46
571.27	29914.39
571.43	29827.79
571.60	29982.26
571.76	30232.70
571.92	30508.88
572.09	30101.63
572.25	30061.84
572.41	30225.68
572.57	30263.13
572.74	30050.14
572.90	29570.33
573.06	30031.41
573.22	29680.33
573.38	30174.19
573.55	30003.33
573.71	30607.19
573.87	30323.98
574.03	30253.76
574.20	30422.28
574.36	30462.07
574.52	29982.26
574.68	30263.13
574.84	30029.07
575.01	29902.68
575.17	30408.24
575.33	30068.86
575.49	30078.22
575.65	30398.88
575.82	30604.84
575.98	30349.73
576.14	30108.65
576.30	30431.65
576.46	30096.95
576.62	29968.22
576.79	30312.28
576.95	30082.91
577.11	30155.46
577.27	30326.32
577.43	30651.66
577.59	30232.70
577.75	30356.75
577.92	30101.63
578.08	30249.08
578.24	30305.26
578.40	30000.99
578.56	30347.39
578.72	30625.91
578.88	30632.93
579.04	30085.25
579.21	30422.28
579.37	30838.90
579.53	30504.20
579.69	30361.43
579.85	30171.85
580.01	30646.97
580.17	30319.30
580.33	30375.47
580.49	30448.03
580.65	30462.07
580.82	30616.55
580.98	30424.62
581.14	30625.91
581.30	30658.68
581.46	30326.32
581.62	30441.01
581.78	30450.37
581.94	30235.04
582.10	30562.72
582.26	30745.28
582.42	30670.38
582.58	30522.93
582.74	30525.27
582.90	30684.42
583.06	30656.34
583.22	30532.29
583.38	30658.68
583.54	30192.91
583.70	30347.39
583.86	30452.71
584.02	30143.76
584.18	30452.71
584.34	30773.36
584.50	30581.44
584.66	30403.56
584.82	30824.86
584.98	30387.18
585.14	30398.88
585.30	30171.85
585.46	30569.74
585.62	30417.60
585.78	31028.48
585.94	30356.75
586.10	30993.37
586.26	30897.41
586.42	30672.72
586.58	30672.72
586.74	30714.85
586.90	30412.92
587.06	30480.80
587.22	30583.78
587.38	30433.99
587.54	30883.37
587.70	30675.06
587.86	30632.93
588.02	30862.30
588.18	31208.70
588.34	30579.10
588.49	30609.53
588.65	30082.91
588.81	31089.34
588.97	30679.74
589.13	30422.28
589.29	30548.67
589.45	30913.80
589.61	30902.09
589.77	30902.09
589.93	30609.53
590.08	31147.85
590.24	31339.77
590.40	30625.91
590.56	30916.14
590.72	30665.70
590.88	30918.48
591.04	30792.09
591.20	30904.43
591.35	31250.83
591.51	31056.57
591.67	30944.22
591.83	31119.76
591.99	30962.95
592.15	30869.33
592.31	31105.72
592.46	31007.42
592.62	30876.35
592.78	30778.04
592.94	30960.61
593.10	30721.87
593.26	30967.63
593.41	31325.73
593.57	31002.74
593.73	31468.50
593.89	30803.79
594.05	30670.38
594.20	31005.08
594.36	31417.01
594.52	31424.03
594.68	30871.67
594.84	30778.04
594.99	31042.53
595.15	31040.18
595.31	31201.68
595.47	31152.53
595.62	30874.01
595.78	31138.49
595.94	31040.18
596.10	30719.53
596.25	31105.72
596.41	31091.68
596.57	30658.68
596.73	30986.35
596.88	30979.33
597.04	31461.48
597.20	31407.65
597.36	30967.63
597.51	31295.30
597.67	30920.82
597.83	31005.08
597.99	31178.28
598.14	31138.49
598.30	30955.93
598.46	30965.29
598.61	30799.11
598.77	30808.47
598.93	31307.01
599.09	31208.70
599.24	31590.21
599.40	31267.22
599.56	31152.53
599.71	31089.34
599.87	31344.45
600.03	31091.68
600.18	30967.63
600.34	31187.64
600.50	31014.44
600.65	31166.57
600.81	31136.15
600.97	31358.50
601.12	31370.20
601.28	31400.63
601.44	31468.50
601.59	31234.45
601.75	31204.02
601.91	31316.37
602.06	31330.41
602.22	31424.03
602.37	30946.56
602.53	31260.20
602.69	31295.30
602.84	31337.43
603.00	31115.08
603.16	31311.69
603.31	30834.22
603.47	31187.64
603.62	31019.12
603.78	31129.12
603.94	31257.85
604.09	31124.44
604.25	31133.81
604.40	31140.83
604.56	31124.44
604.71	31405.31
604.87	31101.04
605.03	31400.63
605.18	30951.24
605.34	30850.60
605.49	31124.44
605.65	30899.75
605.80	30953.58
605.96	30850.60
606.12	30714.85
606.27	31463.82
606.43	31197.00
606.58	31576.17
606.74	31016.78
606.89	31152.53
607.05	30745.28
607.20	31604.25
607.36	31232.11
607.51	31145.51
607.67	31061.25
607.82	30995.71
607.98	31321.05
608.13	30892.73
608.29	31009.76
608.44	31433.39
608.60	30965.29
608.75	31608.93
608.91	30728.89
609.06	31133.81
609.22	31197.00
609.37	30686.76
609.53	30866.98
609.68	31040.18
609.84	30731.23
609.99	30984.01
610.15	30672.72
610.30	30920.82
610.46	31028.48
610.61	30511.22
610.76	31000.40
610.92	31014.44
611.07	30785.07
611.23	30836.56
611.38	30937.20
611.54	30916.14
611.69	30618.89
611.84	30422.28
612.00	30850.60
612.15	30455.05
612.31	30857.62
612.46	30595.48
612.62	30768.68
612.77	30881.03
612.92	31084.65
613.08	30934.86
613.23	30904.43
613.39	30789.75
613.54	30637.61
613.69	30778.04
613.85	30520.59
614.00	30902.09
614.15	30684.42
614.31	30871.67
614.46	30827.20
614.62	30333.34
614.77	30597.82
614.92	31136.15
615.08	30415.26
615.23	30761.66
615.38	30506.54
615.54	30228.02
615.69	30412.92
615.84	30347.39
616.00	30565.06
616.15	30347.39
616.30	30572.08
616.46	30469.09
616.61	30532.29
616.76	30876.35
616.92	30389.52
617.07	30410.58
617.22	30347.39
617.37	30288.87
617.53	30359.09
617.68	30375.47
617.83	30342.70
617.99	30167.16
618.14	30120.35
618.29	30562.72
618.45	30387.18
618.60	30167.16
618.75	30141.42
618.90	30251.42
619.06	30108.65
619.21	30457.39
619.36	30118.01
619.51	30085.25
619.67	29912.05
619.82	29572.67
619.97	29954.18
620.12	30118.01
620.28	29685.01
620.43	30199.93
620.58	30691.44
620.73	29998.65
620.89	30368.45
621.04	30462.07
621.19	30005.67
621.34	29865.24
621.49	29724.80
621.65	29745.87
621.80	30291.21
621.95	29692.04
622.10	29689.70
622.25	29926.09
622.41	29734.17
622.56	29970.56
622.71	29778.64
622.86	29876.94
623.01	29570.33
623.16	29654.59
623.32	29689.70
623.47	29668.63
623.62	29806.72
623.77	29380.74
623.92	29862.90
624.07	29542.24
624.23	29252.02
624.38	29610.12
624.53	29795.02
624.68	29752.89
624.83	29734.17
624.98	29764.59
625.13	29427.56
625.29	29560.97
625.44	29404.15
625.59	29645.23
625.74	29535.22
625.89	29284.78
626.04	29111.58
626.19	29247.33
626.34	29432.24
626.49	29280.10
626.65	29298.83
626.80	29523.52
626.95	29612.46
627.10	29362.02
627.25	29303.51
627.40	29397.13
627.55	29097.54
627.70	29366.70
627.85	29034.35
628.00	29296.49
628.15	28966.47
628.30	28737.10
628.45	29127.97
628.60	28870.51
628.76	29081.16
628.91	29296.49
629.06	29010.94
629.21	28973.49
629.36	29237.97
629.51	29090.52
629.66	29369.04
629.81	28797.95
629.96	28650.50
630.11	28690.29
630.26	28517.09
630.41	28814.34
630.56	28828.38
630.71	28587.30
630.86	28723.05
631.01	28844.76
631.16	29015.62
631.31	28760.50
631.46	28851.78
631.61	28566.24
631.76	28680.92
631.91	28821.36
632.06	28561.56
632.21	28371.97
632.36	28680.92
632.51	28329.84
632.66	28891.57
632.81	28481.98
632.96	28404.74
633.10	28552.20
633.25	28622.41
633.40	28772.21
633.55	28437.51
633.70	28650.50
633.85	28006.85
634.00	28322.82
634.15	28070.04
634.30	28294.74
634.45	28390.70
634.60	28414.10
634.75	28304.10
634.90	28390.70
635.05	28283.03
635.19	28175.37
635.34	28278.35
635.49	28531.13
635.64	28430.49
635.79	28521.77
635.94	28421.13
636.09	28341.55
636.24	28261.97
636.39	28360.27
636.53	28451.55
636.68	27665.13
636.83	28362.61
636.98	27931.95
637.13	28203.46
637.28	28215.16
637.43	28091.11
637.57	28046.64
637.72	28144.94
637.87	28093.45
638.02	28231.54
638.17	28102.81
638.32	28009.19
638.46	28002.17
638.61	27903.87
638.76	27611.30
638.91	28163.67
639.06	27749.39
639.20	27742.37
639.35	28048.98
639.50	27857.06
639.65	28109.83
639.80	27992.81
639.94	27812.59
640.09	27627.68
640.24	27690.88
640.39	27721.30
640.54	27775.14
640.68	27513.00
640.83	27655.77
640.98	27515.34
641.13	27276.60
641.27	27985.79
641.42	27747.05
641.57	27646.41
641.72	27632.36
641.86	27164.26
642.01	27459.16
642.16	27468.53
642.31	27379.59
642.45	27599.60
642.60	27040.21
642.75	27346.82
642.90	26962.97
643.04	27342.14
643.19	26941.91
643.34	27175.96
643.48	27250.86
643.63	27395.97
643.78	27470.87
643.93	27508.32
644.07	27131.49
644.22	27468.53
644.37	27339.80
644.51	27119.79
644.66	27262.56
644.81	27316.39
644.95	27328.10
645.10	26918.50
645.25	27063.61
645.39	27267.24
645.54	27103.40
645.69	27075.32
645.83	27379.59
645.98	27098.72
646.13	27513.00
646.27	26991.06
646.42	27143.19
646.57	27023.83
646.71	26998.08
646.86	26977.01
647.00	27072.98
647.15	26867.01
647.30	26588.49
647.44	26911.48
647.59	26895.10
647.74	27002.76
647.88	26686.79
648.03	26862.33
648.17	26735.94
648.32	26948.93
648.47	26965.31
648.61	26955.95
648.76	27051.91
648.90	27070.64
649.05	27026.17
649.20	26370.82
649.34	26714.87
649.49	27042.55
649.63	26754.66
649.78	26698.49
649.92	26422.31
650.07	26560.40
650.21	26377.84
650.36	26574.44
650.51	26799.13
650.65	26574.44
650.80	26590.83
650.94	26506.57
651.09	26588.49
651.23	26321.66
651.38	26670.40
651.52	26052.50
651.67	26328.69
651.81	26724.24
651.96	26398.90
652.10	26710.19
652.25	26441.03
652.39	26562.74
652.54	26405.92
652.68	26155.49
652.83	26469.12
652.97	26581.46
653.12	26740.62
653.26	26312.30
653.41	26394.22
653.55	26359.11
653.70	25977.61
653.84	26143.78
653.99	26169.53
654.13	25874.62
654.27	25912.07
654.42	26321.66
654.56	26195.28
654.71	26232.72
654.85	25937.82
655.00	26089.95
655.14	26616.57
655.29	26001.01
655.43	26291.24
655.57	26125.06
655.72	25755.26
655.86	26031.44
656.01	25970.58
656.15	25696.74
656.30	25804.41
656.44	25869.94
656.58	26307.62
656.73	26024.42
656.87	25720.15
657.01	25986.97
657.16	25858.24
657.30	25640.57
657.45	25963.56
657.59	25762.28
657.73	25495.46
657.88	25575.03
658.02	25479.07
658.16	25469.71
658.31	25352.68
658.45	25493.12
658.60	25589.08
658.74	25579.71
658.88	25771.64
659.03	25352.68
659.17	25511.84
659.31	25450.99
659.46	25551.63
659.60	25607.80
659.74	25348.00
659.89	25549.29
660.03	25099.90
660.17	25504.82
660.32	25053.09
660.46	25106.93
660.60	24783.93
660.74	25008.62
660.89	25481.41
661.03	24926.71
661.17	24788.61
661.32	24980.54
661.46	24964.15
661.60	25064.80
661.74	24931.39
661.89	25511.84
662.03	25504.82
662.17	24994.58
662.31	24608.39
662.46	24856.49
662.60	24865.85
662.74	24638.82
662.88	25036.71
663.03	24587.33
663.17	24833.08
663.31	24336.89
663.45	24458.60
663.60	24250.29
663.74	24166.03
663.88	24271.36
664.02	24374.34
664.17	24610.73
664.31	24498.39
664.45	24336.89
664.59	24643.50
664.73	24430.51
664.88	24350.93
665.02	23908.57
665.16	23974.11
665.30	24088.79
665.44	23964.75
665.59	23791.55
665.73	23946.02
665.87	23866.44
666.01	24135.60
666.15	24013.90
666.29	23824.31
666.44	24044.32
666.58	23527.06
666.72	23868.78
666.86	24081.77
667.00	23805.59
667.14	23737.71
667.28	23475.57
667.43	23913.25
667.57	23573.88
667.71	23704.95
667.85	23594.94
667.99	23288.33
668.13	23447.49
668.27	23592.60
668.41	23424.08
668.56	23077.68
668.70	23377.27
668.84	23456.85
668.98	23484.94
669.12	23356.21
669.26	23534.09
669.40	23442.81
669.54	22993.42
669.68	23101.09
669.82	22988.74
669.96	22988.74
670.10	23154.92
670.25	22878.74
670.39	23124.49
670.53	22600.21
670.67	22820.22
670.81	22941.93
670.95	22604.89
671.09	22895.12
671.23	22649.36
671.37	22782.77
671.51	23129.17
671.65	22747.67
671.79	22787.46
671.93	22532.34
672.07	22328.71
672.21	22270.20
672.35	22125.08
672.49	22031.46
672.63	22359.14
672.77	22127.42
672.91	22155.51
673.05	22270.20
673.19	22249.13
673.33	22328.71
673.47	22174.24
673.61	22141.47
673.75	22040.82
673.89	21853.58
674.03	22314.67
674.17	21834.86
674.31	21982.31
674.45	21996.35
674.59	21626.55
674.73	22061.89
674.87	21411.22
675.01	21703.79
675.15	21202.91
675.29	21511.86
675.43	21589.10
675.56	21177.17
675.70	21413.56
675.84	21481.44
675.98	20816.72
676.12	21207.59
676.26	21453.35
676.40	21226.32
676.54	21233.34
676.68	21254.40
676.82	20821.41
676.96	20837.79
677.10	20952.48
677.23	20407.13
677.37	20547.56
677.51	20659.91
677.65	20767.57
677.79	20561.61
677.93	20357.98
678.07	20292.44
678.21	20299.47
678.34	20294.79
678.48	20264.36
678.62	20121.59
678.76	20166.06
678.90	20287.76
679.04	20042.01
679.18	20240.95
679.31	19910.94
679.45	19676.88
679.59	19711.99
679.73	19730.72
679.87	19679.22
680.00	19915.62
680.14	19452.19
680.28	19503.68
680.42	19475.60
680.56	19527.09
680.70	19276.65
680.83	19545.81
680.97	19346.87
681.11	19410.06
681.25	19356.23
681.39	19190.05
681.52	18988.77
681.66	18951.32
681.80	19012.17
681.94	18780.46
682.07	18906.85
682.21	18469.17
682.35	18555.77
682.49	18640.03
682.62	18534.70
682.76	18317.03
682.90	18567.47
683.04	18347.46
683.17	18527.68
683.31	18635.35
683.45	18394.27
683.59	18429.38
683.72	18216.39
683.86	18363.84
684.00	17865.31
684.13	18134.47
684.27	18132.13
684.41	17874.67
684.55	17539.97
684.68	17851.27
684.82	17362.09
684.96	17507.21
685.09	17612.53
685.23	17387.84
685.37	17366.78
685.50	17619.55
685.64	17710.83
685.78	17378.48
685.91	17589.13
686.05	17439.33
686.19	17205.28
686.32	17436.99
686.46	17172.51
686.60	17036.76
686.73	17132.72
686.87	16788.66
687.01	17111.66
687.14	16912.71
687.28	16748.87
687.42	16826.11
687.55	16844.84
687.69	16943.14
687.82	16112.25
687.96	16620.14
688.10	16669.30
688.23	16388.43
688.37	16388.43
688.50	16168.42
688.64	16390.77
688.78	16292.47
688.91	16044.37
689.05	16042.03
689.18	16187.14
689.32	15676.91
689.46	15513.07
689.59	15697.97
689.73	15894.58
689.86	15651.16
690.00	15728.40
690.13	15796.28
690.27	15824.36
690.41	15517.75
690.54	15431.15
690.68	15405.41
690.81	15704.99
690.95	15314.13
691.08	15536.48
691.22	15641.80
691.35	15386.68
691.49	15136.24
691.62	15197.10
691.76	14953.68
691.89	14705.59
692.03	14909.21
692.16	14621.33
692.30	14773.46
692.43	14719.63
692.57	14647.07
692.70	14457.49
692.84	14757.08
692.97	14452.81
693.11	14413.02
693.24	14466.85
693.38	14352.16
693.51	14167.26
693.65	14511.32
693.78	14459.83
693.92	14260.88
694.05	14258.54
694.19	13954.27
694.32	13874.70
694.45	14092.37
694.59	13872.36
694.72	13870.01
694.86	13668.73
694.99	13614.90
695.13	13612.56
695.26	13706.18
695.39	13383.18
695.53	13577.45
695.66	13631.28
695.80	13406.59
695.93	13261.48
696.07	13327.01
696.20	13654.69
696.33	13202.96
696.47	13259.13
696.60	13233.39
696.73	13174.88
696.87	13069.55
697.00	12943.16
697.14	12868.27
697.27	12526.55
697.40	12395.48
697.54	12774.64
697.67	12652.94
697.80	12472.71
697.94	12390.80
698.07	12442.29
698.21	12334.62
698.34	12587.40
698.47	12540.59
698.61	12095.89
698.74	12498.46
698.87	12402.50
699.01	12287.81
699.14	12245.68
699.27	12325.26
699.40	12011.63
699.54	12056.10
699.67	11826.73
699.80	11756.51
699.94	11829.07
700.07	11831.41
700.20	11585.65
700.34	11562.25
700.47	11765.87
700.60	11529.48
700.73	11768.21
700.87	11609.06
701.00	11520.12
701.13	11428.84
701.26	11506.07
701.40	11534.16
701.53	11424.15
701.66	11201.80
701.79	11241.59
701.93	11197.12
702.06	11117.54
702.19	10846.04
702.32	10843.70
702.46	10785.19
702.59	10721.99
702.72	10691.57
702.85	10757.10
702.99	10604.97
703.12	10604.97
703.25	10487.94
703.38	10473.90
703.51	10441.13
703.65	10485.60
703.78	10555.82
703.91	10424.75
704.04	10431.77
704.17	10338.15
704.31	10340.49
704.44	10169.63
704.57	10071.33
704.70	9980.04
704.83	10068.98
704.96	9914.51
705.10	9856.00
705.23	9839.61
>>>>>End Processed Spectral Data<<<<<
