SpectraSuite Data File
++++++++++++++++++++++++++++++++++++
Date: Fri Oct 18 13:58:12 GMT-05:00 2013
User: bianchi
Dark Spectrum Present: No
Reference Spectrum Present: No
Number of Sampled Component Spectra: 1
Spectrometers: USB2+H05261
Integration Time (usec): 50000 (USB2+H05261)
Spectra Averaged: 1 (USB2+H05261)
Boxcar Smoothing: 0 (USB2+H05261)
Correct for Electrical Dark: No (USB2+H05261)
Strobe/Lamp Enabled: No (USB2+H05261)
Correct for Detector Non-linearity: No (USB2+H05261)
Correct for Stray Light: No (USB2+H05261)
Number of Pixels in Processed Spectrum: 2048
>>>>>Begin Processed Spectral Data<<<<<
365.73	0.00
365.92	0.00
366.12	0.00
366.32	0.00
366.52	0.00
366.72	0.00
366.91	0.00
367.11	0.00
367.31	0.00
367.51	0.00
367.70	0.00
367.90	0.00
368.10	0.00
368.30	0.00
368.49	0.00
368.69	0.00
368.89	0.00
369.09	0.00
369.28	0.00
369.48	0.00
369.68	0.00
369.87	0.00
370.07	0.00
370.27	0.00
370.47	0.00
370.66	74.90
370.86	112.35
371.06	100.64
371.25	184.90
371.45	91.28
371.65	187.24
371.84	161.50
372.04	128.73
372.24	191.92
372.44	177.88
372.63	234.05
372.83	259.80
373.03	205.97
373.22	203.63
373.42	161.50
373.62	241.08
373.81	248.10
374.01	315.97
374.21	194.26
374.40	231.71
374.60	273.84
374.79	231.71
374.99	212.99
375.19	243.42
375.38	255.12
375.58	238.73
375.78	332.36
375.97	351.08
376.17	320.65
376.37	220.01
376.56	217.67
376.76	212.99
376.95	210.65
377.15	353.42
377.35	294.91
377.54	306.61
377.74	346.40
377.93	224.69
378.13	212.99
378.33	334.70
378.52	280.86
378.72	306.61
378.91	266.82
379.11	306.61
379.31	182.56
379.50	259.80
379.70	283.20
379.89	301.93
380.09	327.68
380.28	383.85
380.48	301.93
380.68	348.74
380.87	306.61
381.07	313.63
381.26	280.86
381.46	320.65
381.65	301.93
381.85	351.08
382.04	227.03
382.24	299.59
382.43	362.78
382.63	339.38
382.83	327.68
383.02	320.65
383.22	383.85
383.41	306.61
383.61	369.80
383.80	388.53
384.00	360.44
384.19	341.72
384.39	362.78
384.58	322.99
384.78	381.51
384.97	423.64
385.17	379.17
385.36	379.17
385.56	407.25
385.75	440.02
385.95	346.40
386.14	355.76
386.34	409.59
386.53	383.85
386.72	402.57
386.92	411.93
387.11	451.72
387.31	437.68
387.50	372.15
387.70	447.04
387.89	386.19
388.09	411.93
388.28	358.10
388.48	423.64
388.67	421.30
388.86	411.93
389.06	451.72
389.25	468.11
389.45	461.09
389.64	444.70
389.84	498.53
390.03	447.04
390.22	510.24
390.42	468.11
390.61	491.51
390.81	514.92
391.00	496.19
391.19	500.87
391.39	475.13
391.58	477.47
391.78	498.53
391.97	538.32
392.16	531.30
392.36	535.98
392.55	458.74
392.75	582.79
392.94	456.40
393.13	578.11
393.33	533.64
393.52	535.98
393.71	510.24
393.91	545.34
394.10	535.98
394.29	550.03
394.49	550.03
394.68	636.63
394.88	554.71
395.07	557.05
395.26	681.10
395.46	587.47
395.65	645.99
395.84	650.67
396.04	685.78
396.23	713.86
396.42	664.71
396.62	688.12
396.81	755.99
397.00	676.41
397.19	627.26
397.39	716.20
397.58	662.37
397.77	650.67
397.97	643.65
398.16	713.86
398.35	713.86
398.55	695.14
398.74	723.23
398.93	744.29
399.12	730.25
399.32	681.10
399.51	622.58
399.70	758.33
399.90	734.93
400.09	777.06
400.28	697.48
400.47	826.21
400.67	823.87
400.86	727.91
401.05	800.46
401.24	800.46
401.44	866.00
401.63	884.72
401.82	936.21
402.01	887.06
402.21	798.12
402.40	751.31
402.59	887.06
402.78	898.77
402.97	781.74
403.17	919.83
403.36	880.04
403.55	931.53
403.74	898.77
403.93	1008.77
404.13	959.62
404.32	952.60
404.51	1001.75
404.70	945.58
404.89	966.64
405.09	959.62
405.28	891.74
405.47	947.92
405.66	1032.18
405.85	823.87
406.05	952.60
406.24	1071.97
406.43	1060.26
406.62	973.66
406.81	1149.20
407.00	1022.81
407.20	1043.88
407.39	997.07
407.58	1043.88
407.77	1081.33
407.96	1025.15
408.15	1109.41
408.34	1004.09
408.54	1088.35
408.73	1057.92
408.92	1064.94
409.11	1074.31
409.30	1221.76
409.49	1188.99
409.68	1125.80
409.87	1163.25
410.07	1231.12
410.26	1214.74
410.45	1186.65
410.64	1235.80
410.83	1196.01
411.02	1320.06
411.21	1306.02
411.40	1273.25
411.59	1362.19
411.78	1289.64
411.98	1343.47
412.17	1275.59
412.36	1261.55
412.55	1299.00
412.74	1317.72
412.93	1409.00
413.12	1306.02
413.31	1448.79
413.50	1345.81
413.69	1455.81
413.88	1479.22
414.07	1481.56
414.26	1479.22
414.45	1507.30
414.64	1437.09
414.83	1526.03
415.02	1696.89
415.22	1540.07
415.41	1598.59
415.60	1526.03
415.79	1586.88
415.98	1638.38
416.17	1535.39
416.36	1586.88
416.55	1657.10
416.74	1743.70
416.93	1661.78
417.12	1685.19
417.31	1858.39
417.50	1748.38
417.69	1804.55
417.88	1757.74
418.07	1778.81
418.26	1760.08
418.45	1757.74
418.64	1729.66
418.83	1844.34
419.02	1820.94
419.21	1888.81
419.39	1790.51
419.58	1795.19
419.77	1757.74
419.96	1860.73
420.15	1961.37
420.34	1877.11
420.53	1930.94
420.72	2031.58
420.91	1973.07
421.10	1930.94
421.29	1991.80
421.48	2024.56
421.67	2059.67
421.86	2003.50
422.05	2001.16
422.24	1898.17
422.43	1991.80
422.61	2106.48
422.80	2134.57
422.99	2132.23
423.18	2129.89
423.37	2076.06
423.56	2062.01
423.75	2083.08
423.94	2017.54
424.13	1844.34
424.32	1984.77
424.50	2157.97
424.69	2080.74
424.88	2125.21
425.07	2085.42
425.26	1961.37
425.45	2033.93
425.64	2181.38
425.83	2033.93
426.01	2078.40
426.20	2029.24
426.39	2160.31
426.58	2190.74
426.77	2015.20
426.96	2132.23
427.15	2087.76
427.33	2125.21
427.52	2172.02
427.71	2249.25
427.90	2197.76
428.09	2134.57
428.28	2195.42
428.46	2298.41
428.65	2195.42
428.84	2342.88
429.03	2265.64
429.22	2104.14
429.40	2289.04
429.59	2408.41
429.78	2246.91
429.97	2258.62
430.16	2251.60
430.34	2305.43
430.53	2471.61
430.72	2363.94
430.91	2401.39
431.10	2441.18
431.28	2406.07
431.47	2473.95
431.66	2445.86
431.85	2387.35
432.03	2413.09
432.22	2380.32
432.41	2499.69
432.60	2560.55
432.79	2466.92
432.97	2504.37
433.16	2544.16
433.35	2520.76
433.54	2476.29
433.72	2581.61
433.91	2607.36
434.10	2593.31
434.28	2637.78
434.47	2562.89
434.66	2516.08
434.85	2562.89
435.03	2693.96
435.22	2724.38
435.41	2841.41
435.59	2717.36
435.78	2677.57
435.97	2766.51
436.16	2726.72
436.34	2640.12
436.53	2738.43
436.72	2825.03
436.90	2712.68
437.09	2843.75
437.28	2757.15
437.46	2787.58
437.65	2825.03
437.84	2913.97
438.02	2913.97
438.21	2946.73
438.40	2789.92
438.58	2778.22
438.77	2881.20
438.96	2949.08
439.14	2972.48
439.33	2984.18
439.52	3141.00
439.70	3082.49
439.89	3023.97
440.08	2885.88
440.26	3206.53
440.45	3091.85
440.63	3218.24
440.82	3077.80
441.01	3110.57
441.19	3208.87
441.38	3288.45
441.57	3346.97
441.75	3323.56
441.94	3119.93
442.12	3225.26
442.31	3304.84
442.50	3414.84
442.68	3466.33
442.87	3417.18
443.05	3368.03
443.24	3494.42
443.43	3372.71
443.61	3391.44
443.80	3440.59
443.98	3522.51
444.17	3342.28
444.35	3599.74
444.54	3482.72
444.73	3463.99
444.91	3538.89
445.10	3545.91
445.28	3478.04
445.47	3503.78
445.65	3555.27
445.84	3485.06
446.02	3513.14
446.21	3482.72
446.39	3459.31
446.58	3578.68
446.77	3426.54
446.95	3405.48
447.14	3527.19
447.32	3646.55
447.51	3503.78
447.69	3510.80
447.88	3651.24
448.06	3604.42
448.25	3473.36
448.43	3609.11
448.62	3487.40
448.80	3637.19
448.99	3660.60
449.17	3737.84
449.36	3557.61
449.54	3779.97
449.73	3801.03
449.91	3878.27
450.10	3754.22
450.28	3824.44
450.46	3655.92
450.65	3805.71
450.83	3688.68
451.02	3733.15
451.20	3929.76
451.39	3901.67
451.57	4011.68
451.76	3920.40
451.94	3971.89
452.13	4032.74
452.31	3852.52
452.49	3948.48
452.68	3866.56
452.86	3946.14
453.05	4025.72
453.23	3971.89
453.42	3981.25
453.60	3857.20
453.78	4051.47
453.97	4004.66
454.15	3997.64
454.34	3922.74
454.52	4194.24
454.70	4124.02
454.89	3988.27
455.07	4203.60
455.26	4079.55
455.44	4271.48
455.62	4234.03
455.81	4126.36
455.99	4308.93
456.17	4337.01
456.36	4215.30
456.54	4245.73
456.73	4465.74
456.91	4404.89
457.09	4339.35
457.28	4505.53
457.46	4379.14
457.64	4430.63
457.83	4437.66
458.01	4341.69
458.19	4528.94
458.38	4376.80
458.56	4418.93
458.74	4447.02
458.93	4624.90
459.11	4526.60
459.29	4531.28
459.48	4578.09
459.66	4547.66
459.84	4638.94
460.03	4762.99
460.21	4704.48
460.39	4624.90
460.57	4636.60
460.76	4629.58
460.94	4601.49
461.12	4741.93
461.31	4601.49
461.49	4905.76
461.67	4690.43
461.85	4908.10
462.04	4758.31
462.22	4929.17
462.40	4828.53
462.59	4805.12
462.77	4882.36
462.95	4807.46
463.13	5001.72
463.32	4915.12
463.50	4985.34
463.68	5071.94
463.86	4774.69
464.05	4964.28
464.23	5055.56
464.41	4994.70
464.59	5015.77
464.78	5011.09
464.96	5074.28
465.14	5018.11
465.32	4978.32
465.50	5102.37
465.69	5121.09
465.87	4954.91
466.05	5139.82
466.23	5142.16
466.41	4964.28
466.60	5331.74
466.78	5078.96
466.96	5046.20
467.14	5076.62
467.32	5200.67
467.51	5186.63
467.69	5181.95
467.87	5313.02
468.05	5231.10
468.23	5132.79
468.41	5294.29
468.60	5528.35
468.78	5526.00
468.96	5434.72
469.14	5446.43
469.32	5359.83
469.50	5373.87
469.69	5575.16
469.87	5483.88
470.05	5678.14
470.23	5516.64
470.41	5476.85
470.59	5521.32
470.77	5654.73
470.95	5493.24
471.14	5785.80
471.32	5666.44
471.50	5743.67
471.68	5827.93
471.86	5797.51
472.04	5696.86
472.22	5954.32
472.40	5830.27
472.58	5916.87
472.77	5841.98
472.95	5949.64
473.13	6069.01
473.31	6003.47
473.49	5905.17
473.67	6071.35
473.85	6050.28
474.03	6052.63
474.21	6125.18
474.39	5975.39
474.57	5970.71
474.75	6352.21
474.93	6356.90
475.12	6389.66
475.30	6347.53
475.48	6263.27
475.66	6370.94
475.84	6431.79
476.02	6499.67
476.20	6478.60
476.38	6616.69
476.56	6689.25
476.74	6616.69
476.92	6698.61
477.10	6717.34
477.28	6892.88
477.46	6803.94
477.64	6803.94
477.82	6822.66
478.00	7159.70
478.18	7157.36
478.36	7157.36
478.54	7283.75
478.72	7115.23
478.90	7304.81
479.08	7365.67
479.26	7363.33
479.44	7407.80
479.62	7611.42
479.80	7508.44
479.98	7604.40
480.16	7541.21
480.34	7611.42
480.52	7927.39
480.70	7824.41
480.88	7740.15
481.06	7779.94
481.24	7873.56
481.41	8035.06
481.59	8070.17
481.77	8009.31
481.95	8039.74
482.13	8336.99
482.31	8266.77
482.49	8360.39
482.67	8346.35
482.85	8514.87
483.03	8526.57
483.21	8809.78
483.39	8826.16
483.57	8573.38
483.74	8924.46
483.92	8887.01
484.10	8971.27
484.28	8933.82
484.46	9067.24
484.64	9320.01
484.82	9013.40
485.00	9341.08
485.18	9521.30
485.35	9493.21
485.53	9418.32
485.71	9722.59
485.89	9701.52
486.07	9666.41
486.25	9891.10
486.43	9832.59
486.61	10022.17
486.78	10195.37
486.96	10087.71
487.14	10377.94
487.32	10263.25
487.50	10326.44
487.68	10497.30
487.85	10626.03
488.03	10806.25
488.21	10745.40
488.39	10963.07
488.57	11005.20
488.75	11098.82
488.92	11150.31
489.10	11279.04
489.28	11087.12
489.46	11508.41
489.64	11342.24
489.81	11669.91
489.99	11506.07
490.17	11660.55
490.35	11728.42
490.53	11775.24
490.70	12049.08
490.88	11878.22
491.06	12072.48
491.24	12091.21
491.41	12088.87
491.59	12208.23
491.77	12013.97
491.95	12332.28
492.13	12355.69
492.30	12638.89
492.48	12526.55
492.66	12669.32
492.84	12578.04
493.01	12816.77
493.19	12821.45
493.37	12961.89
493.54	13032.10
493.72	13153.81
493.90	12812.09
494.08	13441.70
494.25	13282.54
494.43	13364.46
494.61	13701.50
494.79	13462.76
494.96	13586.81
495.14	13565.74
495.32	13748.31
495.49	13610.22
495.67	14038.53
495.85	14167.26
496.02	14270.25
496.20	14148.54
496.38	14438.76
496.55	14064.28
496.73	14518.34
496.91	14499.62
497.09	14768.78
497.26	14658.78
497.44	14745.38
497.62	14810.91
497.79	14846.02
497.97	14953.68
498.14	14939.64
498.32	15173.69
498.50	15269.66
498.67	15480.30
498.85	15353.91
499.03	15552.86
499.20	15225.18
499.38	15382.00
499.56	15508.39
499.73	15737.76
499.91	15590.31
500.08	15866.49
500.26	15470.94
500.44	15637.12
500.61	15875.85
500.79	15655.84
500.97	16077.14
501.14	16346.30
501.32	15922.66
501.49	16203.53
501.67	16058.42
501.84	16086.50
502.02	16255.02
502.20	16713.77
502.37	16421.20
502.55	16479.71
502.72	16496.10
502.90	16418.86
503.07	16482.05
503.25	16744.19
503.43	16636.53
503.60	17062.51
503.78	17114.00
503.95	16798.02
504.13	16795.68
504.30	17275.49
504.48	17191.23
504.65	17104.64
504.83	17301.24
505.01	17486.14
505.18	17334.01
505.36	17603.17
505.53	17343.37
505.71	17219.32
505.88	17497.84
506.06	17252.09
506.23	17678.07
506.41	17767.01
506.58	17776.37
506.76	17603.17
506.93	18183.62
507.11	17926.16
507.28	17832.54
507.46	18071.28
507.63	18036.17
507.81	18211.71
507.98	18080.64
508.16	17994.04
508.33	18340.44
508.50	18108.72
508.68	18200.01
508.85	18450.44
509.03	18515.98
509.20	18359.16
509.38	18633.00
509.55	18607.26
509.73	18675.13
509.90	18810.89
510.08	18960.68
510.25	18466.83
510.42	19047.28
510.60	18775.78
510.77	19030.90
510.95	19154.94
511.12	19108.13
511.30	19094.09
511.47	19159.63
511.64	19021.53
511.82	19562.20
511.99	19286.01
512.17	19515.39
512.34	19389.00
512.51	19831.36
512.69	19948.39
512.86	19709.65
513.04	19894.55
513.21	19997.54
513.38	20208.19
513.56	20219.89
513.73	19786.89
513.90	20114.56
514.08	19728.38
514.25	20140.31
514.43	19992.86
514.60	20149.67
514.77	20365.00
514.95	20196.48
515.12	20034.99
515.29	20175.42
515.47	20741.83
515.64	20566.29
515.81	20575.65
515.99	20521.82
516.16	20695.02
516.33	20875.24
516.51	20989.92
516.68	20807.36
516.85	20891.62
517.03	21048.44
517.20	20854.17
517.37	21069.50
517.54	20947.79
517.72	20966.52
517.89	20966.52
518.06	21209.93
518.24	21294.19
518.41	21177.17
518.58	21095.25
518.75	21359.73
518.93	21350.37
519.10	21551.65
519.27	21792.73
519.45	21333.98
519.62	21357.39
519.79	21256.75
519.96	21633.57
520.14	21984.65
520.31	21710.81
520.48	21467.39
520.65	21902.73
520.83	21802.09
521.00	22045.51
521.17	22047.85
521.34	21937.84
521.52	22001.04
521.69	22305.31
521.86	22221.05
522.03	22333.39
522.20	22061.89
522.38	22199.98
522.55	22562.76
522.72	22338.07
522.89	22534.68
523.07	22820.22
523.24	22621.28
523.41	22427.01
523.58	22443.40
523.75	22799.16
523.92	22534.68
524.10	22525.32
524.27	22932.57
524.44	23117.47
524.61	22885.76
524.78	23211.09
524.96	22693.83
525.13	22916.19
525.30	22963.00
525.47	23190.03
525.64	22963.00
525.81	22974.70
525.98	23562.17
526.16	23749.42
526.33	23321.10
526.50	23550.47
526.67	23417.06
526.84	23417.06
527.01	23342.16
527.18	23311.74
527.36	23702.61
527.53	23611.32
527.70	23749.42
527.87	24046.66
528.04	23782.18
528.21	23662.82
528.38	23920.28
528.55	24133.26
528.72	23817.29
528.89	23775.16
529.07	24060.71
529.24	24177.73
529.41	24402.43
529.58	24292.42
529.75	24142.63
529.92	24292.42
530.09	24397.74
530.26	24273.70
530.43	24208.16
530.60	23936.66
530.77	24348.59
530.94	24603.71
531.11	24163.69
531.28	24327.53
531.46	24584.99
531.63	24514.77
531.80	24790.95
531.97	24884.58
532.14	24608.39
532.31	24603.71
532.48	25039.05
532.65	24760.53
532.82	24816.70
532.99	24540.52
533.16	24659.88
533.33	24889.26
533.50	25074.16
533.67	24790.95
533.84	24795.64
534.01	24950.11
534.18	24807.34
534.35	25123.31
534.52	24746.48
534.69	25331.62
534.86	25294.17
535.03	25074.16
535.20	25032.03
535.37	24819.04
535.54	25151.40
535.71	25357.36
535.88	25631.21
536.05	25345.66
536.22	25593.76
536.38	25432.26
536.55	25586.74
536.72	25582.06
536.89	25790.36
537.06	25575.03
537.23	25872.28
537.40	25692.06
537.57	25872.28
537.74	25879.30
537.91	25949.52
538.08	25951.86
538.25	26232.72
538.42	25986.97
538.59	25905.05
538.75	26043.14
538.92	25888.67
539.09	25839.51
539.26	26195.28
539.43	26108.68
539.60	26382.52
539.77	26555.72
539.94	25937.82
540.11	26192.94
540.28	25951.86
540.44	26082.93
540.61	26356.77
540.78	26380.18
540.95	26361.45
541.12	26534.65
541.29	26408.26
541.46	26628.27
541.62	26221.02
541.79	26478.48
541.96	26181.23
542.13	26370.82
542.30	26850.63
542.47	26572.10
542.63	26911.48
542.80	27084.68
542.97	27098.72
543.14	26878.71
543.31	26780.41
543.48	26857.65
543.64	27138.51
543.81	27068.30
543.98	27049.57
544.15	27468.53
544.32	27147.87
544.48	27316.39
544.65	26962.97
544.82	27089.36
544.99	26918.50
545.16	27435.76
545.32	27089.36
545.49	27555.13
545.66	27618.32
545.83	27749.39
546.00	27695.56
546.16	27260.22
546.33	27463.85
546.50	27098.72
546.67	27634.71
546.83	27363.20
547.00	27447.46
547.17	27585.55
547.34	27648.75
547.50	27505.98
547.67	28121.54
547.84	27253.20
548.00	27789.18
548.17	27889.82
548.34	28020.89
548.51	27988.13
548.67	28210.48
548.84	28091.11
549.01	27756.41
549.18	27672.15
549.34	27777.48
549.51	27655.77
549.68	27964.72
549.84	28182.39
550.01	28130.90
550.18	27768.12
550.34	28156.64
550.51	28236.22
550.68	28238.56
550.84	27915.57
551.01	28444.53
551.18	27887.48
551.34	28051.32
551.51	28187.07
551.68	28205.80
551.84	28292.40
552.01	28589.64
552.18	28694.97
552.34	28526.45
552.51	28411.76
552.68	28563.90
552.84	28580.28
553.01	28772.21
553.18	28208.14
553.34	28940.72
553.51	28954.77
553.67	28840.08
553.84	28914.98
554.01	28889.23
554.17	28779.23
554.34	28624.75
554.51	28781.57
554.67	28821.36
554.84	28982.85
555.00	28751.14
555.17	28573.26
555.33	29362.02
555.50	28870.51
555.67	28917.32
555.83	29046.05
556.00	28968.81
556.16	29111.58
556.33	28987.53
556.50	29219.25
556.66	29322.23
556.83	28917.32
556.99	29355.00
557.16	29558.63
557.32	28936.04
557.49	29305.85
557.65	28936.04
557.82	28669.22
557.98	29219.25
558.15	29167.76
558.32	29619.48
558.48	28879.87
558.65	29390.11
558.81	29345.64
558.98	29511.81
559.14	29099.88
559.31	29551.60
559.47	29436.92
559.64	29448.62
559.80	29467.34
559.97	29715.44
560.13	29062.43
560.30	29654.59
560.46	29766.93
560.63	29764.59
560.79	29769.27
560.96	29628.84
561.12	29706.08
561.29	29315.21
561.45	29692.04
561.61	29832.47
561.78	29661.61
561.94	29940.13
562.11	29626.50
562.27	29827.79
562.44	29713.10
562.60	29841.83
562.77	29804.38
562.93	29539.90
563.10	29788.00
563.26	29495.43
563.42	30061.84
563.59	29970.56
563.75	29757.57
563.92	30040.78
564.08	29661.61
564.24	29907.37
564.41	29855.87
564.57	29907.37
564.74	29790.34
564.90	30333.34
565.07	30008.01
565.23	30099.29
565.39	30047.80
565.56	30043.12
565.72	29869.92
565.88	30089.93
566.05	29729.48
566.21	30075.88
566.38	29890.98
566.54	30096.95
566.70	29823.11
566.87	30033.75
567.03	30253.76
567.19	30445.69
567.36	30174.19
567.52	29809.06
567.68	30361.43
567.85	29862.90
568.01	30085.25
568.17	29942.47
568.34	30326.32
568.50	29930.77
568.66	30206.95
568.83	30384.83
568.99	30164.82
569.15	30543.99
569.32	30202.27
569.48	29694.38
569.64	30118.01
569.81	30424.62
569.97	30302.92
570.13	30331.00
570.30	30536.97
570.46	30052.48
570.62	30455.05
570.78	30338.02
570.95	30155.46
571.11	30235.04
571.27	30398.88
571.43	30331.00
571.60	30071.20
571.76	30258.45
571.92	30478.46
572.09	30508.88
572.25	30433.99
572.41	30319.30
572.57	30464.41
572.74	30586.12
572.90	30412.92
573.06	30176.53
573.22	30607.19
573.38	30352.07
573.55	30515.90
573.71	30979.33
573.87	30735.92
574.03	30410.58
574.20	30639.95
574.36	30270.15
574.52	30321.64
574.68	30541.65
574.84	30335.68
575.01	30518.25
575.17	30387.18
575.33	30632.93
575.49	30499.52
575.65	30691.44
575.82	30494.84
575.98	30602.50
576.14	30075.88
576.30	30361.43
576.46	30469.09
576.62	30469.09
576.79	30415.26
576.95	30558.03
577.11	30466.75
577.27	30775.70
577.43	30363.77
577.59	30572.08
577.75	30569.74
577.92	30286.53
578.08	30405.90
578.24	30473.78
578.40	30726.55
578.56	30551.01
578.72	30377.81
578.88	30955.93
579.04	30670.38
579.21	30836.56
579.37	30649.32
579.53	30904.43
579.69	30445.69
579.85	30646.97
580.01	30504.20
580.17	30284.19
580.33	30761.66
580.49	30635.27
580.65	30820.17
580.82	30574.42
580.98	30946.56
581.14	30719.53
581.30	30855.28
581.46	30546.33
581.62	30675.06
581.78	30494.84
581.94	30888.05
582.10	30661.02
582.26	30401.22
582.42	30398.88
582.58	31126.78
582.74	30883.37
582.90	30925.50
583.06	30661.02
583.22	30735.92
583.38	30551.01
583.54	30625.91
583.70	30588.46
583.86	30534.63
584.02	30834.22
584.18	30771.02
584.34	30703.15
584.50	31370.20
584.66	30462.07
584.82	30548.67
584.98	30588.46
585.14	30838.90
585.30	30761.66
585.46	30436.33
585.62	30543.99
585.78	30513.56
585.94	30918.48
586.10	30888.05
586.26	30986.35
586.42	30658.68
586.58	31030.82
586.74	31157.21
586.90	30829.54
587.06	30656.34
587.22	30663.36
587.38	30890.39
587.54	31182.96
587.70	31367.86
587.86	30857.62
588.02	31143.17
588.18	31405.31
588.34	31189.98
588.49	31037.84
588.65	30925.50
588.81	30504.20
588.97	30859.96
589.13	31204.02
589.29	31026.14
589.45	31150.19
589.61	31189.98
589.77	31145.51
589.93	31353.82
590.08	30932.52
590.24	31459.14
590.40	31622.98
590.56	31335.09
590.72	30986.35
590.88	30948.90
591.04	31150.19
591.20	31094.02
591.35	31440.42
591.51	31508.29
591.67	31197.00
591.83	31264.88
591.99	31503.61
592.15	31061.25
592.31	31250.83
592.46	30747.62
592.62	31311.69
592.78	31538.72
592.94	31246.15
593.10	30941.88
593.26	31239.13
593.41	31337.43
593.57	31227.43
593.73	31330.41
593.89	31597.23
594.05	31189.98
594.20	30890.39
594.36	31227.43
594.52	31206.36
594.68	31072.95
594.84	31063.59
594.99	31147.85
595.15	31278.92
595.31	31971.72
595.47	31285.94
595.62	31417.01
595.78	31370.20
595.94	30953.58
596.10	31098.70
596.25	31412.33
596.41	31297.64
596.57	31435.74
596.73	31197.00
596.88	31426.37
597.04	31288.28
597.20	31461.48
597.36	31407.65
597.51	31922.57
597.67	31215.72
597.83	31051.89
597.99	31510.63
598.14	31182.96
598.30	31325.73
598.46	31307.01
598.61	31681.49
598.77	31206.36
598.93	31253.17
599.09	31599.57
599.24	32011.51
599.40	31599.57
599.56	31641.70
599.71	31463.82
599.87	31704.90
600.03	31571.49
600.18	31431.05
600.34	31204.02
600.50	31295.30
600.65	31393.61
600.81	31910.86
600.97	31501.27
601.12	32023.21
601.28	31604.25
601.44	31852.35
601.59	31697.88
601.75	31356.16
601.91	31522.34
602.06	31683.83
602.22	31393.61
602.37	31421.69
602.53	31243.81
602.69	31136.15
602.84	31665.11
603.00	31328.07
603.16	31744.69
603.31	31585.53
603.47	31578.51
603.62	31442.76
603.78	31445.10
603.94	31372.54
604.09	31288.28
604.25	31512.97
604.40	31299.98
604.56	31344.45
604.71	31730.64
604.87	31524.68
605.03	31505.95
605.18	31468.50
605.34	31395.95
605.49	31569.15
605.65	31276.58
605.80	31079.97
605.96	31295.30
606.12	31480.21
606.27	31475.52
606.43	31103.38
606.58	31503.61
606.74	31646.38
606.89	31351.48
607.05	31491.91
607.20	31756.39
607.36	31386.58
607.51	31456.80
607.67	31512.97
607.82	30981.67
607.98	31285.94
608.13	31534.04
608.29	31084.65
608.44	31402.97
608.60	31037.84
608.75	31154.87
608.91	31562.12
609.06	31152.53
609.22	31164.23
609.37	30913.80
609.53	31199.34
609.68	30960.61
609.84	30824.86
609.99	31253.17
610.15	31140.83
610.30	31332.75
610.46	31295.30
610.61	30953.58
610.76	31056.57
610.92	31426.37
611.07	31208.70
611.23	30874.01
611.38	30969.97
611.54	31241.47
611.69	30897.41
611.84	30710.17
612.00	31028.48
612.15	30923.16
612.31	31070.61
612.46	31108.06
612.62	30637.61
612.77	30747.62
612.92	31042.53
613.08	30885.71
613.23	31056.57
613.39	30969.97
613.54	30874.01
613.69	31124.44
613.85	30574.42
614.00	30782.73
614.15	30764.00
614.31	30829.54
614.46	31026.14
614.62	30932.52
614.77	31133.81
614.92	31049.55
615.08	30703.15
615.23	30892.73
615.38	30625.91
615.54	30909.11
615.69	30843.58
615.84	30806.13
616.00	30824.86
616.15	30707.83
616.30	30881.03
616.46	30735.92
616.61	30707.83
616.76	30761.66
616.92	30473.78
617.07	30712.51
617.22	30148.44
617.37	30546.33
617.53	31033.16
617.68	30373.13
617.83	30408.24
617.99	30139.08
618.14	30232.70
618.29	30326.32
618.45	30143.76
618.60	30466.75
618.75	30206.95
618.90	30536.97
619.06	30333.34
619.21	30536.97
619.36	30515.90
619.51	30148.44
619.67	30286.53
619.82	30078.22
619.97	30134.40
620.12	30398.88
620.28	30050.14
620.43	30338.02
620.58	30593.14
620.73	30340.36
620.89	30396.54
621.04	30501.86
621.19	30286.53
621.34	30089.93
621.49	30129.72
621.65	30162.48
621.80	30094.61
621.95	30209.29
622.10	30260.79
622.25	30015.03
622.41	29902.68
622.56	29984.60
622.71	30272.49
622.86	30101.63
623.01	30225.68
623.16	30202.27
623.32	30082.91
623.47	30015.03
623.62	29979.92
623.77	30012.69
623.92	30153.12
624.07	29584.37
624.23	29699.06
624.38	29722.46
624.53	30218.66
624.68	30122.69
624.83	29837.15
624.98	30258.45
625.13	29851.19
625.29	29769.27
625.44	30169.51
625.59	29844.17
625.74	29556.28
625.89	29603.10
626.04	29708.42
626.19	29670.97
626.34	29216.91
626.49	29830.13
626.65	29586.71
626.80	29584.37
626.95	29701.40
627.10	29610.12
627.25	29465.00
627.40	29104.56
627.55	29523.52
627.70	29123.29
627.85	29371.38
628.00	29071.79
628.15	29692.04
628.30	29312.87
628.45	29282.44
628.60	29453.30
628.76	29331.59
628.91	29214.57
629.06	29500.11
629.21	29413.51
629.36	29378.40
629.51	29191.16
629.66	29104.56
629.81	28875.19
629.96	28903.28
630.11	29422.87
630.26	28938.38
630.41	29212.23
630.56	28968.81
630.71	29383.09
630.86	29151.37
631.01	29156.05
631.16	29397.13
631.31	29273.08
631.46	28744.12
631.61	29284.78
631.76	29134.99
631.91	29055.41
632.06	29053.07
632.21	29039.03
632.36	28861.15
632.51	28453.89
632.66	28790.93
632.81	28872.85
632.96	29069.45
633.10	28690.29
633.25	29074.13
633.40	28678.58
633.55	28861.15
633.70	28360.27
633.85	28561.56
634.00	28676.24
634.15	28423.47
634.30	28599.01
634.45	28760.50
634.60	28678.58
634.75	28472.62
634.90	28519.43
635.05	28783.91
635.19	28842.42
635.34	28680.92
635.49	28512.41
635.64	28676.24
635.79	28563.90
635.94	28416.44
636.09	28453.89
636.24	28397.72
636.39	28444.53
636.53	28346.23
636.68	28313.46
636.83	28521.77
636.98	28304.10
637.13	28755.82
637.28	28835.40
637.43	28594.32
637.57	28151.96
637.72	28098.13
637.87	28236.22
638.02	28283.03
638.17	28100.47
638.32	28414.10
638.46	28084.09
638.61	28166.01
638.76	27927.27
638.91	27934.29
639.06	28388.36
639.20	28212.82
639.35	28112.17
639.50	28250.27
639.65	28060.68
639.80	28187.07
639.94	27962.38
640.09	27826.63
640.24	27908.55
640.39	27850.03
640.54	28051.32
640.68	27927.27
640.83	27789.18
640.98	27449.80
641.13	27772.80
641.27	27819.61
641.42	27667.47
641.57	28334.53
641.72	27920.25
641.86	27702.58
642.01	27733.01
642.16	27770.46
642.31	27531.72
642.45	27695.56
642.60	27206.39
642.75	27702.58
642.90	27190.00
643.04	27440.44
643.19	27388.95
643.34	27414.69
643.48	27615.98
643.63	27908.55
643.78	27775.14
643.93	27466.19
644.07	27796.20
644.22	27524.70
644.37	27520.02
644.51	27346.82
644.66	27119.79
644.81	27323.41
644.95	27438.10
645.10	27260.22
645.25	27351.50
645.39	27367.88
645.54	27379.59
645.69	27260.22
645.83	27297.67
645.98	27302.35
646.13	27288.31
646.27	27365.54
646.42	27395.97
646.57	27033.19
646.71	27662.79
646.86	27358.52
647.00	27157.24
647.15	26988.72
647.30	27197.02
647.44	27285.97
647.59	27304.69
647.74	27454.48
647.88	27110.43
648.03	26951.27
648.17	27370.22
648.32	27150.21
648.47	27356.18
648.61	27117.45
648.76	27391.29
648.90	26808.50
649.05	27264.90
649.20	26738.28
649.34	26902.12
649.49	27002.76
649.63	26607.21
649.78	27012.12
649.92	26944.25
650.07	27257.88
650.21	26775.73
650.36	26911.48
650.51	26576.78
650.65	26855.31
650.80	27248.52
650.94	26775.73
651.09	27009.78
651.23	26775.73
651.38	26647.00
651.52	26398.90
651.67	26663.38
651.81	26506.57
651.96	26579.12
652.10	26792.11
652.25	26497.20
652.39	27082.34
652.54	26614.23
652.68	26787.43
652.83	26541.68
652.97	26698.49
653.12	26787.43
653.26	26576.78
653.41	26298.26
653.55	26349.75
653.70	26136.76
653.84	26401.24
653.99	26429.33
654.13	26389.54
654.27	26955.95
654.42	26394.22
654.56	26342.73
654.71	26342.73
654.85	26621.25
655.00	26412.95
655.14	26237.41
655.29	26403.58
655.43	26787.43
655.57	26452.73
655.72	26185.91
655.86	26143.78
656.01	25881.64
656.15	26228.04
656.30	25989.31
656.44	26113.36
656.58	26015.05
656.73	26176.55
656.87	26382.52
657.01	25886.32
657.16	26153.15
657.30	26319.32
657.45	25961.22
657.59	26129.74
657.73	26001.01
657.88	26157.83
658.02	25825.47
658.16	25734.19
658.31	25916.75
658.45	25745.89
658.60	25530.56
658.74	25532.90
658.88	25565.67
659.03	25659.29
659.17	25577.37
659.31	25827.81
659.46	25570.35
659.60	25568.01
659.74	26024.42
659.89	25834.83
660.03	25560.99
660.17	25687.38
660.32	25172.46
660.46	25280.13
660.60	25565.67
660.74	25397.15
660.89	25544.61
661.03	25263.74
661.17	25326.94
661.32	25165.44
661.46	25191.19
661.60	25275.45
661.74	24994.58
661.89	25245.02
662.03	25390.13
662.17	25186.50
662.31	24767.55
662.46	25139.69
662.60	25092.88
662.74	25090.54
662.88	24823.72
663.03	24893.94
663.17	24783.93
663.31	24617.75
663.45	24690.31
663.60	25027.35
663.74	24346.25
663.88	24847.13
664.02	24767.55
664.17	24739.46
664.31	24744.14
664.45	24383.70
664.59	24533.50
664.73	24596.69
664.88	24372.00
665.02	24306.46
665.16	24271.36
665.30	24451.58
665.44	24135.60
665.59	24182.42
665.73	24074.75
665.87	23943.68
666.01	24142.63
666.15	24449.24
666.29	24226.89
666.44	23908.57
666.58	24180.07
666.72	23889.85
666.86	24018.58
667.00	24231.57
667.14	23695.58
667.28	23988.15
667.43	23960.06
667.57	23885.17
667.71	23847.72
667.85	23714.31
667.99	23358.55
668.13	23946.02
668.27	23517.70
668.41	23786.86
668.56	23351.52
668.70	23777.50
668.84	23861.76
668.98	23344.50
669.12	23929.64
669.26	23520.04
669.40	23405.36
669.54	23737.71
669.68	23281.31
669.82	23321.10
669.96	23246.20
670.10	23023.85
670.25	23218.11
670.39	23185.35
670.53	23339.82
670.67	23000.44
670.81	23101.09
670.95	23166.62
671.09	23218.11
671.23	22883.42
671.37	23033.21
671.51	23248.54
671.65	22829.59
671.79	23005.13
671.93	22766.39
672.07	22824.90
672.21	22490.21
672.35	22412.97
672.49	22153.17
672.63	22724.26
672.77	22443.40
672.91	22272.54
673.05	22300.62
673.19	22565.10
673.33	22312.33
673.47	22052.53
673.61	22302.96
673.75	22300.62
673.89	22134.45
674.03	22279.56
674.17	22127.42
674.31	22120.40
674.45	21867.63
674.59	22089.98
674.73	21736.56
674.87	21837.20
675.01	21806.77
675.15	21703.79
675.29	21502.50
675.43	21778.68
675.56	21570.38
675.70	21525.91
675.84	21652.30
675.98	20587.35
676.12	22022.10
676.26	21441.65
676.40	21699.11
676.54	21418.24
676.68	21355.05
676.82	21003.97
676.96	21490.80
677.10	21338.66
677.23	20987.58
677.37	20814.38
677.51	20982.90
677.65	20772.25
677.79	20395.43
677.93	20732.47
678.07	20622.46
678.21	20589.69
678.34	20554.58
678.48	20357.98
678.62	20432.88
678.76	20240.95
678.90	20297.13
679.04	20641.18
679.18	20205.84
679.31	19854.76
679.45	20184.78
679.59	19985.83
679.73	19955.41
679.87	19882.85
680.00	19735.40
680.14	19587.94
680.28	19550.49
680.42	19826.68
680.56	19421.77
680.70	19618.37
680.83	19770.51
680.97	19346.87
681.11	19524.75
681.25	19697.95
681.39	19503.68
681.52	19115.16
681.66	19412.40
681.80	18829.61
681.94	18913.87
682.07	18916.21
682.21	18497.25
682.35	18860.04
682.49	18853.02
682.62	18785.14
682.76	18377.89
682.90	18838.97
683.04	18897.49
683.17	18640.03
683.31	18600.24
683.45	18714.92
683.59	18572.15
683.72	18469.17
683.86	18434.06
684.00	18567.47
684.13	18216.39
684.27	18335.76
684.41	17881.69
684.55	17996.38
684.68	17661.68
684.82	17809.14
684.96	17919.14
685.09	18068.94
685.23	17619.55
685.37	17600.83
685.50	17785.73
685.64	17706.15
685.78	17809.14
685.91	18001.06
686.05	17504.87
686.19	17214.64
686.32	17607.85
686.46	16877.60
686.60	16982.93
686.73	17055.48
686.87	16886.97
687.01	16875.26
687.14	16926.75
687.28	17090.59
687.42	16402.47
687.55	16528.86
687.69	16791.00
687.82	16959.52
687.96	16533.54
688.10	16606.10
688.23	16505.46
688.37	16594.40
688.50	16252.68
688.64	16430.56
688.78	16339.28
688.91	16388.43
689.05	16243.32
689.18	16390.77
689.32	15864.15
689.46	15976.50
689.59	15833.72
689.73	15866.49
689.86	15866.49
690.00	15807.98
690.13	15765.85
690.27	15798.62
690.41	15611.37
690.54	15159.65
690.68	15779.89
690.81	15456.90
690.95	15740.10
691.08	15440.51
691.22	15824.36
691.35	15587.97
691.49	15559.88
691.62	15398.38
691.76	15412.43
691.89	15124.54
692.03	14848.36
692.16	14752.40
692.30	14792.19
692.43	14558.13
692.57	14881.13
692.70	14600.26
692.84	14778.14
692.97	14464.51
693.11	14642.39
693.24	14700.90
693.38	14480.89
693.51	14349.82
693.65	14485.58
693.78	14616.65
693.92	14160.24
694.05	14256.20
694.19	13921.51
694.32	14085.34
694.45	14036.19
694.59	13832.57
694.72	13689.79
694.86	13930.87
694.99	13432.33
695.13	13626.60
695.26	13853.63
695.39	13748.31
695.53	13652.34
695.66	13589.15
695.80	13624.26
695.93	13738.94
696.07	13617.24
696.20	13268.50
696.33	13458.08
696.47	13153.81
696.60	13252.11
696.73	13376.16
696.87	13193.60
697.00	13029.76
697.14	12879.97
697.27	12713.79
697.40	12896.35
697.54	12666.98
697.67	12723.15
697.80	12732.51
697.94	12538.25
698.07	12610.81
698.21	12589.74
698.34	12559.31
698.47	12496.12
698.61	12545.27
698.74	12549.95
698.87	12400.16
699.01	12365.05
699.14	12297.17
699.27	12287.81
699.40	12194.19
699.54	12255.04
699.67	11721.40
699.80	12016.31
699.94	11826.73
700.07	11693.32
700.20	11782.26
700.34	11798.64
700.47	11793.96
700.60	11550.54
700.73	11688.64
700.87	11660.55
701.00	11637.14
701.13	11566.93
701.26	11389.05
701.40	11407.77
701.53	11314.15
701.66	11536.50
701.79	11267.34
701.93	11178.40
702.06	11272.02
702.19	11068.39
702.32	11005.20
702.46	10820.30
702.59	10759.44
702.72	10848.38
702.85	10775.83
702.99	10729.02
703.12	10675.18
703.25	10619.01
703.38	10651.78
703.51	10719.65
703.65	10768.80
703.78	10576.88
703.91	10677.52
704.04	10497.30
704.17	10527.73
704.31	10644.76
704.44	10452.83
704.57	10427.09
704.70	10377.94
704.83	9923.87
704.96	10094.73
705.10	10061.96
705.23	10008.13
>>>>>End Processed Spectral Data<<<<<
