SpectraSuite Data File
++++++++++++++++++++++++++++++++++++
Date: Fri Oct 18 13:57:54 GMT-05:00 2013
User: bianchi
Dark Spectrum Present: No
Reference Spectrum Present: No
Number of Sampled Component Spectra: 1
Spectrometers: USB2+H05261
Integration Time (usec): 50000 (USB2+H05261)
Spectra Averaged: 1 (USB2+H05261)
Boxcar Smoothing: 0 (USB2+H05261)
Correct for Electrical Dark: No (USB2+H05261)
Strobe/Lamp Enabled: No (USB2+H05261)
Correct for Detector Non-linearity: No (USB2+H05261)
Correct for Stray Light: No (USB2+H05261)
Number of Pixels in Processed Spectrum: 2048
>>>>>Begin Processed Spectral Data<<<<<
365.73	0.00
365.92	0.00
366.12	0.00
366.32	0.00
366.52	0.00
366.72	0.00
366.91	0.00
367.11	0.00
367.31	0.00
367.51	0.00
367.70	0.00
367.90	0.00
368.10	0.00
368.30	0.00
368.49	0.00
368.69	0.00
368.89	0.00
369.09	0.00
369.28	0.00
369.48	0.00
369.68	0.00
369.87	0.00
370.07	0.00
370.27	0.00
370.47	0.00
370.66	65.54
370.86	168.52
371.06	184.90
371.25	135.75
371.45	133.41
371.65	163.84
371.84	140.43
372.04	255.12
372.24	147.45
372.44	117.03
372.63	156.82
372.83	194.26
373.03	177.88
373.22	201.29
373.42	212.99
373.62	224.69
373.81	208.31
374.01	203.63
374.21	257.46
374.40	257.46
374.60	250.44
374.79	278.52
374.99	278.52
375.19	313.63
375.38	290.23
375.58	290.23
375.78	280.86
375.97	290.23
376.17	229.37
376.37	227.03
376.56	248.10
376.76	252.78
376.95	278.52
377.15	334.70
377.35	297.25
377.54	306.61
377.74	278.52
377.93	290.23
378.13	301.93
378.33	248.10
378.52	330.02
378.72	271.50
378.91	337.04
379.11	278.52
379.31	337.04
379.50	280.86
379.70	294.91
379.89	243.42
380.09	327.68
380.28	234.05
380.48	320.65
380.68	278.52
380.87	418.96
381.07	269.16
381.26	318.31
381.46	276.18
381.65	264.48
381.85	407.25
382.04	297.25
382.24	362.78
382.43	393.21
382.63	376.83
382.83	294.91
383.02	301.93
383.22	367.46
383.41	346.40
383.61	315.97
383.80	428.32
384.00	470.45
384.19	397.89
384.39	330.02
384.58	367.46
384.78	304.27
384.97	390.87
385.17	404.91
385.36	355.76
385.56	414.27
385.75	351.08
385.95	456.40
386.14	393.21
386.34	414.27
386.53	337.04
386.72	386.19
386.92	351.08
387.11	409.59
387.31	400.23
387.50	440.02
387.70	451.72
387.89	421.30
388.09	479.81
388.28	479.81
388.48	440.02
388.67	454.06
388.86	535.98
389.06	440.02
389.25	442.36
389.45	440.02
389.64	444.70
389.84	458.74
390.03	505.56
390.22	428.32
390.42	498.53
390.61	482.15
390.81	449.38
391.00	477.47
391.19	535.98
391.39	557.05
391.58	503.22
391.78	507.90
391.97	510.24
392.16	566.41
392.36	622.58
392.55	496.19
392.75	533.64
392.94	491.51
393.13	547.69
393.33	519.60
393.52	538.32
393.71	540.66
393.91	514.92
394.10	554.71
394.29	599.18
394.49	613.22
394.68	676.41
394.88	519.60
395.07	669.39
395.26	662.37
395.46	550.03
395.65	683.44
395.84	643.65
396.04	699.82
396.23	709.18
396.42	636.63
396.62	685.78
396.81	669.39
397.00	699.82
397.19	585.13
397.39	627.26
397.58	615.56
397.77	706.84
397.97	685.78
398.16	641.31
398.35	732.59
398.55	624.92
398.74	720.88
398.93	662.37
399.12	692.80
399.32	711.52
399.51	744.29
399.70	734.93
399.90	650.67
400.09	739.61
400.28	723.23
400.47	784.08
400.67	770.04
400.86	739.61
401.05	861.32
401.24	816.85
401.44	856.64
401.63	828.55
401.82	844.93
402.01	854.30
402.21	830.89
402.40	774.72
402.59	784.08
402.78	842.59
402.97	842.59
403.17	966.64
403.36	943.24
403.55	957.28
403.74	999.41
403.93	940.90
404.13	835.57
404.32	964.30
404.51	954.94
404.70	950.26
404.89	954.94
405.09	1029.84
405.28	905.79
405.47	1039.20
405.66	938.55
405.85	1013.45
406.05	1128.14
406.24	990.05
406.43	945.58
406.62	1015.79
406.81	1086.01
407.00	1001.75
407.20	1004.09
407.39	1015.79
407.58	1137.50
407.77	1018.13
407.96	1144.52
408.15	1011.11
408.34	1107.07
408.54	1090.69
408.73	1078.99
408.92	1167.93
409.11	1022.81
409.30	1205.38
409.49	1228.78
409.68	1156.22
409.87	1172.61
410.07	1158.57
410.26	1196.01
410.45	1151.54
410.64	1231.12
410.83	1217.08
411.02	1287.29
411.21	1259.21
411.40	1228.78
411.59	1196.01
411.78	1254.53
411.98	1306.02
412.17	1296.66
412.36	1219.42
412.55	1371.55
412.74	1378.58
412.93	1420.71
413.12	1418.36
413.31	1514.33
413.50	1458.15
413.69	1411.34
413.88	1448.79
414.07	1451.13
414.26	1409.00
414.45	1416.02
414.64	1474.54
414.83	1502.62
415.02	1561.14
415.22	1521.35
415.41	1586.88
415.60	1476.88
415.79	1593.90
415.98	1661.78
416.17	1720.29
416.36	1650.08
416.55	1624.33
416.74	1727.32
416.93	1722.63
417.12	1729.66
417.31	1732.00
417.50	1652.42
417.69	1741.36
417.88	1790.51
418.07	1771.79
418.26	1809.23
418.45	1804.55
418.64	1895.83
418.83	1888.81
419.02	1893.49
419.21	1827.96
419.39	1888.81
419.58	1809.23
419.77	1809.23
419.96	1956.69
420.15	1837.32
420.34	1926.26
420.53	1937.96
420.72	2008.18
420.91	1989.46
421.10	2045.63
421.29	2045.63
421.48	1877.11
421.67	1898.17
421.86	2087.76
422.05	2078.40
422.24	1970.73
422.43	2080.74
422.61	2024.56
422.80	2094.78
422.99	2019.88
423.18	2125.21
423.37	2104.14
423.56	2015.20
423.75	1977.75
423.94	2101.80
424.13	1902.86
424.32	1937.96
424.50	2054.99
424.69	2204.78
424.88	2275.00
425.07	2099.46
425.26	2129.89
425.45	1982.43
425.64	2040.95
425.83	2024.56
426.01	2113.50
426.20	2092.44
426.39	2087.76
426.58	2136.91
426.77	2136.91
426.96	2157.97
427.15	2094.78
427.33	2167.34
427.52	2277.34
427.71	2176.70
427.90	2148.61
428.09	2136.91
428.28	2218.83
428.46	2195.42
428.65	2174.36
428.84	2289.04
429.03	2399.05
429.22	2211.81
429.40	2345.22
429.59	2328.83
429.78	2286.70
429.97	2239.89
430.16	2340.54
430.34	2387.35
430.53	2429.48
430.72	2363.94
430.91	2277.34
431.10	2431.82
431.28	2427.14
431.47	2291.38
431.66	2518.42
431.85	2415.43
432.03	2438.84
432.22	2520.76
432.41	2434.16
432.60	2415.43
432.79	2487.99
432.97	2502.03
433.16	2551.18
433.35	2558.21
433.54	2675.23
433.72	2480.97
433.91	2569.91
434.10	2438.84
434.28	2525.44
434.47	2612.04
434.66	2553.52
434.85	2602.68
435.03	2665.87
435.22	2766.51
435.41	2778.22
435.59	2574.59
435.78	2516.08
435.97	2621.40
436.16	2775.88
436.34	2644.81
436.53	2731.41
436.72	2738.43
436.90	2710.34
437.09	2822.69
437.28	2665.87
437.46	2832.05
437.65	2860.13
437.84	2822.69
438.02	2818.00
438.21	2818.00
438.40	2902.26
438.58	2993.55
438.77	2827.37
438.96	2813.32
439.14	3054.40
439.33	2932.69
439.52	2956.10
439.70	3098.87
439.89	3133.98
440.08	3176.11
440.26	3243.98
440.45	3152.70
440.63	3103.55
440.82	3155.04
441.01	3199.51
441.19	3119.93
441.38	3208.87
441.57	3325.90
441.75	3236.96
441.94	3229.94
442.12	3400.80
442.31	3426.54
442.50	3349.31
442.68	3375.05
442.87	3307.18
443.05	3384.41
443.24	3520.17
443.43	3356.33
443.61	3499.10
443.80	3604.42
443.98	3515.48
444.17	3386.76
444.35	3382.07
444.54	3585.70
444.73	3480.38
444.91	3585.70
445.10	3368.03
445.28	3421.86
445.47	3623.15
445.65	3494.42
445.84	3674.64
446.02	3693.37
446.21	3510.80
446.39	3557.61
446.58	3604.42
446.77	3538.89
446.95	3510.80
447.14	3527.19
447.32	3524.85
447.51	3623.15
447.69	3508.46
447.88	3646.55
448.06	3595.06
448.25	3529.53
448.43	3517.83
448.62	3627.83
448.80	3578.68
448.99	3613.79
449.17	3616.13
449.36	3651.24
449.54	3864.22
449.73	3843.16
449.91	3740.18
450.10	3843.16
450.28	3826.78
450.46	3840.82
450.65	3735.50
450.83	3885.29
451.02	3801.03
451.20	3826.78
451.39	3812.73
451.57	3801.03
451.76	3861.88
451.94	3992.95
452.13	3889.97
452.31	4009.34
452.49	3871.25
452.68	3957.85
452.86	4046.79
453.05	3962.53
453.23	4131.05
453.42	3978.91
453.60	3803.37
453.78	3941.46
453.97	3829.12
454.15	3981.25
454.34	4081.89
454.52	4133.39
454.70	4168.49
454.89	4081.89
455.07	3957.85
455.26	4070.19
455.44	4079.55
455.62	4067.85
455.81	4222.33
455.99	4227.01
456.17	4175.52
456.36	4224.67
456.54	4098.28
456.73	4367.44
456.91	4339.35
457.09	4461.06
457.28	4425.95
457.46	4269.14
457.64	4451.70
457.83	4353.40
458.01	4383.82
458.19	4613.20
458.38	4500.85
458.56	4507.87
458.74	4550.00
458.93	4470.42
459.11	4608.51
459.29	4521.92
459.48	4573.41
459.66	4678.73
459.84	4564.04
460.03	4711.50
460.21	4699.80
460.39	4652.98
460.57	4533.62
460.76	4835.55
460.94	4889.38
461.12	4709.16
461.31	4744.27
461.49	4603.83
461.67	4816.82
461.85	4915.12
462.04	4828.53
462.22	5050.88
462.40	4795.76
462.59	4809.80
462.77	4809.80
462.95	4884.70
463.13	4858.95
463.32	4898.74
463.50	4910.44
463.68	4861.29
463.86	5004.07
464.05	4802.78
464.23	4919.81
464.41	5043.85
464.59	4798.10
464.78	5088.32
464.96	4987.68
465.14	5055.56
465.32	5032.15
465.50	5139.82
465.69	5200.67
465.87	5100.03
466.05	5172.58
466.23	5118.75
466.41	5177.26
466.60	5207.69
466.78	5181.95
466.96	5270.89
467.14	5160.88
467.32	5235.78
467.51	5277.91
467.69	5055.56
467.87	5149.18
468.05	5217.05
468.23	5057.90
468.41	5118.75
468.60	5221.74
468.78	5460.47
468.96	5259.18
469.14	5413.66
469.32	5453.45
469.50	5364.51
469.69	5441.75
469.87	5533.03
470.05	5626.65
470.23	5528.35
470.41	5518.98
470.59	5636.01
470.77	5645.37
470.95	5554.09
471.14	5795.17
471.32	5549.41
471.50	5809.21
471.68	5706.23
471.86	5715.59
472.04	5731.97
472.22	5816.23
472.40	5884.11
472.58	5914.53
472.77	5804.53
472.95	5935.60
473.13	6179.01
473.31	5991.77
473.49	5823.25
473.67	5928.58
473.85	5975.39
474.03	5977.73
474.21	6113.48
474.39	6155.61
474.57	6179.01
474.75	6263.27
474.93	6164.97
475.12	6207.10
475.30	6413.07
475.48	6389.66
475.66	6422.43
475.84	6436.47
476.02	6483.28
476.20	6490.31
476.38	6717.34
476.56	6595.63
476.74	6724.36
476.92	6630.74
477.10	6644.78
477.28	6857.77
477.46	6839.05
477.64	6771.17
477.82	6869.47
478.00	7171.40
478.18	7007.56
478.36	7185.44
478.54	7152.68
478.72	7286.09
478.90	7344.60
479.08	7325.88
479.26	7286.09
479.44	7346.94
479.62	7421.84
479.80	7552.91
479.98	7492.05
480.16	7946.12
480.34	7571.63
480.52	7836.11
480.70	7939.10
480.88	7864.20
481.06	7868.88
481.24	7936.76
481.41	7761.22
481.59	8152.09
481.77	8131.02
481.95	8187.19
482.13	8318.26
482.31	8238.69
482.49	8418.91
482.67	8486.78
482.85	8627.21
483.03	8643.60
483.21	8805.10
483.39	8835.52
483.57	8769.99
483.74	8816.80
483.92	8816.80
484.10	8795.73
484.28	9170.22
484.46	9202.99
484.64	9399.59
484.82	9338.74
485.00	9364.48
485.18	9432.36
485.35	9708.54
485.53	9598.54
485.71	9612.58
485.89	9956.64
486.07	9582.15
486.25	9888.76
486.43	9788.12
486.61	9881.74
486.78	9914.51
486.96	10031.54
487.14	10319.42
487.32	10263.25
487.50	10415.38
487.68	10672.84
487.85	10581.56
488.03	10724.33
488.21	10757.10
488.39	10635.39
488.57	10930.30
488.75	10876.47
488.92	11171.38
489.10	11215.85
489.28	11147.97
489.46	11393.73
489.64	11337.56
489.81	11452.24
489.99	11548.20
490.17	11513.10
490.35	11999.93
490.53	11730.76
490.70	11918.01
490.88	12011.63
491.06	11962.48
491.24	11833.75
491.41	12297.17
491.59	12315.90
491.77	12201.21
491.95	12414.20
492.13	12381.43
492.30	12652.94
492.48	12571.02
492.66	12554.63
492.84	12681.02
493.01	12573.36
493.19	12585.06
493.37	12849.54
493.54	12982.95
493.72	13128.06
493.90	13336.37
494.08	13245.09
494.25	13324.67
494.43	13406.59
494.61	13582.13
494.79	13441.70
494.96	13650.00
495.14	13607.87
495.32	13675.75
495.49	13851.29
495.67	13893.42
495.85	14038.53
496.02	14134.50
496.20	14160.24
496.38	14178.97
496.55	14237.48
496.73	14572.18
496.91	14366.21
497.09	14618.99
497.26	14731.33
497.44	14501.96
497.62	14839.00
497.79	14916.23
497.97	15131.56
498.14	15367.96
498.32	14843.68
498.50	15094.11
498.67	15143.27
498.85	15073.05
499.03	15293.06
499.20	15435.83
499.38	15269.66
499.56	15398.38
499.73	15510.73
499.91	15602.01
500.08	15840.75
500.26	15824.36
500.44	15803.30
500.61	15885.22
500.79	15943.73
500.97	15899.26
501.14	16456.31
501.32	16184.80
501.49	16376.73
501.67	16336.94
501.84	16053.73
502.02	16262.04
502.20	16493.76
502.37	16475.03
502.55	16636.53
502.72	16393.11
502.90	16805.05
503.07	16774.62
503.25	16634.19
503.43	16519.50
503.60	16938.46
503.78	16872.92
503.95	16896.33
504.13	17074.21
504.30	17118.68
504.48	16945.48
504.65	17085.91
504.83	17214.64
505.01	17472.10
505.18	17294.22
505.36	17661.68
505.53	17394.86
505.71	17338.69
505.88	17317.62
506.06	17514.23
506.23	17785.73
506.41	17694.45
506.58	17783.39
506.76	18022.12
506.93	18181.28
507.11	17764.67
507.28	17865.31
507.46	17652.32
507.63	18052.55
507.81	18377.89
507.98	17958.93
508.16	18057.23
508.33	18211.71
508.50	18244.48
508.68	18761.73
508.85	18693.86
509.03	18527.68
509.20	18813.23
509.38	18843.65
509.55	18747.69
509.73	19021.53
509.90	18810.89
510.08	19014.51
510.25	18808.54
510.42	18993.45
510.60	19183.03
510.77	19229.84
510.95	19082.39
511.12	19131.54
511.30	18918.55
511.47	19482.62
511.64	19173.67
511.82	19393.68
511.99	19386.66
512.17	19751.78
512.34	19487.30
512.51	19517.73
512.69	19693.27
512.86	19438.15
513.04	19758.80
513.21	20095.84
513.38	20074.77
513.56	19779.87
513.73	19824.34
513.90	20002.22
514.08	19882.85
514.25	20149.67
514.43	20203.50
514.60	20198.82
514.77	20463.30
514.95	20732.47
515.12	20170.74
515.29	20395.43
515.47	20348.62
515.64	20704.38
515.81	20744.17
515.99	20603.74
516.16	20994.61
516.33	20957.16
516.51	20741.83
516.68	20727.78
516.85	20999.29
517.03	20800.34
517.20	20840.13
517.37	20809.70
517.54	21135.04
517.72	21247.38
517.89	21415.90
518.06	21142.06
518.24	21235.68
518.41	21055.46
518.58	21359.73
518.75	21322.28
518.93	21205.25
519.10	21523.57
519.27	21422.92
519.45	21504.84
519.62	21825.50
519.79	21799.75
519.96	21617.19
520.14	21935.50
520.31	21401.86
520.48	21937.84
520.65	21703.79
520.83	22132.11
521.00	21994.01
521.17	21972.95
521.34	22132.11
521.52	21944.86
521.69	21909.75
521.86	22352.12
522.03	22469.14
522.20	22272.54
522.38	22434.03
522.55	22443.40
522.72	22548.72
522.89	22480.85
523.07	22925.55
523.24	22377.86
523.41	22703.20
523.58	22471.48
523.75	22609.58
523.92	22457.44
524.10	22649.36
524.27	22810.86
524.44	23126.83
524.61	22946.61
524.78	22981.72
524.96	23049.60
525.13	22981.72
525.30	23058.96
525.47	23222.80
525.64	23201.73
525.81	23290.67
525.98	23559.83
526.16	23396.00
526.33	23503.66
526.50	23314.08
526.67	23424.08
526.84	23587.92
527.01	23283.65
527.18	23520.04
527.36	23843.04
527.53	23744.73
527.70	23821.97
527.87	23976.45
528.04	24086.45
528.21	23618.35
528.38	23847.72
528.55	24109.86
528.72	24079.43
528.89	24067.73
529.07	23871.12
529.24	23962.40
529.41	24215.18
529.58	24149.65
529.75	23999.85
529.92	24063.05
530.09	24098.16
530.26	24559.24
530.43	24261.99
530.60	23920.28
530.77	24189.44
530.94	24514.77
531.11	24219.86
531.28	24376.68
531.46	23772.82
531.63	24690.31
531.80	24671.59
531.97	24870.53
532.14	24641.16
532.31	24877.55
532.48	24940.75
532.65	25123.31
532.82	24240.93
532.99	24952.45
533.16	24800.32
533.33	25174.80
533.50	25125.65
533.67	24875.21
533.84	24978.20
534.01	24999.26
534.18	24812.02
534.35	25149.06
534.52	25476.73
534.69	25357.36
534.86	25013.31
535.03	25146.72
535.20	25462.69
535.37	25324.60
535.54	25394.81
535.71	25294.17
535.88	25509.50
536.05	25418.22
536.22	25434.60
536.38	25638.23
536.55	25675.68
536.72	25958.88
536.89	25462.69
537.06	25813.77
537.23	26087.61
537.40	25783.34
537.57	25752.91
537.74	25685.04
537.91	25977.61
538.08	25699.08
538.25	25701.42
538.42	25907.39
538.59	25762.28
538.75	25907.39
538.92	25902.71
539.09	26288.90
539.26	26148.46
539.43	26316.98
539.60	26281.88
539.77	26139.10
539.94	25898.03
540.11	26452.73
540.28	26146.12
540.44	26054.84
540.61	26321.66
540.78	26176.55
540.95	26733.60
541.12	26647.00
541.29	26096.97
541.46	26562.74
541.62	26176.55
541.79	27002.76
541.96	25965.90
542.13	26878.71
542.30	26822.54
542.47	26541.68
542.63	26951.27
542.80	26719.56
542.97	26902.12
543.14	26911.48
543.31	26576.78
543.48	27007.44
543.64	27330.44
543.81	27206.39
543.98	27054.25
544.15	27304.69
544.32	27037.87
544.48	27129.15
544.65	26918.50
544.82	27604.28
544.99	26881.05
545.16	27894.50
545.32	27190.00
545.49	28041.96
545.66	27953.02
545.83	27725.99
546.00	27793.86
546.16	27412.35
546.33	27515.34
546.50	27232.13
546.67	27503.64
546.83	27442.78
547.00	27810.25
547.17	27505.98
547.34	27899.19
547.50	27800.88
547.67	27758.75
547.84	27697.90
548.00	27597.26
548.17	27988.13
548.34	27552.79
548.51	28060.68
548.67	27791.52
548.84	27953.02
549.01	28067.70
549.18	27791.52
549.34	27791.52
549.51	28070.04
549.68	27995.15
549.84	28339.21
550.01	27978.76
550.18	27852.38
550.34	27803.22
550.51	28278.35
550.68	28327.50
550.84	28142.60
551.01	28166.01
551.18	28285.37
551.34	28315.80
551.51	28236.22
551.68	28350.91
551.84	28407.08
552.01	28652.84
552.18	28264.31
552.34	27995.15
552.51	28250.27
552.68	28304.10
552.84	28332.18
553.01	28767.52
553.18	28437.51
553.34	28989.88
553.51	28294.74
553.67	28856.46
553.84	28971.15
554.01	28835.40
554.17	28943.06
554.34	29050.73
554.51	28783.91
554.67	28732.42
554.84	28643.48
555.00	28641.14
555.17	28603.69
555.33	28940.72
555.50	28704.33
555.67	29284.78
555.83	29429.90
556.00	28868.17
556.16	29039.03
556.33	29043.71
556.50	29179.46
556.66	29401.81
556.83	29137.33
556.99	29130.31
557.16	29455.64
557.32	29268.40
557.49	29247.33
557.65	28900.94
557.82	29158.39
557.98	29069.45
558.15	29179.46
558.32	29032.00
558.48	29118.60
558.65	29509.47
558.81	29434.58
558.98	29439.26
559.14	29109.24
559.31	29359.68
559.47	29333.93
559.64	29336.27
559.80	29191.16
559.97	29441.60
560.13	29270.74
560.30	29486.07
560.46	29434.58
560.63	29347.98
560.79	29727.14
560.96	29898.00
561.12	29322.23
561.29	29731.83
561.45	29490.75
561.61	29804.38
561.78	29881.62
561.94	29535.22
562.11	30115.67
562.27	29923.75
562.44	29942.47
562.60	29631.18
562.77	29263.72
562.93	29792.68
563.10	30127.38
563.26	29879.28
563.42	29923.75
563.59	30286.53
563.75	29837.15
563.92	29776.30
564.08	29797.36
564.24	29991.62
564.41	29666.29
564.57	29802.04
564.74	29682.67
564.90	29851.19
565.07	30129.72
565.23	29703.74
565.39	29914.39
565.56	29933.11
565.72	29795.02
565.88	30132.06
566.05	30206.95
566.21	29680.33
566.38	30057.16
566.54	30298.23
566.70	30228.02
566.87	30160.14
567.03	30321.64
567.19	30256.11
567.36	30258.45
567.52	30239.72
567.68	30253.76
567.85	30284.19
568.01	30242.06
568.17	30284.19
568.34	29914.39
568.50	30424.62
568.66	30146.10
568.83	30548.67
568.99	30438.67
569.15	30298.23
569.32	30223.34
569.48	29806.72
569.64	30384.83
569.81	30424.62
569.97	30398.88
570.13	30370.79
570.30	30096.95
570.46	30328.66
570.62	30003.33
570.78	30597.82
570.95	30052.48
571.11	30162.48
571.27	29837.15
571.43	30483.14
571.60	30096.95
571.76	30408.24
571.92	30433.99
572.09	30696.13
572.25	30195.25
572.41	30775.70
572.57	30436.33
572.74	30396.54
572.90	30487.82
573.06	30455.05
573.22	30015.03
573.38	30356.75
573.55	30562.72
573.71	31007.42
573.87	30480.80
574.03	30359.09
574.20	30794.43
574.36	30054.82
574.52	30515.90
574.68	30572.08
574.84	30689.10
575.01	30352.07
575.17	30590.80
575.33	30551.01
575.49	30216.32
575.65	30590.80
575.82	30583.78
575.98	30607.19
576.14	31042.53
576.30	30237.38
576.46	30419.94
576.62	30649.32
576.79	30656.34
576.95	30181.21
577.11	30654.00
577.27	30478.46
577.43	31110.40
577.59	30508.88
577.75	30300.58
577.92	30471.43
578.08	30384.83
578.24	30665.70
578.40	30639.95
578.56	30548.67
578.72	30752.30
578.88	31035.50
579.04	30703.15
579.21	30717.19
579.37	30927.84
579.53	30314.62
579.69	30677.40
579.85	30642.29
580.01	30590.80
580.17	30415.26
580.33	30717.19
580.49	30569.74
580.65	30693.79
580.82	30897.41
580.98	30888.05
581.14	30831.88
581.30	30679.74
581.46	30932.52
581.62	30944.22
581.78	30670.38
581.94	30916.14
582.10	30836.56
582.26	30632.93
582.42	30651.66
582.58	30258.45
582.74	30916.14
582.90	30642.29
583.06	30850.60
583.22	30426.96
583.38	30593.14
583.54	30548.67
583.70	30630.59
583.86	30817.83
584.02	30969.97
584.18	31056.57
584.34	30951.24
584.50	30902.09
584.66	30862.30
584.82	30756.98
584.98	31063.59
585.14	30892.73
585.30	30513.56
585.46	30864.64
585.62	30710.17
585.78	30958.27
585.94	30438.67
586.10	31084.65
586.26	30417.60
586.42	31178.28
586.58	30984.01
586.74	30993.37
586.90	30888.05
587.06	30668.04
587.22	30998.06
587.38	30738.26
587.54	30916.14
587.70	30925.50
587.86	31295.30
588.02	30927.84
588.18	31267.22
588.34	31304.67
588.49	31421.69
588.65	30808.47
588.81	31070.61
588.97	30986.35
589.13	30958.27
589.29	31154.87
589.45	31281.26
589.61	30927.84
589.77	31033.16
589.93	31349.14
590.08	31189.98
590.24	31250.83
590.40	31400.63
590.56	31257.85
590.72	31154.87
590.88	31063.59
591.04	31452.12
591.20	31552.76
591.35	31428.71
591.51	31325.73
591.67	31393.61
591.83	31613.62
591.99	31496.59
592.15	31222.75
592.31	31054.23
592.46	31040.18
592.62	31030.82
592.78	30881.03
592.94	31316.37
593.10	31063.59
593.26	31255.51
593.41	31445.10
593.57	31171.25
593.73	31644.04
593.89	31707.24
594.05	31262.54
594.20	30988.69
594.36	31417.01
594.52	30904.43
594.68	31409.99
594.84	31000.40
594.99	31779.79
595.15	30962.95
595.31	31496.59
595.47	31604.25
595.62	31779.79
595.78	31573.83
595.94	31262.54
596.10	31197.00
596.25	31260.20
596.41	31119.76
596.57	30885.71
596.73	31541.06
596.88	31185.30
597.04	31311.69
597.20	31309.35
597.36	31578.51
597.51	31714.26
597.67	31515.31
597.83	31384.24
597.99	31669.79
598.14	31365.52
598.30	31353.82
598.46	31292.96
598.61	31503.61
598.77	30991.03
598.93	31379.56
599.09	31421.69
599.24	31625.32
599.40	32013.85
599.56	31707.24
599.71	31515.31
599.87	31627.66
600.03	31201.68
600.18	31248.49
600.34	31541.06
600.50	31435.74
600.65	31470.84
600.81	31452.12
600.97	31491.91
601.12	31929.59
601.28	31761.07
601.44	31604.25
601.59	31660.43
601.75	31358.50
601.91	31562.12
602.06	31508.29
602.22	31538.72
602.37	31117.42
602.53	31838.31
602.69	31522.34
602.84	31463.82
603.00	31529.36
603.16	31374.88
603.31	31250.83
603.47	31618.30
603.62	31363.18
603.78	31522.34
603.94	31433.39
604.09	31482.55
604.25	31318.71
604.40	31489.57
604.56	31276.58
604.71	31906.18
604.87	31452.12
605.03	31342.11
605.18	31702.56
605.34	31842.99
605.49	31367.86
605.65	31496.59
605.80	31192.32
605.96	31124.44
606.12	31580.85
606.27	31475.52
606.43	31124.44
606.58	31747.03
606.74	31117.42
606.89	31597.23
607.05	31587.87
607.20	31814.90
607.36	31346.79
607.51	31461.48
607.67	30911.46
607.82	31037.84
607.98	31241.47
608.13	31068.27
608.29	31232.11
608.44	31328.07
608.60	31424.03
608.75	31145.51
608.91	31133.81
609.06	31260.20
609.22	31147.85
609.37	31140.83
609.53	31288.28
609.68	31428.71
609.84	31133.81
609.99	30895.07
610.15	31002.74
610.30	31124.44
610.46	31058.91
610.61	31299.98
610.76	31367.86
610.92	31253.17
611.07	31264.88
611.23	30866.98
611.38	31257.85
611.54	30656.34
611.69	30771.02
611.84	30888.05
612.00	30897.41
612.15	30927.84
612.31	31136.15
612.46	31246.15
612.62	31229.77
612.77	31068.27
612.92	31288.28
613.08	31257.85
613.23	30930.18
613.39	30862.30
613.54	30813.15
613.69	30607.19
613.85	30864.64
614.00	31077.63
614.15	31119.76
614.31	30869.33
614.46	31098.70
614.62	31398.29
614.77	30799.11
614.92	30485.48
615.08	30923.16
615.23	30843.58
615.38	30841.24
615.54	31033.16
615.69	30668.04
615.84	30663.36
616.00	30462.07
616.15	30909.11
616.30	31178.28
616.46	30679.74
616.61	31054.23
616.76	30967.63
616.92	30391.86
617.07	30602.50
617.22	30581.44
617.37	30422.28
617.53	30864.64
617.68	30834.22
617.83	30293.55
617.99	30607.19
618.14	30185.89
618.29	30607.19
618.45	30850.60
618.60	30359.09
618.75	30857.62
618.90	30541.65
619.06	30782.73
619.21	30080.56
619.36	30862.30
619.51	30380.15
619.67	29881.62
619.82	30092.27
619.97	29975.24
620.12	30209.29
620.28	29968.22
620.43	30384.83
620.58	30824.86
620.73	30682.08
620.89	30260.79
621.04	30515.90
621.19	30363.77
621.34	30029.07
621.49	29991.62
621.65	29764.59
621.80	29855.87
621.95	30127.38
622.10	29968.22
622.25	30176.53
622.41	30562.72
622.56	30036.09
622.71	30396.54
622.86	30448.03
623.01	30291.21
623.16	29975.24
623.32	30064.18
623.47	30064.18
623.62	29865.24
623.77	29790.34
623.92	29633.52
624.07	29886.30
624.23	29958.86
624.38	29933.11
624.53	30103.97
624.68	29975.24
624.83	30237.38
624.98	30129.72
625.13	29926.09
625.29	29792.68
625.44	30293.55
625.59	30096.95
625.74	29750.55
625.89	29535.22
626.04	29497.77
626.19	29764.59
626.34	29577.35
626.49	29710.76
626.65	29610.12
626.80	30008.01
626.95	29900.34
627.10	29640.54
627.25	29748.21
627.40	29404.15
627.55	29546.92
627.70	29535.22
627.85	29221.59
628.00	29502.45
628.15	29474.37
628.30	29434.58
628.45	29326.91
628.60	29371.38
628.76	29582.03
628.91	29439.26
629.06	29333.93
629.21	29301.17
629.36	28858.81
629.51	29186.48
629.66	29113.92
629.81	29259.04
629.96	29177.12
630.11	29092.86
630.26	29008.60
630.41	29336.27
630.56	28811.99
630.71	29097.54
630.86	29046.05
631.01	28954.77
631.16	29369.04
631.31	29149.03
631.46	28769.86
631.61	29127.97
631.76	28966.47
631.91	28835.40
632.06	28999.24
632.21	28861.15
632.36	28858.81
632.51	28524.11
632.66	28816.68
632.81	28580.28
632.96	29050.73
633.10	29078.82
633.25	28751.14
633.40	28893.91
633.55	29123.29
633.70	28697.31
633.85	28458.57
634.00	28580.28
634.15	28938.38
634.30	28561.56
634.45	28474.96
634.60	28388.36
634.75	28638.80
634.90	28556.88
635.05	28790.93
635.19	28779.23
635.34	28788.59
635.49	28533.47
635.64	28584.96
635.79	28505.38
635.94	28437.51
636.09	28610.71
636.24	28493.68
636.39	28297.08
636.53	28240.90
636.68	28315.80
636.83	28369.63
636.98	28367.29
637.13	28224.52
637.28	28685.61
637.43	28467.94
637.57	28769.86
637.72	28261.97
637.87	28325.16
638.02	28322.82
638.17	28194.09
638.32	27676.83
638.46	27857.06
638.61	27728.33
638.76	27777.48
638.91	28023.23
639.06	28367.29
639.20	28222.18
639.35	28219.84
639.50	27859.40
639.65	28268.99
639.80	28264.31
639.94	28020.89
640.09	28240.90
640.24	27910.89
640.39	27824.29
640.54	27835.99
640.68	27285.97
640.83	27707.26
640.98	27639.39
641.13	27817.27
641.27	27747.05
641.42	27843.01
641.57	27475.55
641.72	27924.93
641.86	27812.59
642.01	27496.61
642.16	27604.28
642.31	27660.45
642.45	27623.00
642.60	27597.26
642.75	27538.74
642.90	27297.67
643.04	27695.56
643.19	27300.01
643.34	27482.57
643.48	27466.19
643.63	27648.75
643.78	27571.51
643.93	27208.73
644.07	27442.78
644.22	28212.82
644.37	27810.25
644.51	27592.58
644.66	27566.83
644.81	27770.46
644.95	27311.71
645.10	27536.40
645.25	27412.35
645.39	27534.06
645.54	27295.33
645.69	27168.94
645.83	27440.44
645.98	27175.96
646.13	27105.74
646.27	27658.11
646.42	27517.68
646.57	27576.19
646.71	27005.10
646.86	27021.48
647.00	27239.15
647.15	27365.54
647.30	27117.45
647.44	27026.17
647.59	26946.59
647.74	27014.46
647.88	26607.21
648.03	27234.47
648.17	27440.44
648.32	27281.28
648.47	27475.55
648.61	26904.46
648.76	27030.85
648.90	27178.30
649.05	27168.94
649.20	26986.38
649.34	27360.86
649.49	26785.09
649.63	26588.49
649.78	26960.63
649.92	26672.74
650.07	27173.62
650.21	26810.84
650.36	26803.82
650.51	26951.27
650.65	26808.50
650.80	26864.67
650.94	26792.11
651.09	26934.88
651.23	26448.05
651.38	26647.00
651.52	26829.56
651.67	26698.49
651.81	26864.67
651.96	27056.59
652.10	26885.73
652.25	26859.99
652.39	27033.19
652.54	26808.50
652.68	26616.57
652.83	26691.47
652.97	26434.01
653.12	26483.16
653.26	26508.91
653.41	26986.38
653.55	26614.23
653.70	26473.80
653.84	26548.70
653.99	26342.73
654.13	26504.23
654.27	26450.39
654.42	26307.62
654.56	26429.33
654.71	26525.29
654.85	26438.69
655.00	26242.09
655.14	26546.36
655.29	26279.54
655.43	26307.62
655.57	26216.34
655.72	26197.62
655.86	26185.91
656.01	26134.42
656.15	26331.03
656.30	26078.25
656.44	25954.20
656.58	25949.52
656.73	25979.95
656.87	25860.58
657.01	25851.22
657.16	26279.54
657.30	26284.22
657.45	26054.84
657.59	25635.89
657.73	25888.67
657.88	26106.34
658.02	25788.02
658.16	25722.49
658.31	25483.75
658.45	25568.01
658.60	25626.53
658.74	25813.77
658.88	25923.77
659.03	25359.70
659.17	25769.30
659.31	25593.76
659.46	25724.83
659.60	25720.15
659.74	25638.23
659.89	25766.96
660.03	25645.25
660.17	25584.40
660.32	25689.72
660.46	25631.21
660.60	25472.05
660.74	25308.21
660.89	25582.06
661.03	24889.26
661.17	25308.21
661.32	25223.95
661.46	25539.93
661.60	25317.57
661.74	25525.88
661.89	25362.04
662.03	25198.21
662.17	25181.82
662.31	25053.09
662.46	25123.31
662.60	25135.01
662.74	24587.33
662.88	24891.60
663.03	24837.76
663.17	24954.79
663.31	24507.75
663.45	24542.86
663.60	24463.28
663.74	24577.97
663.88	24652.86
664.02	24613.07
664.17	24999.26
664.31	24704.35
664.45	24589.67
664.59	24828.40
664.73	24575.62
664.88	24549.88
665.02	24423.49
665.16	24133.26
665.30	24666.91
665.44	24339.23
665.59	24196.46
665.73	23840.70
665.87	24109.86
666.01	24226.89
666.15	24039.64
666.29	24238.59
666.44	24250.29
666.58	24023.26
666.72	24128.58
666.86	24135.60
667.00	24215.18
667.14	24079.43
667.28	23819.63
667.43	23971.77
667.57	23946.02
667.71	23506.00
667.85	23779.84
667.99	23534.09
668.13	23690.90
668.27	23573.88
668.41	23730.69
668.56	23711.97
668.70	23365.57
668.84	23857.08
668.98	23419.40
669.12	23655.79
669.26	23880.49
669.40	23669.84
669.54	23751.76
669.68	23473.23
669.82	23285.99
669.96	22881.08
670.10	22993.42
670.25	23386.63
670.39	23316.42
670.53	23122.15
670.67	23026.19
670.81	23344.50
670.95	22883.42
671.09	23161.94
671.23	23073.00
671.37	23178.33
671.51	22593.19
671.65	23335.14
671.79	22782.77
671.93	22817.88
672.07	22630.64
672.21	22602.55
672.35	22852.99
672.49	22567.45
672.63	22551.06
672.77	22490.21
672.91	22534.68
673.05	22401.27
673.19	22244.45
673.33	22429.35
673.47	22134.45
673.61	22558.08
673.75	22593.19
673.89	22085.30
674.03	22338.07
674.17	22352.12
674.31	22188.28
674.45	21855.92
674.59	22150.83
674.73	22272.54
674.87	21818.47
675.01	21586.76
675.15	21907.41
675.29	21598.46
675.43	21549.31
675.56	21638.25
675.70	21722.51
675.84	21579.74
675.98	21120.99
676.12	21678.04
676.26	21724.85
676.40	21642.93
676.54	21418.24
676.68	21104.61
676.82	20861.19
676.96	21270.79
677.10	20926.73
677.23	20748.85
677.37	20774.60
677.51	20947.79
677.65	20842.47
677.79	20933.75
677.93	20666.93
678.07	20304.15
678.21	20428.20
678.34	20807.36
678.48	20528.84
678.62	20379.04
678.76	20524.16
678.90	20332.23
679.04	20475.01
679.18	20091.16
679.31	20086.48
679.45	20140.31
679.59	19840.72
679.73	20037.33
679.87	19875.83
680.00	19765.82
680.14	19754.12
680.28	19625.39
680.42	19922.64
680.56	20264.36
680.70	19637.09
680.83	19850.08
680.97	19597.31
681.11	19850.08
681.25	19201.76
681.39	19176.01
681.52	19480.28
681.66	19101.11
681.80	19325.80
681.94	19087.07
682.07	19105.79
682.21	18771.10
682.35	18967.70
682.49	18930.25
682.62	18895.14
682.76	18799.18
682.90	18705.56
683.04	18743.01
683.17	18789.82
683.31	18853.02
683.45	18698.54
683.59	18672.79
683.72	18525.34
683.86	18665.77
684.00	18150.85
684.13	18265.54
684.27	18106.38
684.41	18155.54
684.55	17865.31
684.68	17860.63
684.82	18040.85
684.96	17956.59
685.09	17752.96
685.23	17834.88
685.37	17364.43
685.50	17612.53
685.64	17886.37
685.78	17532.95
685.91	17788.07
686.05	17776.37
686.19	17420.61
686.32	17397.20
686.46	17158.47
686.60	17460.40
686.73	17322.30
686.87	17247.41
687.01	17020.38
687.14	16950.16
687.28	16776.96
687.42	16669.30
687.55	16837.81
687.69	16879.94
687.82	16650.57
687.96	16851.86
688.10	16456.31
688.23	16666.95
688.37	16678.66
688.50	16627.17
688.64	16580.36
688.78	16416.52
688.91	16341.62
689.05	16397.79
689.18	16374.39
689.32	16159.06
689.46	16044.37
689.59	16297.15
689.73	16030.33
689.86	16027.99
690.00	15882.88
690.13	16051.39
690.27	15817.34
690.41	15555.20
690.54	15644.14
690.68	15709.68
690.81	15672.23
690.95	15730.74
691.08	15702.65
691.22	15508.39
691.35	15356.25
691.49	15494.35
691.62	15215.82
691.76	15276.68
691.89	15311.78
692.03	15068.37
692.16	14846.02
692.30	14668.14
692.43	14728.99
692.57	14471.53
692.70	14831.97
692.84	14654.09
692.97	14616.65
693.11	14541.75
693.24	14457.49
693.38	14714.95
693.51	14450.47
693.65	14377.91
693.78	14427.06
693.92	14436.42
694.05	14366.21
694.19	14150.88
694.32	14059.60
694.45	13963.64
694.59	13982.36
694.72	14040.87
694.86	13738.94
694.99	14064.28
695.13	14017.47
695.26	13862.99
695.39	13631.28
695.53	13631.28
695.66	13516.59
695.80	13685.11
695.93	13851.29
696.07	13654.69
696.20	13502.55
696.33	13525.96
696.47	13418.29
696.60	13317.65
696.73	13254.45
696.87	13200.62
697.00	13179.56
697.14	12959.55
697.27	12709.11
697.40	13050.83
697.54	12713.79
697.67	12617.83
697.80	12585.06
697.94	12549.95
698.07	12690.38
698.21	12592.08
698.34	12685.70
698.47	12505.48
698.61	12627.19
698.74	12521.87
698.87	12606.13
699.01	12315.90
699.14	12189.51
699.27	12215.26
699.40	12219.94
699.54	12182.49
699.67	12086.53
699.80	12035.03
699.94	11765.87
700.07	11822.05
700.20	11826.73
700.34	11501.39
700.47	11573.95
700.60	11644.17
700.73	11599.70
700.87	11662.89
701.00	11595.01
701.13	11557.57
701.26	11414.79
701.40	11555.22
701.53	11489.69
701.66	11627.78
701.79	11208.83
701.93	11393.73
702.06	11220.53
702.19	11150.31
702.32	10946.69
702.46	11162.01
702.59	10972.43
702.72	10747.74
702.85	10785.19
702.99	10675.18
703.12	10953.71
703.25	10855.40
703.38	10558.16
703.51	10565.18
703.65	10792.21
703.78	10630.71
703.91	10553.48
704.04	10492.62
704.17	10368.57
704.31	10434.11
704.44	10501.98
704.57	10188.35
704.70	10410.70
704.83	10085.37
704.96	10193.03
705.10	10111.11
705.23	9926.21
>>>>>End Processed Spectral Data<<<<<
