SpectraSuite Data File
++++++++++++++++++++++++++++++++++++
Date: Fri Oct 18 13:58:04 GMT-05:00 2013
User: bianchi
Dark Spectrum Present: No
Reference Spectrum Present: No
Number of Sampled Component Spectra: 1
Spectrometers: USB2+H05261
Integration Time (usec): 50000 (USB2+H05261)
Spectra Averaged: 1 (USB2+H05261)
Boxcar Smoothing: 0 (USB2+H05261)
Correct for Electrical Dark: No (USB2+H05261)
Strobe/Lamp Enabled: No (USB2+H05261)
Correct for Detector Non-linearity: No (USB2+H05261)
Correct for Stray Light: No (USB2+H05261)
Number of Pixels in Processed Spectrum: 2048
>>>>>Begin Processed Spectral Data<<<<<
365.73	0.00
365.92	0.00
366.12	0.00
366.32	0.00
366.52	0.00
366.72	0.00
366.91	0.00
367.11	0.00
367.31	0.00
367.51	0.00
367.70	0.00
367.90	0.00
368.10	0.00
368.30	0.00
368.49	0.00
368.69	0.00
368.89	0.00
369.09	0.00
369.28	0.00
369.48	0.00
369.68	0.00
369.87	0.00
370.07	0.00
370.27	0.00
370.47	0.00
370.66	63.19
370.86	135.75
371.06	128.73
371.25	124.05
371.45	72.56
371.65	182.56
371.84	140.43
372.04	173.20
372.24	145.11
372.44	170.86
372.63	222.35
372.83	194.26
373.03	198.95
373.22	187.24
373.42	229.37
373.62	227.03
373.81	271.50
374.01	234.05
374.21	243.42
374.40	215.33
374.60	205.97
374.79	248.10
374.99	283.20
375.19	231.71
375.38	231.71
375.58	269.16
375.78	344.06
375.97	257.46
376.17	353.42
376.37	255.12
376.56	262.14
376.76	227.03
376.95	245.76
377.15	252.78
377.35	287.89
377.54	269.16
377.74	227.03
377.93	299.59
378.13	285.55
378.33	299.59
378.52	182.56
378.72	290.23
378.91	224.69
379.11	264.48
379.31	250.44
379.50	283.20
379.70	276.18
379.89	259.80
380.09	365.12
380.28	266.82
380.48	365.12
380.68	266.82
380.87	297.25
381.07	339.38
381.26	393.21
381.46	327.68
381.65	264.48
381.85	308.95
382.04	348.74
382.24	372.15
382.43	367.46
382.63	339.38
382.83	301.93
383.02	315.97
383.22	372.15
383.41	348.74
383.61	299.59
383.80	437.68
384.00	367.46
384.19	337.04
384.39	381.51
384.58	393.21
384.78	414.27
384.97	304.27
385.17	428.32
385.36	379.17
385.56	433.00
385.75	313.63
385.95	393.21
386.14	390.87
386.34	430.66
386.53	461.09
386.72	372.15
386.92	435.34
387.11	423.64
387.31	423.64
387.50	393.21
387.70	402.57
387.89	379.17
388.09	425.98
388.28	418.96
388.48	477.47
388.67	437.68
388.86	524.28
389.06	444.70
389.25	449.38
389.45	491.51
389.64	484.49
389.84	545.34
390.03	514.92
390.22	433.00
390.42	489.17
390.61	458.74
390.81	468.11
391.00	454.06
391.19	519.60
391.39	383.85
391.58	468.11
391.78	510.24
391.97	552.37
392.16	472.79
392.36	496.19
392.55	517.26
392.75	486.83
392.94	519.60
393.13	559.39
393.33	601.52
393.52	543.00
393.71	533.64
393.91	613.22
394.10	528.96
394.29	622.58
394.49	606.20
394.68	585.13
394.88	582.79
395.07	587.47
395.26	547.69
395.46	594.50
395.65	709.18
395.84	690.46
396.04	674.07
396.23	718.54
396.42	681.10
396.62	650.67
396.81	603.86
397.00	713.86
397.19	709.18
397.39	650.67
397.58	571.09
397.77	627.26
397.97	660.03
398.16	688.12
398.35	737.27
398.55	631.94
398.74	697.48
398.93	739.61
399.12	739.61
399.32	681.10
399.51	634.29
399.70	727.91
399.90	734.93
400.09	730.25
400.28	716.20
400.47	744.29
400.67	849.61
400.86	812.17
401.05	732.59
401.24	880.04
401.44	835.57
401.63	842.59
401.82	814.51
402.01	793.44
402.21	816.85
402.40	809.83
402.59	807.48
402.78	870.68
402.97	814.51
403.17	912.81
403.36	889.40
403.55	912.81
403.74	933.87
403.93	901.11
404.13	938.55
404.32	978.34
404.51	868.34
404.70	966.64
404.89	978.34
405.09	1006.43
405.28	952.60
405.47	978.34
405.66	910.47
405.85	1027.50
406.05	1093.03
406.24	938.55
406.43	1032.18
406.62	936.21
406.81	1062.60
407.00	959.62
407.20	990.05
407.39	910.47
407.58	1114.10
407.77	1039.20
407.96	1027.50
408.15	1144.52
408.34	1011.11
408.54	1069.62
408.73	1139.84
408.92	1107.07
409.11	1104.73
409.30	1165.59
409.49	1151.54
409.68	1226.44
409.87	1125.80
410.07	1153.88
410.26	1259.21
410.45	1240.48
410.64	1203.04
410.83	1277.93
411.02	1219.42
411.21	1296.66
411.40	1240.48
411.59	1238.14
411.78	1203.04
411.98	1308.36
412.17	1336.45
412.36	1296.66
412.55	1310.70
412.74	1313.04
412.93	1355.17
413.12	1425.39
413.31	1416.02
413.50	1441.77
413.69	1397.30
413.88	1511.99
414.07	1453.47
414.26	1409.00
414.45	1607.95
414.64	1519.01
414.83	1486.24
415.02	1556.46
415.22	1516.67
415.41	1610.29
415.60	1509.65
415.79	1600.93
415.98	1624.33
416.17	1645.40
416.36	1558.80
416.55	1717.95
416.74	1643.06
416.93	1610.29
417.12	1652.42
417.31	1760.08
417.50	1713.27
417.69	1661.78
417.88	1764.76
418.07	1743.70
418.26	1732.00
418.45	1902.86
418.64	1874.77
418.83	1813.92
419.02	1755.40
419.21	1757.74
419.39	1776.47
419.58	1912.22
419.77	1827.96
419.96	1886.47
420.15	1916.90
420.34	1912.22
420.53	1977.75
420.72	1907.54
420.91	1881.79
421.10	2043.29
421.29	1998.82
421.48	1846.68
421.67	1956.69
421.86	1963.71
422.05	1987.11
422.24	1937.96
422.43	1928.60
422.61	1952.01
422.80	1963.71
422.99	2101.80
423.18	2062.01
423.37	1914.56
423.56	2073.71
423.75	2115.84
423.94	1914.56
424.13	1865.41
424.32	2001.16
424.50	2008.18
424.69	2076.06
424.88	2026.90
425.07	2024.56
425.26	2045.63
425.45	2024.56
425.64	1991.80
425.83	2045.63
426.01	2092.44
426.20	1973.07
426.39	2136.91
426.58	2118.18
426.77	1994.14
426.96	2092.44
427.15	2087.76
427.33	2062.01
427.52	2087.76
427.71	2263.30
427.90	2195.42
428.09	2115.84
428.28	2134.57
428.46	2277.34
428.65	2235.21
428.84	2293.72
429.03	2305.43
429.22	2202.44
429.40	2277.34
429.59	2270.32
429.78	2111.16
429.97	2251.60
430.16	2267.98
430.34	2408.41
430.53	2373.30
430.72	2410.75
430.91	2401.39
431.10	2282.02
431.28	2354.58
431.47	2375.64
431.66	2389.69
431.85	2406.07
432.03	2513.74
432.22	2452.88
432.41	2452.88
432.60	2492.67
432.79	2415.43
432.97	2359.26
433.16	2572.25
433.35	2499.69
433.54	2445.86
433.72	2548.84
433.91	2464.58
434.10	2516.08
434.28	2555.86
434.47	2621.40
434.66	2609.70
434.85	2752.47
435.03	2628.42
435.22	2651.83
435.41	2628.42
435.59	2705.66
435.78	2724.38
435.97	2825.03
436.16	2743.11
436.34	2544.16
436.53	2789.92
436.72	2729.06
436.90	2715.02
437.09	2684.59
437.28	2787.58
437.46	2899.92
437.65	2787.58
437.84	2743.11
438.02	2864.82
438.21	2909.29
438.40	2832.05
438.58	2918.65
438.77	2902.26
438.96	2869.50
439.14	3012.27
439.33	3009.93
439.52	3007.59
439.70	2998.23
439.89	2913.97
440.08	2986.52
440.26	3162.06
440.45	3112.91
440.63	3052.06
440.82	3082.49
441.01	3141.00
441.19	3211.22
441.38	3187.81
441.57	3204.19
441.75	3281.43
441.94	3412.50
442.12	3220.58
442.31	3337.60
442.50	3187.81
442.68	3281.43
442.87	3393.78
443.05	3382.07
443.24	3398.46
443.43	3426.54
443.61	3456.97
443.80	3543.57
443.98	3503.78
444.17	3368.03
444.35	3391.44
444.54	3559.95
444.73	3447.61
444.91	3501.44
445.10	3379.73
445.28	3510.80
445.47	3358.67
445.65	3372.71
445.84	3613.79
446.02	3545.91
446.21	3522.51
446.39	3578.68
446.58	3499.10
446.77	3419.52
446.95	3578.68
447.14	3564.64
447.32	3611.45
447.51	3606.77
447.69	3475.70
447.88	3527.19
448.06	3454.63
448.25	3527.19
448.43	3637.19
448.62	3606.77
448.80	3524.85
448.99	3543.57
449.17	3634.85
449.36	3597.40
449.54	3698.05
449.73	3744.86
449.91	3740.18
450.10	3782.31
450.28	3744.86
450.46	3700.39
450.65	3679.32
450.83	3695.71
451.02	3936.78
451.20	3847.84
451.39	3840.82
451.57	3733.15
451.76	3791.67
451.94	3922.74
452.13	3859.54
452.31	3770.60
452.49	3777.62
452.68	3878.27
452.86	3761.24
453.05	3957.85
453.23	4023.38
453.42	3833.80
453.60	3943.80
453.78	3976.57
453.97	3985.93
454.15	4030.40
454.34	3889.97
454.52	4039.76
454.70	4121.68
454.89	4140.41
455.07	4002.32
455.26	4149.77
455.44	4325.31
455.62	4063.17
455.81	3962.53
455.99	4133.39
456.17	4264.46
456.36	3892.31
456.54	4297.22
456.73	4276.16
456.91	4334.67
457.09	4339.35
457.28	4325.31
457.46	4252.75
457.64	4351.06
457.83	4414.25
458.01	4362.76
458.19	4610.86
458.38	4393.19
458.56	4554.68
458.74	4472.76
458.93	4437.66
459.11	4521.92
459.29	4381.48
459.48	4454.04
459.66	4526.60
459.84	4578.09
460.03	4674.05
460.21	4690.43
460.39	4585.11
460.57	4519.57
460.76	4681.07
460.94	4802.78
461.12	4629.58
461.31	4734.90
461.49	4713.84
461.67	4741.93
461.85	4905.76
462.04	4706.82
462.22	4940.87
462.40	4877.68
462.59	4788.74
462.77	4678.73
462.95	4884.70
463.13	4819.16
463.32	4858.95
463.50	4786.40
463.68	4807.46
463.86	5015.77
464.05	4912.78
464.23	4814.48
464.41	4957.25
464.59	4910.44
464.78	5041.51
464.96	4842.57
465.14	5121.09
465.32	4954.91
465.50	4964.28
465.69	4950.23
465.87	4912.78
466.05	5137.48
466.23	5074.28
466.41	5093.01
466.60	5277.91
466.78	5041.51
466.96	5076.62
467.14	5116.41
467.32	5128.11
467.51	5317.70
467.69	4936.19
467.87	5102.37
468.05	5268.55
468.23	5149.18
468.41	5144.50
468.60	5247.48
468.78	5289.61
468.96	5224.08
469.14	5320.04
469.32	5460.47
469.50	5266.21
469.69	5291.95
469.87	5469.83
470.05	5537.71
470.23	5659.42
470.41	5488.56
470.59	5425.36
470.77	5488.56
470.95	5483.88
471.14	5469.83
471.32	5633.67
471.50	5682.82
471.68	5715.59
471.86	5607.92
472.04	5844.32
472.22	5783.46
472.40	5640.69
472.58	5575.16
472.77	5919.21
472.95	5879.43
473.13	6012.84
473.31	5750.70
473.49	5914.53
473.67	5823.25
473.85	5907.51
474.03	6127.52
474.21	6001.13
474.39	6174.33
474.57	6031.56
474.75	6214.12
474.93	6282.00
475.12	6207.10
475.30	6260.93
475.48	6239.87
475.66	6448.18
475.84	6319.45
476.02	6480.94
476.20	6296.04
476.38	6567.54
476.56	6640.10
476.74	6612.01
476.92	6579.25
477.10	6686.91
477.28	6707.98
477.46	6836.70
477.64	6902.24
477.82	6874.15
478.00	7023.95
478.18	7148.00
478.36	7143.32
478.54	7211.19
478.72	7201.83
478.90	7232.26
479.08	7162.04
479.26	7208.85
479.44	7393.75
479.62	7496.74
479.80	7482.69
479.98	7468.65
480.16	7578.65
480.34	7545.89
480.52	7597.38
480.70	7733.13
480.88	7602.06
481.06	7866.54
481.24	7978.89
481.41	7779.94
481.59	8266.77
481.77	8098.25
481.95	8238.69
482.13	8353.37
482.31	8250.39
482.49	8510.19
482.67	8332.31
482.85	8655.30
483.03	8255.07
483.21	8589.77
483.39	8613.17
483.57	8631.90
483.74	8741.90
483.92	8814.46
484.10	8821.48
484.28	9090.64
484.46	9071.92
484.64	9303.63
484.82	9118.73
485.00	9256.82
485.18	9518.96
485.35	9635.99
485.53	9399.59
485.71	9605.56
485.89	9497.89
486.07	9874.72
486.25	9727.27
486.43	9942.60
486.61	10052.60
486.78	9998.77
486.96	10015.15
487.14	10235.16
487.32	10052.60
487.50	10237.50
487.68	10382.62
487.85	10354.53
488.03	10619.01
488.21	10803.91
488.39	10721.99
488.57	10743.06
488.75	10810.93
488.92	11023.92
489.10	11169.04
489.28	11026.26
489.46	11187.76
489.64	11171.38
489.81	11400.75
489.99	11262.66
490.17	11592.67
490.35	11747.15
490.53	11665.23
490.70	11803.32
490.88	11618.42
491.06	11833.75
491.24	11960.14
491.41	11974.18
491.59	12081.85
491.77	12152.06
491.95	12205.89
492.13	12271.43
492.30	12341.64
492.48	12409.52
492.66	12489.10
492.84	12423.56
493.01	12807.41
493.19	12678.68
493.37	13074.23
493.54	12936.14
493.72	12671.66
493.90	12950.18
494.08	13025.08
494.25	13317.65
494.43	13277.86
494.61	13343.39
494.79	13451.06
494.96	13420.63
495.14	13654.69
495.32	13788.10
495.49	13722.56
495.67	13893.42
495.85	14052.58
496.02	14083.00
496.20	13951.93
496.38	13844.27
496.55	14211.73
496.73	14326.42
496.91	14633.03
497.09	14525.36
497.26	14387.27
497.44	14471.53
497.62	14534.73
497.79	14782.82
497.97	15009.86
498.14	14885.81
498.32	15035.60
498.50	15115.18
498.67	14923.26
498.85	15140.93
499.03	15201.78
499.20	14806.23
499.38	15248.59
499.56	15386.68
499.73	15592.65
499.91	15569.24
500.08	15784.57
500.26	15482.64
500.44	15791.59
500.61	15580.95
500.79	15704.99
500.97	15812.66
501.14	16142.67
501.32	16098.20
501.49	16123.95
501.67	16002.24
501.84	16355.66
502.02	16215.23
502.20	16114.59
502.37	16374.39
502.55	16468.01
502.72	16203.53
502.90	16425.88
503.07	16318.22
503.25	16524.18
503.43	16168.42
503.60	16741.85
503.78	16994.63
503.95	16542.91
504.13	16877.60
504.30	16877.60
504.48	17015.69
504.65	17036.76
504.83	17397.20
505.01	17308.26
505.18	17195.92
505.36	17322.30
505.53	17233.36
505.71	17420.61
505.88	17315.28
506.06	17518.91
506.23	17385.50
506.41	17181.87
506.58	17781.05
506.76	17523.59
506.93	17881.69
507.11	17731.90
507.28	17703.81
507.46	17806.80
507.63	17991.70
507.81	18263.20
507.98	17926.16
508.16	18092.34
508.33	18080.64
508.50	18057.23
508.68	18120.43
508.85	18340.44
509.03	18319.37
509.20	18532.36
509.38	18523.00
509.55	18363.84
509.73	18555.77
509.90	18356.82
510.08	18597.90
510.25	18703.22
510.42	18801.52
510.60	18937.27
510.77	18937.27
510.95	19201.76
511.12	18553.43
511.30	19054.30
511.47	18909.19
511.64	19143.24
511.82	19417.08
511.99	19166.65
512.17	19623.05
512.34	19786.89
512.51	19501.34
512.69	19503.68
512.86	19241.54
513.04	19590.28
513.21	19777.53
513.38	19658.16
513.56	19836.04
513.73	20060.73
513.90	19744.76
514.08	19838.38
514.25	19742.42
514.43	19971.79
514.60	19742.42
514.77	20065.41
514.95	20276.06
515.12	19962.43
515.29	20409.47
515.47	20390.75
515.64	20446.92
515.81	20161.37
515.99	20610.76
516.16	20676.29
516.33	20734.81
516.51	20264.36
516.68	20900.98
516.85	20503.09
517.03	20589.69
517.20	20500.75
517.37	20737.15
517.54	20685.65
517.72	20858.85
517.89	20985.24
518.06	20938.43
518.24	21078.86
518.41	21057.80
518.58	21013.33
518.75	21446.33
518.93	21167.80
519.10	21085.89
519.27	21542.29
519.45	21338.66
519.62	21111.63
519.79	21472.07
519.96	21401.86
520.14	21348.03
520.31	21324.62
520.48	21916.78
520.65	21668.68
520.83	21853.58
521.00	21446.33
521.17	22045.51
521.34	21738.90
521.52	22141.47
521.69	21867.63
521.86	21935.50
522.03	22190.62
522.20	21928.48
522.38	22153.17
522.55	22120.40
522.72	21991.67
522.89	22122.74
523.07	22462.12
523.24	22129.77
523.41	22576.81
523.58	22312.33
523.75	22518.29
523.92	22359.14
524.10	22565.10
524.27	22670.43
524.44	22885.76
524.61	22586.17
524.78	22686.81
524.96	22609.58
525.13	22759.37
525.30	22607.23
525.47	22696.17
525.64	22579.15
525.81	23051.94
525.98	23129.17
526.16	22808.52
526.33	23089.38
526.50	23346.84
526.67	23168.96
526.84	23101.09
527.01	23133.86
527.18	22867.03
527.36	23426.42
527.53	23721.33
527.70	23496.64
527.87	23726.01
528.04	23407.70
528.21	23587.92
528.38	23475.57
528.55	23597.28
528.72	23400.68
528.89	23929.64
529.07	23707.29
529.24	23992.83
529.41	23817.29
529.58	23892.19
529.75	23997.51
529.92	24067.73
530.09	23667.50
530.26	24020.92
530.43	24119.22
530.60	24044.32
530.77	23861.76
530.94	24130.92
531.11	24102.84
531.28	23997.51
531.46	24414.13
531.63	24364.98
531.80	24435.19
531.97	24620.10
532.14	24589.67
532.31	24257.31
532.48	24383.70
532.65	24287.74
532.82	24472.64
532.99	24538.18
533.16	24266.67
533.33	24772.23
533.50	24802.66
533.67	24725.42
533.84	24357.96
534.01	24720.74
534.18	24582.65
534.35	24957.13
534.52	24812.02
534.69	24943.09
534.86	24666.91
535.03	25017.99
535.20	25256.72
535.37	25249.70
535.54	24891.60
535.71	25331.62
535.88	25205.23
536.05	24912.66
536.22	25099.90
536.38	25324.60
536.55	25223.95
536.72	25469.71
536.89	25193.53
537.06	25289.49
537.23	25476.73
537.40	25579.71
537.57	25359.70
537.74	25607.80
537.91	25755.26
538.08	25659.29
538.25	25366.73
538.42	25708.44
538.59	25776.32
538.75	25759.94
538.92	25532.90
539.09	25912.07
539.26	25844.20
539.43	25914.41
539.60	26064.21
539.77	26380.18
539.94	26171.87
540.11	25752.91
540.28	25788.02
540.44	25830.15
540.61	25734.19
540.78	25940.16
540.95	25724.83
541.12	26293.58
541.29	25865.26
541.46	26253.79
541.62	26174.21
541.79	26382.52
541.96	25738.87
542.13	26061.87
542.30	26382.52
542.47	26459.76
542.63	26731.26
542.80	26649.34
542.97	26651.68
543.14	26761.69
543.31	26597.85
543.48	26848.29
543.64	27108.08
543.81	26838.92
543.98	27103.40
544.15	26824.88
544.32	26747.64
544.48	27501.29
544.65	27168.94
544.82	26932.54
544.99	26859.99
545.16	26677.43
545.32	26986.38
545.49	27243.84
545.66	27262.56
545.83	27405.33
546.00	27477.89
546.16	27454.48
546.33	26984.04
546.50	27051.91
546.67	27056.59
546.83	26654.02
547.00	27199.37
547.17	27190.00
547.34	27257.88
547.50	27545.76
547.67	27740.03
547.84	27648.75
548.00	27300.01
548.17	27615.98
548.34	27625.34
548.51	27730.67
548.67	28044.30
548.84	27559.81
549.01	27513.00
549.18	27440.44
549.34	27613.64
549.51	27866.42
549.68	27489.59
549.84	27861.74
550.01	27969.40
550.18	27702.58
550.34	27999.83
550.51	28053.66
550.68	28070.04
550.84	27496.61
551.01	27735.35
551.18	27782.16
551.34	27941.32
551.51	27962.38
551.68	27789.18
551.84	27964.72
552.01	27740.03
552.18	28423.47
552.34	28252.61
552.51	28224.52
552.68	27882.80
552.84	28634.11
553.01	28278.35
553.18	28147.28
553.34	28292.40
553.51	28601.35
553.67	28861.15
553.84	28961.79
554.01	28538.15
554.17	28542.83
554.34	28503.04
554.51	28180.05
554.67	28678.58
554.84	28404.74
555.00	28395.38
555.17	28716.03
555.33	28339.21
555.50	28428.15
555.67	28720.71
555.83	28732.42
556.00	28781.57
556.16	28687.95
556.33	28489.00
556.50	28699.65
556.66	29102.22
556.83	28959.45
556.99	29333.93
557.16	29305.85
557.32	29111.58
557.49	28765.18
557.65	28685.61
557.82	28744.12
557.98	28837.74
558.15	28987.53
558.32	29261.38
558.48	28933.70
558.65	29340.96
558.81	29380.74
558.98	28989.88
559.14	29090.52
559.31	28858.81
559.47	29156.05
559.64	29022.64
559.80	29549.26
559.97	29560.97
560.13	29064.77
560.30	29497.77
560.46	29230.95
560.63	29191.16
560.79	29144.35
560.96	29212.23
561.12	29560.97
561.29	29385.43
561.45	29509.47
561.61	29329.25
561.78	29483.73
561.94	29881.62
562.11	29582.03
562.27	29685.01
562.44	29359.68
562.60	29453.30
562.77	29420.53
562.93	29221.59
563.10	29991.62
563.26	29280.10
563.42	29998.65
563.59	29457.98
563.75	29212.23
563.92	29654.59
564.08	29448.62
564.24	29776.30
564.41	29535.22
564.57	29450.96
564.74	29652.25
564.90	29577.35
565.07	29954.18
565.23	29741.19
565.39	29598.41
565.56	29811.40
565.72	29532.88
565.88	29350.32
566.05	29553.94
566.21	29607.78
566.38	29596.07
566.54	29645.23
566.70	29986.94
566.87	30000.99
567.03	30068.86
567.19	30139.08
567.36	30129.72
567.52	29893.32
567.68	29930.77
567.85	29823.11
568.01	29984.60
568.17	29900.34
568.34	29830.13
568.50	29694.38
568.66	29944.81
568.83	30162.48
568.99	29965.88
569.15	30064.18
569.32	29467.34
569.48	29883.96
569.64	30202.27
569.81	30005.67
569.97	29804.38
570.13	29986.94
570.30	30085.25
570.46	29869.92
570.62	30206.95
570.78	29825.45
570.95	30335.68
571.11	29935.45
571.27	29663.95
571.43	29853.53
571.60	30010.35
571.76	30188.23
571.92	30408.24
572.09	30160.14
572.25	30120.35
572.41	29844.17
572.57	30288.87
572.74	30080.56
572.90	29764.59
573.06	30015.03
573.22	29963.54
573.38	30281.85
573.55	29937.79
573.71	30511.22
573.87	30562.72
574.03	30436.33
574.20	30370.79
574.36	30174.19
574.52	30059.50
574.68	29778.64
574.84	29806.72
575.01	30340.36
575.17	30141.42
575.33	30155.46
575.49	30089.93
575.65	30497.18
575.82	30129.72
575.98	30302.92
576.14	30518.25
576.30	30286.53
576.46	30122.69
576.62	29944.81
576.79	30441.01
576.95	30178.87
577.11	30288.87
577.27	30342.70
577.43	30000.99
577.59	30487.82
577.75	30600.16
577.92	30408.24
578.08	30108.65
578.24	30223.34
578.40	30096.95
578.56	30272.49
578.72	30452.71
578.88	30508.88
579.04	30342.70
579.21	30190.57
579.37	30347.39
579.53	30438.67
579.69	29968.22
579.85	30445.69
580.01	30323.98
580.17	30333.34
580.33	30242.06
580.49	30312.28
580.65	30462.07
580.82	30340.36
580.98	30628.25
581.14	30300.58
581.30	30665.70
581.46	30424.62
581.62	30068.86
581.78	30092.27
581.94	30712.51
582.10	30291.21
582.26	30611.87
582.42	30331.00
582.58	30616.55
582.74	30450.37
582.90	30415.26
583.06	30455.05
583.22	30654.00
583.38	30628.25
583.54	30394.20
583.70	30614.21
583.86	30511.22
584.02	30506.54
584.18	30192.91
584.34	30588.46
584.50	30600.16
584.66	30639.95
584.82	30235.04
584.98	30742.94
585.14	30654.00
585.30	30232.70
585.46	30225.68
585.62	30331.00
585.78	30331.00
585.94	30426.96
586.10	30499.52
586.26	30614.21
586.42	30857.62
586.58	30555.69
586.74	30508.88
586.90	30562.72
587.06	30637.61
587.22	30494.84
587.38	30438.67
587.54	30876.35
587.70	30976.99
587.86	30689.10
588.02	31173.60
588.18	30595.48
588.34	30551.01
588.49	30792.09
588.65	30756.98
588.81	30249.08
588.97	30623.57
589.13	30448.03
589.29	30644.63
589.45	30560.37
589.61	30560.37
589.77	30834.22
589.93	31112.74
590.08	30866.98
590.24	31098.70
590.40	30623.57
590.56	30775.70
590.72	30609.53
590.88	30958.27
591.04	30810.81
591.20	31161.89
591.35	31222.75
591.51	31131.47
591.67	31328.07
591.83	31288.28
591.99	30967.63
592.15	30946.56
592.31	30862.30
592.46	30499.52
592.62	30602.50
592.78	30726.55
592.94	30871.67
593.10	30740.60
593.26	31054.23
593.41	30829.54
593.57	30866.98
593.73	31115.08
593.89	31173.60
594.05	31288.28
594.20	30918.48
594.36	30946.56
594.52	30630.59
594.68	30717.19
594.84	30850.60
594.99	31065.93
595.15	31133.81
595.31	31470.84
595.47	31197.00
595.62	31185.30
595.78	31119.76
595.94	31091.68
596.10	30766.34
596.25	31058.91
596.41	30981.67
596.57	30913.80
596.73	30984.01
596.88	31023.80
597.04	31299.98
597.20	31391.26
597.36	30948.90
597.51	31119.76
597.67	31091.68
597.83	31094.02
597.99	31213.38
598.14	31351.48
598.30	30864.64
598.46	31028.48
598.61	30932.52
598.77	30796.77
598.93	31012.10
599.09	31311.69
599.24	31768.09
599.40	31133.81
599.56	31641.70
599.71	30927.84
599.87	31295.30
600.03	31016.78
600.18	30778.04
600.34	30834.22
600.50	31508.29
600.65	31110.40
600.81	31393.61
600.97	31124.44
601.12	31365.52
601.28	31428.71
601.44	31236.79
601.59	30976.99
601.75	31112.74
601.91	31398.29
602.06	30974.65
602.22	30644.63
602.37	30754.64
602.53	30876.35
602.69	31419.35
602.84	31435.74
603.00	31307.01
603.16	31309.35
603.31	31285.94
603.47	31419.35
603.62	31061.25
603.78	30869.33
603.94	31218.07
604.09	31047.21
604.25	30824.86
604.40	30803.79
604.56	30939.54
604.71	31187.64
604.87	31445.10
605.03	31290.62
605.18	31292.96
605.34	30822.51
605.49	30864.64
605.65	30756.98
605.80	31002.74
605.96	31056.57
606.12	30974.65
606.27	31168.91
606.43	30958.27
606.58	31264.88
606.74	30955.93
606.89	31103.38
607.05	31236.79
607.20	30806.13
607.36	30836.56
607.51	31208.70
607.67	30831.88
607.82	31154.87
607.98	31023.80
608.13	31564.46
608.29	31440.42
608.44	31091.68
608.60	31140.83
608.75	31140.83
608.91	30494.84
609.06	30752.30
609.22	31208.70
609.37	30974.65
609.53	31105.72
609.68	30988.69
609.84	30998.06
609.99	30625.91
610.15	30829.54
610.30	30649.32
610.46	30934.86
610.61	31030.82
610.76	30944.22
610.92	31220.41
611.07	30789.75
611.23	31082.31
611.38	30625.91
611.54	30448.03
611.69	30522.93
611.84	30948.90
612.00	30710.17
612.15	30368.45
612.31	30836.56
612.46	30654.00
612.62	30923.16
612.77	30700.81
612.92	30590.80
613.08	30543.99
613.23	30551.01
613.39	30429.30
613.54	30562.72
613.69	30618.89
613.85	30300.58
614.00	30885.71
614.15	30696.13
614.31	30476.12
614.46	30455.05
614.62	30331.00
614.77	30431.65
614.92	30588.46
615.08	30522.93
615.23	30689.10
615.38	30469.09
615.54	30066.52
615.69	30389.52
615.84	30546.33
616.00	30359.09
616.15	30349.73
616.30	30340.36
616.46	30632.93
616.61	30141.42
616.76	30799.11
616.92	30291.21
617.07	30403.56
617.22	29788.00
617.37	30052.48
617.53	30511.22
617.68	29907.37
617.83	30216.32
617.99	29862.90
618.14	30338.02
618.29	30422.28
618.45	30361.43
618.60	29745.87
618.75	30258.45
618.90	29743.53
619.06	30298.23
619.21	29827.79
619.36	30026.73
619.51	30134.40
619.67	29769.27
619.82	29535.22
619.97	29790.34
620.12	29848.85
620.28	29762.25
620.43	30082.91
620.58	30293.55
620.73	30045.46
620.89	30316.96
621.04	30143.76
621.19	29963.54
621.34	29766.93
621.49	29661.61
621.65	30024.39
621.80	29890.98
621.95	29474.37
622.10	29954.18
622.25	29811.40
622.41	29413.51
622.56	29659.27
622.71	29926.09
622.86	29680.33
623.01	29598.41
623.16	29530.54
623.32	29600.76
623.47	29163.08
623.62	29816.08
623.77	29500.11
623.92	29340.96
624.07	29434.58
624.23	29244.99
624.38	29762.25
624.53	29397.13
624.68	29788.00
624.83	29645.23
624.98	29727.14
625.13	29291.80
625.29	29617.14
625.44	29411.17
625.59	29371.38
625.74	29638.20
625.89	29024.98
626.04	29057.75
626.19	29200.52
626.34	29153.71
626.49	29177.12
626.65	29219.25
626.80	29296.49
626.95	29277.76
627.10	29467.34
627.25	29507.13
627.40	29202.86
627.55	29060.09
627.70	28919.66
627.85	29043.71
628.00	28945.41
628.15	28886.89
628.30	29015.62
628.45	29132.65
628.60	29118.60
628.76	29273.08
628.91	29282.44
629.06	28842.42
629.21	29081.16
629.36	29420.53
629.51	28978.17
629.66	28678.58
629.81	28819.02
629.96	28580.28
630.11	28594.32
630.26	28521.77
630.41	28533.47
630.56	28751.14
630.71	29158.39
630.86	29029.66
631.01	28718.37
631.16	28680.92
631.31	28547.51
631.46	28444.53
631.61	28919.66
631.76	28655.18
631.91	28769.86
632.06	28442.19
632.21	28978.17
632.36	28865.83
632.51	28273.67
632.66	28648.16
632.81	28327.50
632.96	28629.43
633.10	28404.74
633.25	28718.37
633.40	28294.74
633.55	28594.32
633.70	28304.10
633.85	28243.24
634.00	28030.26
634.15	28128.56
634.30	28098.13
634.45	28353.25
634.60	27974.08
634.75	28271.33
634.90	28070.04
635.05	28514.75
635.19	28496.02
635.34	28400.06
635.49	28163.67
635.64	28184.73
635.79	28229.20
635.94	28063.02
636.09	28114.52
636.24	27690.88
636.39	27817.27
636.53	28149.62
636.68	27840.67
636.83	27953.02
636.98	27995.15
637.13	28037.28
637.28	28067.70
637.43	28039.62
637.57	27978.76
637.72	28006.85
637.87	27810.25
638.02	28013.87
638.17	27924.93
638.32	27868.76
638.46	27688.54
638.61	27725.99
638.76	27328.10
638.91	27716.62
639.06	27850.03
639.20	27763.43
639.35	27826.63
639.50	28044.30
639.65	27831.31
639.80	28095.79
639.94	27637.05
640.09	28030.26
640.24	27548.11
640.39	27342.14
640.54	27725.99
640.68	27723.65
640.83	27405.33
640.98	27234.47
641.13	27356.18
641.27	27936.63
641.42	27770.46
641.57	27697.90
641.72	27646.41
641.86	27513.00
642.01	27112.77
642.16	27571.51
642.31	27271.92
642.45	27138.51
642.60	27496.61
642.75	27080.00
642.90	26913.82
643.04	27168.94
643.19	27161.92
643.34	27412.35
643.48	27143.19
643.63	27531.72
643.78	27419.38
643.93	27379.59
644.07	27388.95
644.22	27002.76
644.37	27199.37
644.51	27054.25
644.66	27115.11
644.81	27063.61
644.95	27232.13
645.10	27005.10
645.25	27091.70
645.39	26974.67
645.54	26888.07
645.69	27271.92
645.83	26962.97
645.98	26780.41
646.13	27255.54
646.27	27386.61
646.42	26974.67
646.57	26852.97
646.71	26806.16
646.86	26551.04
647.00	27082.34
647.15	26771.05
647.30	26829.56
647.44	27175.96
647.59	27082.34
647.74	26899.78
647.88	26576.78
648.03	27101.06
648.17	26876.37
648.32	27058.93
648.47	26747.64
648.61	27075.32
648.76	26855.31
648.90	27037.87
649.05	26787.43
649.20	26668.06
649.34	26609.55
649.49	26380.18
649.63	26361.45
649.78	26375.50
649.92	26544.02
650.07	26452.73
650.21	26485.50
650.36	26508.91
650.51	26387.20
650.65	26508.91
650.80	26359.11
650.94	26438.69
651.09	26314.64
651.23	26546.36
651.38	26689.13
651.52	26281.88
651.67	26274.85
651.81	26501.89
651.96	26277.19
652.10	26199.96
652.25	26759.34
652.39	26579.12
652.54	26696.15
652.68	26944.25
652.83	26377.84
652.97	26431.67
653.12	26319.32
653.26	26157.83
653.41	26073.57
653.55	26267.83
653.70	25874.62
653.84	26284.22
653.99	25717.81
654.13	25958.88
654.27	25968.24
654.42	26169.53
654.56	25914.41
654.71	26230.38
654.85	25752.91
655.00	26436.35
655.14	25855.90
655.29	25832.49
655.43	25888.67
655.57	25788.02
655.72	25851.22
655.86	25893.35
656.01	25605.46
656.15	25486.09
656.30	25860.58
656.44	25968.24
656.58	25701.42
656.73	25757.60
656.87	25755.26
657.01	25666.31
657.16	25539.93
657.30	25837.17
657.45	25771.64
657.59	25551.63
657.73	25778.66
657.88	25689.72
658.02	25797.38
658.16	25584.40
658.31	25687.38
658.45	25399.49
658.60	25518.86
658.74	25385.45
658.88	25528.22
659.03	25369.07
659.17	25249.70
659.31	25617.16
659.46	25249.70
659.60	25303.53
659.74	25266.08
659.89	25273.10
660.03	25212.25
660.17	25458.01
660.32	24711.38
660.46	24884.58
660.60	25043.73
660.74	24837.76
660.89	25280.13
661.03	24833.08
661.17	25195.87
661.32	24776.91
661.46	24978.20
661.60	25193.53
661.74	24830.74
661.89	25383.11
662.03	24985.22
662.17	24570.94
662.31	24643.50
662.46	24624.78
662.60	24978.20
662.74	24507.75
662.88	24819.04
663.03	24467.96
663.17	24095.82
663.31	24456.26
663.45	24304.12
663.60	24334.55
663.74	24474.98
663.88	24533.50
664.02	24549.88
664.17	24638.82
664.31	24458.60
664.45	24524.13
664.59	24297.10
664.73	24292.42
664.88	24226.89
665.02	23943.68
665.16	23840.70
665.30	24273.70
665.44	24109.86
665.59	23768.14
665.73	24322.85
665.87	23812.61
666.01	23852.40
666.15	24135.60
666.29	23847.72
666.44	23733.03
666.58	23800.91
666.72	23728.35
666.86	24027.94
667.00	23997.51
667.14	23655.79
667.28	23791.55
667.43	23573.88
667.57	23845.38
667.71	23662.82
667.85	23337.48
667.99	23166.62
668.13	23346.84
668.27	23608.98
668.41	23665.16
668.56	23407.70
668.70	23445.15
668.84	23129.17
668.98	23145.56
669.12	23517.70
669.26	23192.37
669.40	23260.24
669.54	23030.87
669.68	23438.12
669.82	23236.84
669.96	22597.87
670.10	22939.59
670.25	22895.12
670.39	22768.73
670.53	22815.54
670.67	22244.45
670.81	22808.52
670.95	22820.22
671.09	22443.40
671.23	22972.36
671.37	22820.22
671.51	22906.82
671.65	22766.39
671.79	22773.41
671.93	22267.86
672.07	22307.65
672.21	22214.02
672.35	22380.20
672.49	22195.30
672.63	22305.31
672.77	22171.89
672.91	22146.15
673.05	22272.54
673.19	22113.38
673.33	21940.18
673.47	22022.10
673.61	22092.32
673.75	22249.13
673.89	22134.45
674.03	21823.16
674.17	21816.13
674.31	21912.10
674.45	21893.37
674.59	22033.80
674.73	21935.50
674.87	21795.07
675.01	21659.32
675.15	21469.73
675.29	21596.12
675.43	21078.86
675.56	21369.09
675.70	21188.87
675.84	21422.92
675.98	20910.35
676.12	21193.55
676.26	21123.33
676.40	21418.24
676.54	21160.78
676.68	21118.65
676.82	20800.34
676.96	20622.46
677.10	21034.39
677.23	20573.31
677.37	20561.61
677.51	20751.19
677.65	20519.48
677.79	20299.47
677.93	20484.37
678.07	20367.34
678.21	20184.78
678.34	20030.30
678.48	20149.67
678.62	20222.23
678.76	20287.76
678.90	20088.82
679.04	20067.75
679.18	20130.95
679.31	19917.96
679.45	19524.75
679.59	19756.46
679.73	19494.32
679.87	19454.53
680.00	19489.64
680.14	19517.73
680.28	19508.37
680.42	19719.01
680.56	19735.40
680.70	19339.85
680.83	19613.69
680.97	19278.99
681.11	19159.63
681.25	19398.36
681.39	19304.74
681.52	19077.71
681.66	18820.25
681.80	18916.21
681.94	18775.78
682.07	18789.82
682.21	18757.05
682.35	18761.73
682.49	18611.94
682.62	18546.40
682.76	18356.82
682.90	18307.67
683.04	18698.54
683.17	18572.15
683.31	18382.57
683.45	18499.59
683.59	18214.05
683.72	18349.80
683.86	18258.52
684.00	18157.88
684.13	17991.70
684.27	18054.89
684.41	17692.11
684.55	17628.92
684.68	17752.96
684.82	17280.18
684.96	17703.81
685.09	17617.21
685.23	17502.53
685.37	17479.12
685.50	17689.77
685.64	17556.36
685.78	17436.99
685.91	17547.00
686.05	17348.05
686.19	17348.05
686.32	17380.82
686.46	17149.11
686.60	17069.53
686.73	17432.31
686.87	16812.07
687.01	16739.51
687.14	16779.30
687.28	16739.51
687.42	16688.02
687.55	16477.37
687.69	16709.08
687.82	16400.13
687.96	16563.97
688.10	16531.20
688.23	16549.93
688.37	16552.27
688.50	16386.09
688.64	16262.04
688.78	16236.30
688.91	15943.73
689.05	15988.20
689.18	15957.77
689.32	15889.90
689.46	15590.31
689.59	15740.10
689.73	15831.38
689.86	15695.63
690.00	15712.02
690.13	15693.29
690.27	15414.77
690.41	15398.38
690.54	15400.72
690.68	15494.35
690.81	15246.25
690.95	15279.02
691.08	15489.67
691.22	15482.64
691.35	15337.53
691.49	15187.74
691.62	15435.83
691.76	14712.61
691.89	14913.89
692.03	14911.55
692.16	14380.25
692.30	14518.34
692.43	14677.50
692.57	14560.47
692.70	14691.54
692.84	14410.68
692.97	14415.36
693.11	14626.01
693.24	14272.59
693.38	14438.76
693.51	14406.00
693.65	14333.44
693.78	14094.71
693.92	14375.57
694.05	14043.21
694.19	14083.00
694.32	14005.77
694.45	13844.27
694.59	13951.93
694.72	13645.32
694.86	13614.90
694.99	13359.78
695.13	13486.17
695.26	13589.15
695.39	13345.73
695.53	13476.80
695.66	13671.07
695.80	13500.21
695.93	13352.76
696.07	13327.01
696.20	13245.09
696.33	13156.15
696.47	13104.66
696.60	12791.03
696.73	13095.30
696.87	13085.94
697.00	12760.60
697.14	12767.62
697.27	12739.54
697.40	12692.73
697.54	12648.26
697.67	12556.97
697.80	12355.69
697.94	12662.30
698.07	12638.89
698.21	12517.18
698.34	12486.76
698.47	12418.88
698.61	12578.04
698.74	12453.99
698.87	12229.30
699.01	12131.00
699.14	12219.94
699.27	12163.76
699.40	12121.63
699.54	11997.59
699.67	12109.93
699.80	11983.54
699.94	11683.95
700.07	11805.66
700.20	11625.44
700.34	11543.52
700.47	11580.97
700.60	11536.50
700.73	11583.31
700.87	11466.28
701.00	11316.49
701.13	11606.72
701.26	11330.53
701.40	11349.26
701.53	11208.83
701.66	11016.90
701.79	11363.30
701.93	11073.07
702.06	10869.45
702.19	10956.05
702.32	10998.18
702.46	10757.10
702.59	10602.63
702.72	10619.01
702.85	10628.37
702.99	10523.05
703.12	10684.55
703.25	10553.48
703.38	10450.49
703.51	10567.52
703.65	10539.43
703.78	10590.92
703.91	10581.56
704.04	10267.93
704.17	10279.63
704.31	10424.75
704.44	10281.97
704.57	10099.41
704.70	9973.02
704.83	10038.56
704.96	9874.72
705.10	9947.28
705.23	10045.58
>>>>>End Processed Spectral Data<<<<<
