SpectraSuite Data File
++++++++++++++++++++++++++++++++++++
Date: Fri Oct 18 13:57:56 GMT-05:00 2013
User: bianchi
Dark Spectrum Present: No
Reference Spectrum Present: No
Number of Sampled Component Spectra: 1
Spectrometers: USB2+H05261
Integration Time (usec): 50000 (USB2+H05261)
Spectra Averaged: 1 (USB2+H05261)
Boxcar Smoothing: 0 (USB2+H05261)
Correct for Electrical Dark: No (USB2+H05261)
Strobe/Lamp Enabled: No (USB2+H05261)
Correct for Detector Non-linearity: No (USB2+H05261)
Correct for Stray Light: No (USB2+H05261)
Number of Pixels in Processed Spectrum: 2048
>>>>>Begin Processed Spectral Data<<<<<
365.73	0.00
365.92	0.00
366.12	0.00
366.32	0.00
366.52	0.00
366.72	0.00
366.91	0.00
367.11	0.00
367.31	0.00
367.51	0.00
367.70	0.00
367.90	0.00
368.10	0.00
368.30	0.00
368.49	0.00
368.69	0.00
368.89	0.00
369.09	0.00
369.28	0.00
369.48	0.00
369.68	0.00
369.87	0.00
370.07	0.00
370.27	0.00
370.47	0.00
370.66	79.58
370.86	98.30
371.06	182.56
371.25	212.99
371.45	163.84
371.65	215.33
371.84	95.96
372.04	255.12
372.24	231.71
372.44	147.45
372.63	187.24
372.83	250.44
373.03	210.65
373.22	191.92
373.42	245.76
373.62	201.29
373.81	250.44
374.01	276.18
374.21	264.48
374.40	259.80
374.60	318.31
374.79	311.29
374.99	243.42
375.19	271.50
375.38	266.82
375.58	241.08
375.78	196.60
375.97	334.70
376.17	208.31
376.37	255.12
376.56	297.25
376.76	212.99
376.95	201.29
377.15	259.80
377.35	344.06
377.54	320.65
377.74	320.65
377.93	273.84
378.13	283.20
378.33	369.80
378.52	315.97
378.72	358.10
378.91	320.65
379.11	262.14
379.31	341.72
379.50	308.95
379.70	308.95
379.89	306.61
380.09	287.89
380.28	367.46
380.48	315.97
380.68	269.16
380.87	332.36
381.07	313.63
381.26	271.50
381.46	311.29
381.65	437.68
381.85	402.57
382.04	264.48
382.24	376.83
382.43	311.29
382.63	362.78
382.83	418.96
383.02	388.53
383.22	402.57
383.41	393.21
383.61	360.44
383.80	449.38
384.00	372.15
384.19	369.80
384.39	365.12
384.58	346.40
384.78	355.76
384.97	470.45
385.17	381.51
385.36	423.64
385.56	344.06
385.75	339.38
385.95	355.76
386.14	500.87
386.34	376.83
386.53	421.30
386.72	421.30
386.92	397.89
387.11	355.76
387.31	362.78
387.50	465.77
387.70	421.30
387.89	491.51
388.09	428.32
388.28	430.66
388.48	521.94
388.67	493.85
388.86	484.49
389.06	430.66
389.25	430.66
389.45	482.15
389.64	404.91
389.84	528.96
390.03	461.09
390.22	524.28
390.42	507.90
390.61	503.22
390.81	561.73
391.00	519.60
391.19	524.28
391.39	468.11
391.58	498.53
391.78	629.60
391.97	505.56
392.16	498.53
392.36	477.47
392.55	622.58
392.75	554.71
392.94	507.90
393.13	617.90
393.33	496.19
393.52	582.79
393.71	596.84
393.91	610.88
394.10	624.92
394.29	599.18
394.49	601.52
394.68	596.84
394.88	610.88
395.07	603.86
395.26	648.33
395.46	660.03
395.65	704.50
395.84	669.39
396.04	685.78
396.23	669.39
396.42	678.76
396.62	631.94
396.81	695.14
397.00	620.24
397.19	674.07
397.39	643.65
397.58	695.14
397.77	763.01
397.97	737.27
398.16	648.33
398.35	648.33
398.55	746.63
398.74	645.99
398.93	744.29
399.12	587.47
399.32	643.65
399.51	779.40
399.70	744.29
399.90	741.95
400.09	779.40
400.28	739.61
400.47	802.80
400.67	751.31
400.86	793.44
401.05	842.59
401.24	854.30
401.44	851.96
401.63	720.88
401.82	746.63
402.01	823.87
402.21	898.77
402.40	840.25
402.59	894.08
402.78	807.48
402.97	802.80
403.17	1013.45
403.36	901.11
403.55	844.93
403.74	919.83
403.93	952.60
404.13	968.98
404.32	898.77
404.51	966.64
404.70	961.96
404.89	968.98
405.09	1088.35
405.28	940.90
405.47	1027.50
405.66	1001.75
405.85	1053.24
406.05	966.64
406.24	990.05
406.43	1050.90
406.62	1034.52
406.81	1151.54
407.00	1069.62
407.20	1050.90
407.39	1043.88
407.58	1078.99
407.77	1074.31
407.96	1090.69
408.15	1121.12
408.34	1109.41
408.54	1196.01
408.73	1149.20
408.92	1102.39
409.11	1090.69
409.30	1191.33
409.49	1156.22
409.68	1217.08
409.87	1156.22
410.07	1179.63
410.26	1193.67
410.45	1174.95
410.64	1214.74
410.83	1277.93
411.02	1280.27
411.21	1324.74
411.40	1280.27
411.59	1287.29
411.78	1254.53
411.98	1299.00
412.17	1294.32
412.36	1284.95
412.55	1329.42
412.74	1324.74
412.93	1352.83
413.12	1371.55
413.31	1425.39
413.50	1345.81
413.69	1401.98
413.88	1455.81
414.07	1458.15
414.26	1474.54
414.45	1612.63
414.64	1423.05
414.83	1497.94
415.02	1554.12
415.22	1523.69
415.41	1568.16
415.60	1568.16
415.79	1638.38
415.98	1645.40
416.17	1589.22
416.36	1652.42
416.55	1675.82
416.74	1591.56
416.93	1629.01
417.12	1640.72
417.31	1729.66
417.50	1827.96
417.69	1736.68
417.88	1748.38
418.07	1799.87
418.26	1717.95
418.45	1802.21
418.64	1802.21
418.83	1856.04
419.02	1846.68
419.21	1874.77
419.39	1851.36
419.58	1830.30
419.77	1856.04
419.96	1909.88
420.15	1912.22
420.34	1816.26
420.53	1827.96
420.72	1961.37
420.91	1998.82
421.10	2012.86
421.29	2076.06
421.48	1968.39
421.67	2024.56
421.86	1937.96
422.05	2106.48
422.24	2005.84
422.43	1994.14
422.61	2157.97
422.80	1991.80
422.99	2111.16
423.18	2113.50
423.37	2071.37
423.56	2015.20
423.75	2083.08
423.94	1982.43
424.13	1926.26
424.32	1963.71
424.50	2160.31
424.69	2062.01
424.88	2165.00
425.07	2071.37
425.26	2050.31
425.45	2066.69
425.64	2150.95
425.83	2010.52
426.01	2225.85
426.20	2111.16
426.39	2148.61
426.58	2057.33
426.77	2160.31
426.96	2155.63
427.15	2132.23
427.33	2265.64
427.52	2183.72
427.71	2265.64
427.90	2122.87
428.09	2134.57
428.28	2249.25
428.46	2249.25
428.65	2256.28
428.84	2373.30
429.03	2237.55
429.22	2221.17
429.40	2167.34
429.59	2246.91
429.78	2200.10
429.97	2197.76
430.16	2289.04
430.34	2368.62
430.53	2443.52
430.72	2471.61
430.91	2331.17
431.10	2345.22
431.28	2399.05
431.47	2368.62
431.66	2483.31
431.85	2392.03
432.03	2396.71
432.22	2551.18
432.41	2513.74
432.60	2677.57
432.79	2471.61
432.97	2509.05
433.16	2572.25
433.35	2637.78
433.54	2635.44
433.72	2705.66
433.91	2555.86
434.10	2637.78
434.28	2574.59
434.47	2600.34
434.66	2647.15
434.85	2623.74
435.03	2668.21
435.22	2595.65
435.41	2792.26
435.59	2661.19
435.78	2693.96
435.97	2689.28
436.16	2775.88
436.34	2752.47
436.53	2780.56
436.72	2785.24
436.90	2738.43
437.09	2775.88
437.28	2729.06
437.46	2810.98
437.65	2745.45
437.84	2862.48
438.02	2820.35
438.21	2853.11
438.40	2827.37
438.58	3033.33
438.77	3063.76
438.96	2935.03
439.14	2925.67
439.33	3075.46
439.52	3103.55
439.70	3023.97
439.89	3131.64
440.08	3232.28
440.26	3122.27
440.45	3112.91
440.63	3136.32
440.82	3094.19
441.01	3220.58
441.19	3180.79
441.38	3201.85
441.57	3276.75
441.75	3222.92
441.94	3365.69
442.12	3466.33
442.31	3440.59
442.50	3412.50
442.68	3456.97
442.87	3468.67
443.05	3522.51
443.24	3562.30
443.43	3499.10
443.61	3515.48
443.80	3609.11
443.98	3459.31
444.17	3435.91
444.35	3405.48
444.54	3520.17
444.73	3506.12
444.91	3520.17
445.10	3468.67
445.28	3426.54
445.47	3527.19
445.65	3534.21
445.84	3508.46
446.02	3709.75
446.21	3576.34
446.39	3536.55
446.58	3531.87
446.77	3590.38
446.95	3590.38
447.14	3688.68
447.32	3634.85
447.51	3452.29
447.69	3660.60
447.88	3651.24
448.06	3613.79
448.25	3604.42
448.43	3496.76
448.62	3571.66
448.80	3618.47
448.99	3758.90
449.17	3794.01
449.36	3700.39
449.54	3763.58
449.73	3684.00
449.91	3775.28
450.10	3836.14
450.28	3859.54
450.46	3815.07
450.65	3749.54
450.83	3892.31
451.02	3810.39
451.20	3929.76
451.39	3915.72
451.57	3861.88
451.76	3756.56
451.94	3957.85
452.13	4018.70
452.31	3964.87
452.49	3927.42
452.68	4056.15
452.86	3861.88
453.05	4142.75
453.23	4173.18
453.42	3920.40
453.60	4021.04
453.78	4056.15
453.97	3925.08
454.15	4147.43
454.34	3941.46
454.52	4067.85
454.70	4037.42
454.89	4205.94
455.07	4109.98
455.26	4194.24
455.44	4182.54
455.62	4238.71
455.81	4238.71
455.99	4306.59
456.17	4341.69
456.36	4285.52
456.54	4329.99
456.73	4400.21
456.91	4510.21
457.09	4414.25
457.28	4404.89
457.46	4241.05
457.64	4550.00
457.83	4353.40
458.01	4322.97
458.19	4564.04
458.38	4566.39
458.56	4594.47
458.74	4540.64
458.93	4545.32
459.11	4528.94
459.29	4542.98
459.48	4557.02
459.66	4645.96
459.84	4676.39
460.03	4767.67
460.21	4681.07
460.39	4706.82
460.57	4634.26
460.76	4741.93
460.94	4837.89
461.12	4844.91
461.31	4678.73
461.49	4669.37
461.67	4671.71
461.85	4865.97
462.04	4772.35
462.22	5093.01
462.40	4870.65
462.59	4975.98
462.77	4847.25
462.95	4990.02
463.13	5004.07
463.32	4910.44
463.50	4908.10
463.68	4924.49
463.86	4933.85
464.05	4950.23
464.23	5048.54
464.41	5132.79
464.59	4908.10
464.78	5195.99
464.96	4992.36
465.14	4954.91
465.32	5078.96
465.50	5142.16
465.69	5252.16
465.87	5123.43
466.05	5128.11
466.23	5158.54
466.41	5256.84
466.60	5502.60
466.78	5184.29
466.96	5142.16
467.14	5327.06
467.32	5221.74
467.51	5378.55
467.69	5123.43
467.87	5235.78
468.05	5261.52
468.23	5226.42
468.41	5343.44
468.60	5460.47
468.78	5535.37
468.96	5408.98
469.14	5418.34
469.32	5575.16
469.50	5516.64
469.69	5626.65
469.87	5696.86
470.05	5598.56
470.23	5507.28
470.41	5617.29
470.59	5610.26
470.77	5366.85
470.95	5680.48
471.14	5736.65
471.32	5687.50
471.50	5816.23
471.68	5818.57
471.86	5774.10
472.04	5731.97
472.22	5762.40
472.40	5776.44
472.58	5867.72
472.77	5837.30
472.95	6001.13
473.13	6260.93
473.31	5949.64
473.49	5919.21
473.67	6073.69
473.85	6108.80
474.03	6188.38
474.21	6193.06
474.39	6155.61
474.57	6270.30
474.75	6457.54
474.93	6347.53
475.12	6162.63
475.30	6483.28
475.48	6338.17
475.66	6469.24
475.84	6434.13
476.02	6511.37
476.20	6448.18
476.38	6775.85
476.56	6717.34
476.74	6843.73
476.92	6899.90
477.10	6642.44
477.28	6960.75
477.46	6775.85
477.64	6794.58
477.82	6918.62
478.00	7339.92
478.18	7155.02
478.36	7248.64
478.54	7386.73
478.72	7548.23
478.90	7412.48
479.08	7370.35
479.26	7435.88
479.44	7534.18
479.62	7426.52
479.80	7452.27
479.98	7681.64
480.16	7688.66
480.34	7796.32
480.52	7623.12
480.70	7829.09
480.88	7918.03
481.06	8044.42
481.24	7988.25
481.41	8119.32
481.59	8166.13
481.77	8229.32
481.95	8304.22
482.13	8372.10
482.31	8519.55
482.49	8496.14
482.67	8456.36
482.85	8475.08
483.03	8896.38
483.21	9015.74
483.39	8795.73
483.57	8835.52
483.74	8922.12
483.92	8856.59
484.10	8985.32
484.28	9151.49
484.46	9303.63
484.64	9537.68
484.82	9170.22
485.00	9589.17
485.18	9423.00
485.35	9755.35
485.53	9738.97
485.71	9607.90
485.89	9968.34
486.07	9909.83
486.25	9975.36
486.43	10045.58
486.61	10148.56
486.78	10139.20
486.96	10202.40
487.14	10562.84
487.32	10352.19
487.50	10415.38
487.68	10548.79
487.85	10693.91
488.03	10597.95
488.21	11061.37
488.39	10794.55
488.57	10822.64
488.75	10888.17
488.92	11250.96
489.10	11332.87
489.28	11367.98
489.46	11569.27
489.64	11686.29
489.81	11672.25
489.99	11665.23
490.17	11679.27
490.35	11721.40
490.53	11932.05
490.70	12079.50
490.88	12067.80
491.06	12250.36
491.24	12135.68
491.41	12269.09
491.59	12446.97
491.77	12339.30
491.95	12423.56
492.13	12674.00
492.30	12566.34
492.48	12830.82
492.66	12854.22
492.84	12776.98
493.01	13261.48
493.19	13095.30
493.37	13373.82
493.54	13027.42
493.72	13392.55
493.90	13277.86
494.08	13589.15
494.25	13750.65
494.43	13376.16
494.61	13715.54
494.79	13757.67
494.96	13628.94
495.14	13879.38
495.32	13848.95
495.49	14295.99
495.67	14085.34
495.85	14253.86
496.02	14424.72
496.20	14497.28
496.38	14403.66
496.55	14300.67
496.73	14480.89
496.91	14649.41
497.09	14607.28
497.26	14839.00
497.44	14857.72
497.62	14684.52
497.79	15185.40
497.97	15014.54
498.14	15241.57
498.32	15190.08
498.50	15407.75
498.67	15515.41
498.85	15470.94
499.03	15693.29
499.20	15758.83
499.38	15428.81
499.56	15541.16
499.73	15737.76
499.91	15817.34
500.08	16025.65
500.26	15941.39
500.44	16112.25
500.61	16240.98
500.79	15971.82
500.97	16273.74
501.14	16418.86
501.32	16624.83
501.49	16219.91
501.67	16329.92
501.84	16627.17
502.02	16418.86
502.20	16690.36
502.37	16772.28
502.55	16901.01
502.72	17001.65
502.90	16772.28
503.07	16912.71
503.25	16964.20
503.43	16989.95
503.60	17088.25
503.78	17252.09
503.95	16896.33
504.13	17146.76
504.30	17242.73
504.48	17144.42
504.65	17334.01
504.83	17413.59
505.01	17551.68
505.18	17731.90
505.36	17542.32
505.53	17387.84
505.71	17589.13
505.88	17799.77
506.06	17778.71
506.23	18085.32
506.41	17556.36
506.58	17958.93
506.76	18031.49
506.93	18003.40
507.11	18162.56
507.28	18118.09
507.46	18204.69
507.63	18441.08
507.81	18480.87
507.98	18148.51
508.16	18178.94
508.33	18656.41
508.50	18380.23
508.68	18771.10
508.85	18958.34
509.03	18855.36
509.20	18733.65
509.38	19014.51
509.55	18845.99
509.73	19293.04
509.90	18897.49
510.08	19094.09
510.25	19037.92
510.42	19267.29
510.60	19569.22
510.77	19707.31
510.95	19679.22
511.12	19524.75
511.30	19250.91
511.47	19674.54
511.64	19552.84
511.82	19623.05
511.99	19573.90
512.17	19817.32
512.34	19953.07
512.51	19791.57
512.69	19674.54
512.86	20081.80
513.04	20479.69
513.21	20280.74
513.38	20011.58
513.56	20154.35
513.73	20074.77
513.90	20128.61
514.08	20493.73
514.25	20460.96
514.43	20526.50
514.60	20446.92
514.77	20601.40
514.95	20709.06
515.12	20603.74
515.29	20657.57
515.47	20945.45
515.64	20629.48
515.81	20872.90
515.99	20622.46
516.16	20903.32
516.33	21034.39
516.51	21153.76
516.68	20786.30
516.85	21036.74
517.03	21338.66
517.20	21254.40
517.37	20989.92
517.54	21474.42
517.72	21312.92
517.89	21303.56
518.06	21537.61
518.24	21296.53
518.41	21193.55
518.58	21860.60
518.75	21546.97
518.93	21741.24
519.10	21561.02
519.27	21874.65
519.45	21635.91
519.62	22097.00
519.79	22104.02
519.96	21984.65
520.14	21916.78
520.31	22345.09
520.48	22176.58
520.65	22417.65
520.83	22345.09
521.00	21961.25
521.17	22059.55
521.34	22450.42
521.52	22546.38
521.69	22026.78
521.86	22597.87
522.03	22881.08
522.20	22602.55
522.38	22909.16
522.55	22602.55
522.72	22696.17
522.89	22778.09
523.07	23124.49
523.24	22986.40
523.41	23262.58
523.58	22583.83
523.75	23204.07
523.92	22836.61
524.10	22735.96
524.27	23417.06
524.44	22974.70
524.61	23232.16
524.78	23328.12
524.96	23080.02
525.13	23264.92
525.30	23445.15
525.47	23398.34
525.64	23414.72
525.81	23742.39
525.98	23704.95
526.16	23662.82
526.33	23623.03
526.50	23613.66
526.67	23311.74
526.84	23784.52
527.01	23742.39
527.18	24126.24
527.36	24063.05
527.53	23838.36
527.70	24318.17
527.87	24259.65
528.04	24135.60
528.21	24327.53
528.38	24128.58
528.55	24203.48
528.72	23934.32
528.89	24486.68
529.07	24247.95
529.24	24144.97
529.41	24538.18
529.58	24325.19
529.75	24325.19
529.92	24137.94
530.09	24486.68
530.26	24486.68
530.43	24329.87
530.60	24320.51
530.77	24474.98
530.94	24624.78
531.11	24669.25
531.28	24690.31
531.46	24755.85
531.63	24608.39
531.80	25149.06
531.97	25338.64
532.14	25174.80
532.31	25116.29
532.48	24795.64
532.65	24957.13
532.82	25008.62
532.99	25127.99
533.16	25167.78
533.33	25488.43
533.50	25408.86
533.67	25591.42
533.84	24971.18
534.01	25130.33
534.18	25259.06
534.35	25481.41
534.52	25369.07
534.69	25783.34
534.86	25771.64
535.03	25301.19
535.20	25703.76
535.37	25589.08
535.54	25806.75
535.71	25422.90
535.88	25874.62
536.05	25734.19
536.22	25612.48
536.38	25802.07
536.55	25743.55
536.72	25853.56
536.89	25926.11
537.06	25764.62
537.23	25820.79
537.40	26256.13
537.57	26141.44
537.74	26099.31
537.91	26190.59
538.08	26185.91
538.25	26129.74
538.42	26354.43
538.59	26686.79
538.75	26221.02
538.92	26370.82
539.09	26632.96
539.26	26228.04
539.43	26544.02
539.60	26309.96
539.77	26174.21
539.94	26426.99
540.11	26525.29
540.28	26480.82
540.44	26438.69
540.61	26536.99
540.78	26448.05
540.95	26932.54
541.12	26576.78
541.29	26731.26
541.46	26576.78
541.62	26600.19
541.79	26759.34
541.96	26511.25
542.13	26614.23
542.30	26890.41
542.47	27049.57
542.63	26962.97
542.80	26981.70
542.97	27580.87
543.14	27332.78
543.31	27316.39
543.48	27285.97
543.64	27550.45
543.81	27070.64
543.98	27580.87
544.15	27445.12
544.32	27388.95
544.48	27538.74
544.65	27309.37
544.82	27192.34
544.99	27379.59
545.16	27641.73
545.32	27805.56
545.49	27660.45
545.66	27782.16
545.83	27735.35
546.00	27695.56
546.16	27864.08
546.33	27601.94
546.50	27580.87
546.67	28170.69
546.83	27875.78
547.00	27662.79
547.17	27845.35
547.34	27686.20
547.50	28322.82
547.67	28641.14
547.84	27946.00
548.00	28219.84
548.17	28294.74
548.34	28180.05
548.51	28166.01
548.67	28180.05
548.84	28568.58
549.01	28187.07
549.18	27967.06
549.34	28458.57
549.51	28418.78
549.68	28151.96
549.84	28479.64
550.01	28432.83
550.18	28271.33
550.34	28650.50
550.51	28879.87
550.68	28893.91
550.84	28231.54
551.01	28905.62
551.18	28376.66
551.34	28198.77
551.51	28371.97
551.68	28790.93
551.84	28687.95
552.01	28624.75
552.18	28936.04
552.34	28594.32
552.51	28671.56
552.68	29043.71
552.84	29036.69
553.01	29298.83
553.18	28730.08
553.34	29226.27
553.51	29149.03
553.67	28975.83
553.84	29249.67
554.01	29277.76
554.17	29226.27
554.34	29226.27
554.51	29305.85
554.67	29076.48
554.84	29212.23
555.00	29523.52
555.17	29263.72
555.33	29383.09
555.50	29535.22
555.67	29275.42
555.83	29422.87
556.00	29373.72
556.16	29731.83
556.33	29301.17
556.50	29282.44
556.66	29383.09
556.83	29872.26
556.99	29474.37
557.16	29457.98
557.32	29668.63
557.49	29717.78
557.65	29411.17
557.82	29603.10
557.98	29722.46
558.15	29659.27
558.32	29411.17
558.48	29394.79
558.65	29984.60
558.81	29710.76
558.98	29823.11
559.14	29902.68
559.31	29589.05
559.47	29869.92
559.64	29394.79
559.80	29731.83
559.97	30141.42
560.13	29958.86
560.30	29790.34
560.46	30022.05
560.63	29898.00
560.79	30174.19
560.96	30155.46
561.12	29811.40
561.29	29893.32
561.45	29963.54
561.61	29755.23
561.78	30110.99
561.94	30019.71
562.11	30249.08
562.27	29975.24
562.44	30017.37
562.60	30265.47
562.77	29977.58
562.93	30071.20
563.10	30246.74
563.26	30143.76
563.42	30389.52
563.59	30373.13
563.75	30314.62
563.92	30349.73
564.08	30125.04
564.24	30403.56
564.41	29993.97
564.57	30359.09
564.74	30249.08
564.90	30522.93
565.07	30536.97
565.23	30312.28
565.39	30583.78
565.56	30576.76
565.72	30237.38
565.88	30068.86
566.05	30408.24
566.21	29888.64
566.38	30143.76
566.54	30588.46
566.70	30387.18
566.87	30745.28
567.03	30356.75
567.19	30855.28
567.36	30450.37
567.52	30443.35
567.68	30848.26
567.85	30785.07
568.01	30436.33
568.17	30644.63
568.34	31124.44
568.50	30923.16
568.66	30953.58
568.83	30787.41
568.99	30436.33
569.15	30459.73
569.32	30691.44
569.48	30075.88
569.64	30881.03
569.81	30759.32
569.97	30761.66
570.13	31019.12
570.30	30941.88
570.46	30759.32
570.62	30703.15
570.78	30618.89
570.95	30190.57
571.11	30888.05
571.27	30225.68
571.43	30328.66
571.60	30946.56
571.76	30597.82
571.92	30806.13
572.09	30553.35
572.25	31058.91
572.41	31150.19
572.57	30794.43
572.74	30817.83
572.90	30389.52
573.06	30654.00
573.22	30756.98
573.38	30808.47
573.55	30415.26
573.71	31002.74
573.87	30991.03
574.03	30785.07
574.20	31019.12
574.36	30646.97
574.52	30574.42
574.68	30801.45
574.84	30862.30
575.01	30871.67
575.17	30665.70
575.33	31115.08
575.49	31215.72
575.65	30852.94
575.82	31056.57
575.98	30969.97
576.14	30813.15
576.30	31119.76
576.46	30979.33
576.62	30756.98
576.79	30972.31
576.95	30876.35
577.11	31103.38
577.27	30960.61
577.43	30974.65
577.59	30937.20
577.75	30899.75
577.92	30665.70
578.08	30878.69
578.24	30976.99
578.40	31082.31
578.56	30808.47
578.72	30876.35
578.88	31393.61
579.04	31154.87
579.21	31297.64
579.37	31522.34
579.53	31229.77
579.69	30869.33
579.85	30838.90
580.01	31051.89
580.17	30962.95
580.33	30721.87
580.49	31208.70
580.65	31161.89
580.82	31094.02
580.98	31302.32
581.14	31108.06
581.30	31274.24
581.46	30955.93
581.62	31143.17
581.78	30955.93
581.94	31040.18
582.10	30986.35
582.26	31391.26
582.42	31147.85
582.58	31168.91
582.74	31171.25
582.90	31370.20
583.06	31510.63
583.22	31302.32
583.38	31234.45
583.54	31274.24
583.70	30981.67
583.86	31459.14
584.02	31089.34
584.18	31264.88
584.34	31098.70
584.50	31756.39
584.66	31047.21
584.82	30937.20
584.98	30960.61
585.14	31335.09
585.30	31112.74
585.46	31103.38
585.62	31461.48
585.78	31171.25
585.94	31187.64
586.10	31204.02
586.26	31290.62
586.42	31168.91
586.58	31075.29
586.74	31042.53
586.90	30845.92
587.06	30806.13
587.22	31285.94
587.38	31346.79
587.54	31847.67
587.70	31576.17
587.86	31185.30
588.02	31407.65
588.18	31491.91
588.34	31288.28
588.49	31433.39
588.65	31545.74
588.81	31274.24
588.97	31051.89
589.13	31150.19
589.29	31250.83
589.45	31653.40
589.61	31356.16
589.77	31702.56
589.93	31285.94
590.08	31718.94
590.24	31351.48
590.40	31622.98
590.56	31360.84
590.72	30927.84
590.88	31189.98
591.04	31463.82
591.20	31796.18
591.35	31744.69
591.51	32149.60
591.67	31447.44
591.83	31632.34
591.99	31821.92
592.15	31674.47
592.31	31899.16
592.46	31264.88
592.62	31552.76
592.78	31784.48
592.94	31910.86
593.10	31747.03
593.26	31878.10
593.41	31730.64
593.57	31765.75
593.73	31728.30
593.89	31889.80
594.05	31606.59
594.20	31639.36
594.36	31676.81
594.52	31541.06
594.68	31606.59
594.84	31929.59
594.99	31758.73
595.15	31967.04
595.31	32126.19
595.47	31648.72
595.62	31871.07
595.78	31608.93
595.94	31606.59
596.10	31800.86
596.25	31667.45
596.41	31440.42
596.57	31559.78
596.73	31594.89
596.88	31779.79
597.04	32023.21
597.20	32070.02
597.36	31887.46
597.51	31576.17
597.67	31716.60
597.83	31779.79
597.99	31803.20
598.14	31431.05
598.30	31754.05
598.46	31690.85
598.61	32308.76
598.77	32016.19
598.93	31910.86
599.09	32046.62
599.24	31854.69
599.40	31997.46
599.56	32196.41
599.71	32086.40
599.87	31985.76
600.03	32011.51
600.18	31590.21
600.34	31555.10
600.50	31585.53
600.65	31452.12
600.81	31974.06
600.97	31758.73
601.12	31744.69
601.28	32154.28
601.44	32123.85
601.59	31777.45
601.75	31751.71
601.91	32266.63
602.06	32119.17
602.22	31732.98
602.37	31742.35
602.53	31562.12
602.69	32079.38
602.84	32063.00
603.00	32233.86
603.16	32142.58
603.31	31917.89
603.47	31735.32
603.62	31810.22
603.78	31962.36
603.94	31941.29
604.09	31875.76
604.25	32203.43
604.40	31749.37
604.56	31971.72
604.71	32215.13
604.87	31845.33
605.03	32318.12
605.18	31871.07
605.34	32053.64
605.49	31637.02
605.65	31871.07
605.80	31824.26
605.96	31707.24
606.12	31716.60
606.27	32250.24
606.43	31583.19
606.58	31882.78
606.74	32025.55
606.89	31541.06
607.05	32271.31
607.20	31880.44
607.36	31693.19
607.51	31812.56
607.67	31789.16
607.82	31885.12
607.98	31456.80
608.13	31475.52
608.29	31857.03
608.44	31482.55
608.60	31541.06
608.75	31627.66
608.91	31840.65
609.06	31557.44
609.22	31931.93
609.37	31503.61
609.53	31400.63
609.68	31770.43
609.84	31791.50
609.99	31718.94
610.15	31428.71
610.30	31463.82
610.46	31512.97
610.61	31775.11
610.76	31585.53
610.92	31634.68
611.07	31747.03
611.23	31407.65
611.38	31742.35
611.54	31538.72
611.69	31585.53
611.84	31667.45
612.00	31456.80
612.15	31461.48
612.31	31564.46
612.46	31269.56
612.62	31779.79
612.77	31440.42
612.92	31812.56
613.08	31524.68
613.23	31442.76
613.39	31463.82
613.54	31346.79
613.69	31255.51
613.85	31044.87
614.00	31360.84
614.15	31438.08
614.31	31248.49
614.46	31768.09
614.62	31239.13
614.77	31218.07
614.92	31260.20
615.08	31248.49
615.23	31592.55
615.38	31445.10
615.54	31084.65
615.69	30838.90
615.84	30986.35
616.00	31143.17
616.15	31171.25
616.30	31498.93
616.46	31105.72
616.61	31318.71
616.76	31236.79
616.92	31063.59
617.07	30902.09
617.22	30939.54
617.37	31049.55
617.53	31150.19
617.68	30972.31
617.83	31037.84
617.99	30902.09
618.14	30913.80
618.29	31145.51
618.45	30904.43
618.60	31101.04
618.75	30754.64
618.90	31161.89
619.06	31150.19
619.21	30913.80
619.36	31173.60
619.51	30457.39
619.67	30733.57
619.82	30485.48
619.97	30951.24
620.12	30850.60
620.28	30670.38
620.43	30689.10
620.58	30885.71
620.73	31133.81
620.89	30888.05
621.04	30548.67
621.19	30824.86
621.34	30920.82
621.49	30675.06
621.65	30635.27
621.80	30462.07
621.95	30553.35
622.10	30658.68
622.25	30370.79
622.41	30635.27
622.56	30686.76
622.71	30864.64
622.86	30775.70
623.01	30630.59
623.16	30380.15
623.32	30459.73
623.47	30396.54
623.62	30345.05
623.77	30284.19
623.92	30450.37
624.07	30646.97
624.23	30288.87
624.38	30335.68
624.53	30595.48
624.68	30602.50
624.83	30476.12
624.98	30366.11
625.13	30160.14
625.29	30412.92
625.44	30438.67
625.59	30071.20
625.74	29993.97
625.89	29813.74
626.04	29954.18
626.19	29907.37
626.34	30281.85
626.49	29631.18
626.65	30000.99
626.80	30178.87
626.95	30071.20
627.10	29839.49
627.25	29855.87
627.40	29727.14
627.55	29727.14
627.70	29558.63
627.85	29752.89
628.00	29900.34
628.15	29465.00
628.30	29944.81
628.45	29848.85
628.60	29734.17
628.76	29748.21
628.91	29998.65
629.06	29603.10
629.21	29724.80
629.36	29715.44
629.51	29507.13
629.66	29717.78
629.81	29584.37
629.96	29628.84
630.11	29551.60
630.26	29589.05
630.41	29654.59
630.56	29315.21
630.71	29518.84
630.86	29500.11
631.01	29481.39
631.16	29848.85
631.31	29577.35
631.46	29383.09
631.61	29645.23
631.76	29188.82
631.91	29453.30
632.06	29254.36
632.21	29411.17
632.36	29387.77
632.51	29312.87
632.66	29429.90
632.81	29511.81
632.96	29062.43
633.10	29436.92
633.25	29680.33
633.40	28973.49
633.55	29560.97
633.70	29036.69
633.85	28811.99
634.00	29406.49
634.15	29104.56
634.30	29259.04
634.45	29006.26
634.60	28905.62
634.75	28945.41
634.90	28732.42
635.05	29530.54
635.19	28760.50
635.34	29408.83
635.49	28861.15
635.64	29244.99
635.79	29062.43
635.94	28547.51
636.09	29032.00
636.24	28751.14
636.39	28400.06
636.53	28863.49
636.68	28594.32
636.83	28924.34
636.98	28800.29
637.13	28856.46
637.28	29069.45
637.43	28786.25
637.57	29027.32
637.72	28662.20
637.87	28676.24
638.02	28348.57
638.17	28720.71
638.32	28505.38
638.46	28587.30
638.61	28299.42
638.76	28126.22
638.91	28290.06
639.06	28472.62
639.20	28460.91
639.35	28416.44
639.50	28439.85
639.65	28559.22
639.80	28575.60
639.94	28460.91
640.09	28739.44
640.24	28407.08
640.39	28091.11
640.54	28112.17
640.68	28247.93
640.83	28542.83
640.98	28247.93
641.13	28187.07
641.27	28500.70
641.42	28140.26
641.57	28489.00
641.72	28299.42
641.86	28114.52
642.01	28149.62
642.16	28233.88
642.31	28039.62
642.45	28151.96
642.60	28128.56
642.75	27875.78
642.90	27894.50
643.04	27775.14
643.19	27662.79
643.34	28257.29
643.48	27828.97
643.63	28196.43
643.78	28238.56
643.93	28058.34
644.07	27934.29
644.22	28219.84
644.37	27789.18
644.51	28067.70
644.66	27868.76
644.81	27665.13
644.95	27173.62
645.10	27690.88
645.25	27360.86
645.39	27852.38
645.54	27896.85
645.69	27735.35
645.83	27630.02
645.98	27828.97
646.13	27805.56
646.27	27796.20
646.42	27707.26
646.57	27660.45
646.71	27693.22
646.86	27814.93
647.00	27566.83
647.15	27857.06
647.30	27606.62
647.44	27594.92
647.59	27520.02
647.74	27566.83
647.88	27779.82
648.03	27789.18
648.17	27548.11
648.32	27604.28
648.47	27798.54
648.61	27651.09
648.76	27702.58
648.90	27667.47
649.05	27482.57
649.20	27307.03
649.34	27360.86
649.49	26967.65
649.63	27393.63
649.78	27119.79
649.92	27220.43
650.07	27524.70
650.21	27295.33
650.36	26946.59
650.51	26766.37
650.65	27440.44
650.80	27185.32
650.94	27381.93
651.09	27182.98
651.23	26993.40
651.38	27180.64
651.52	26977.01
651.67	27199.37
651.81	27168.94
651.96	27302.35
652.10	27342.14
652.25	27016.80
652.39	27192.34
652.54	27168.94
652.68	27339.80
652.83	27309.37
652.97	27358.52
653.12	26817.86
653.26	26899.78
653.41	27087.02
653.55	26965.31
653.70	26995.74
653.84	26780.41
653.99	26806.16
654.13	26815.52
654.27	26721.90
654.42	26771.05
654.56	26948.93
654.71	26787.43
654.85	26831.90
655.00	26979.36
655.14	26871.69
655.29	26426.99
655.43	26314.64
655.57	26375.50
655.72	26607.21
655.86	26340.39
656.01	26529.97
656.15	26527.63
656.30	26841.26
656.44	26321.66
656.58	26548.70
656.73	26546.36
656.87	26335.71
657.01	26127.40
657.16	26712.53
657.30	26328.69
657.45	26239.75
657.59	26441.03
657.73	26506.57
657.88	26111.02
658.02	26398.90
658.16	26459.76
658.31	26153.15
658.45	26499.55
658.60	25504.82
658.74	25900.37
658.88	26167.19
659.03	26218.68
659.17	26096.97
659.31	26148.46
659.46	26199.96
659.60	26441.03
659.74	25748.23
659.89	25919.09
660.03	25570.35
660.17	25781.00
660.32	25919.09
660.46	25537.59
660.60	25607.80
660.74	26012.71
660.89	25572.69
661.03	25088.20
661.17	25813.77
661.32	25598.44
661.46	25605.46
661.60	25750.57
661.74	25804.41
661.89	25640.57
662.03	26136.76
662.17	25502.48
662.31	25675.68
662.46	25394.81
662.60	25181.82
662.74	25509.50
662.88	25170.12
663.03	24851.81
663.17	25144.38
663.31	24739.46
663.45	25041.39
663.60	25029.69
663.74	25003.94
663.88	25025.01
664.02	24933.73
664.17	25565.67
664.31	25195.87
664.45	25060.12
664.59	25008.62
664.73	25139.69
664.88	24594.35
665.02	24568.60
665.16	24547.54
665.30	24812.02
665.44	24725.42
665.59	24297.10
665.73	24587.33
665.87	24746.48
666.01	24617.75
666.15	24875.21
666.29	24606.05
666.44	24699.67
666.58	24568.60
666.72	24608.39
666.86	24390.72
667.00	24498.39
667.14	24240.93
667.28	24261.99
667.43	24245.61
667.57	24360.30
667.71	24116.88
667.85	23939.00
667.99	24194.12
668.13	23868.78
668.27	24287.74
668.41	24027.94
668.56	24041.98
668.70	24027.94
668.84	23852.40
668.98	23784.52
669.12	23590.26
669.26	23868.78
669.40	23613.66
669.54	23843.04
669.68	23674.52
669.82	23641.75
669.96	23520.04
670.10	23473.23
670.25	23496.64
670.39	23445.15
670.53	23339.82
670.67	23133.86
670.81	23456.85
670.95	23625.37
671.09	23307.05
671.23	23545.79
671.37	23508.34
671.51	23484.94
671.65	23513.02
671.79	23157.26
671.93	23337.48
672.07	23119.81
672.21	22792.14
672.35	22923.21
672.49	23012.15
672.63	22640.00
672.77	22803.84
672.91	22721.92
673.05	22794.48
673.19	22951.29
673.33	22714.90
673.47	22492.55
673.61	22742.99
673.75	22333.39
673.89	22398.93
674.03	22628.30
674.17	22700.86
674.31	22417.65
674.45	22354.46
674.59	22183.60
674.73	22394.25
674.87	22127.42
675.01	21944.86
675.15	22239.77
675.29	22274.88
675.43	21680.38
675.56	21940.18
675.70	21867.63
675.84	22073.59
675.98	21223.98
676.12	21991.67
676.26	21951.88
676.40	21778.68
676.54	21750.60
676.68	21717.83
676.82	21259.09
676.96	21575.06
677.10	21502.50
677.23	21542.29
677.37	21376.11
677.51	21041.42
677.65	21186.53
677.79	21113.97
677.93	20765.23
678.07	21261.43
678.21	20900.98
678.34	20812.04
678.48	20807.36
678.62	20809.70
678.76	20587.35
678.90	20650.55
679.04	20966.52
679.18	20514.80
679.31	20217.55
679.45	20524.16
679.59	20119.24
679.73	20009.24
679.87	20329.89
680.00	20112.22
680.14	20063.07
680.28	19885.19
680.42	19866.47
680.56	19878.17
680.70	20264.36
680.83	19817.32
680.97	19562.20
681.11	19721.35
681.25	19833.70
681.39	19658.16
681.52	19501.34
681.66	19459.21
681.80	19386.66
681.94	19496.66
682.07	19384.32
682.21	19316.44
682.35	19035.58
682.49	19110.47
682.62	18946.64
682.76	18820.25
682.90	18916.21
683.04	19068.34
683.17	18780.46
683.31	19061.32
683.45	18963.02
683.59	18754.71
683.72	18785.14
683.86	18897.49
684.00	18448.10
684.13	18558.11
684.27	18431.72
684.41	18174.26
684.55	18427.04
684.68	18286.61
684.82	18104.04
684.96	18328.74
685.09	17982.34
685.23	17994.04
685.37	17886.37
685.50	18263.20
685.64	17972.97
685.78	17949.57
685.91	17699.13
686.05	17661.68
686.19	17734.24
686.32	17825.52
686.46	17488.48
686.60	17413.59
686.73	17193.58
686.87	17308.26
687.01	17249.75
687.14	17310.60
687.28	17284.86
687.42	17366.78
687.55	16978.25
687.69	17043.78
687.82	17001.65
687.96	16826.11
688.10	16812.07
688.23	16940.80
688.37	16875.26
688.50	16819.09
688.64	16800.37
688.78	16650.57
688.91	16444.60
689.05	16585.04
689.18	16484.39
689.32	16379.07
689.46	16259.70
689.59	16180.12
689.73	16173.10
689.86	16313.53
690.00	16042.03
690.13	15868.83
690.27	16049.05
690.41	15833.72
690.54	15681.59
690.68	15967.13
690.81	15693.29
690.95	16065.44
691.08	15873.51
691.22	15637.12
691.35	15459.24
691.49	15543.50
691.62	15470.94
691.76	15218.16
691.89	15295.40
692.03	15101.14
692.16	14895.17
692.30	15068.37
692.43	14988.79
692.57	14904.53
692.70	15075.39
692.84	14934.96
692.97	14888.15
693.11	14883.47
693.24	14574.52
693.38	14743.03
693.51	14696.22
693.65	14883.47
693.78	14569.83
693.92	14595.58
694.05	14298.33
694.19	14197.69
694.32	14073.64
694.45	14438.76
694.59	14097.05
694.72	14146.20
694.86	14057.26
694.99	14097.05
695.13	13727.24
695.26	14122.79
695.39	13694.47
695.53	13998.74
695.66	13750.65
695.80	13921.51
695.93	13905.12
696.07	13612.56
696.20	13862.99
696.33	13528.30
696.47	13312.97
696.60	13509.57
696.73	13462.76
696.87	13404.25
697.00	13291.90
697.14	13294.24
697.27	12999.34
697.40	13245.09
697.54	12798.05
697.67	13018.06
697.80	12896.35
697.94	12882.31
698.07	12580.38
698.21	12664.64
698.34	12711.45
698.47	12709.11
698.61	12599.10
698.74	12727.83
698.87	12671.66
699.01	12678.68
699.14	12362.71
699.27	12491.44
699.40	12528.89
699.54	12306.54
699.67	12170.79
699.80	12287.81
699.94	12210.57
700.07	11941.41
700.20	12020.99
700.34	11824.39
700.47	11700.34
700.60	11822.05
700.73	12257.39
700.87	11609.06
701.00	11789.28
701.13	11557.57
701.26	11726.08
701.40	11808.00
701.53	11702.68
701.66	11686.29
701.79	11403.09
701.93	11389.05
702.06	11119.89
702.19	11211.17
702.32	11077.76
702.46	11061.37
702.59	11052.01
702.72	11047.33
702.85	10874.13
702.99	11002.86
703.12	11042.65
703.25	10911.58
703.38	10841.36
703.51	10846.04
703.65	10736.04
703.78	10920.94
703.91	10567.52
704.04	10644.76
704.17	10600.29
704.31	10537.09
704.44	10633.05
704.57	10478.58
704.70	10188.35
704.83	10289.00
704.96	10387.30
705.10	10029.20
705.23	10438.79
>>>>>End Processed Spectral Data<<<<<
