SpectraSuite Data File
++++++++++++++++++++++++++++++++++++
Date: Fri Oct 18 13:57:53 GMT-05:00 2013
User: bianchi
Dark Spectrum Present: No
Reference Spectrum Present: No
Number of Sampled Component Spectra: 1
Spectrometers: USB2+H05261
Integration Time (usec): 50000 (USB2+H05261)
Spectra Averaged: 1 (USB2+H05261)
Boxcar Smoothing: 0 (USB2+H05261)
Correct for Electrical Dark: No (USB2+H05261)
Strobe/Lamp Enabled: No (USB2+H05261)
Correct for Detector Non-linearity: No (USB2+H05261)
Correct for Stray Light: No (USB2+H05261)
Number of Pixels in Processed Spectrum: 2048
>>>>>Begin Processed Spectral Data<<<<<
365.73	0.00
365.92	0.00
366.12	0.00
366.32	0.00
366.52	0.00
366.72	0.00
366.91	0.00
367.11	0.00
367.31	0.00
367.51	0.00
367.70	0.00
367.90	0.00
368.10	0.00
368.30	0.00
368.49	0.00
368.69	0.00
368.89	0.00
369.09	0.00
369.28	0.00
369.48	0.00
369.68	0.00
369.87	0.00
370.07	0.00
370.27	0.00
370.47	0.00
370.66	39.79
370.86	159.16
371.06	156.82
371.25	154.48
371.45	142.77
371.65	135.75
371.84	156.82
372.04	112.35
372.24	224.69
372.44	236.39
372.63	177.88
372.83	212.99
373.03	154.48
373.22	238.73
373.42	147.45
373.62	175.54
373.81	217.67
374.01	241.08
374.21	189.58
374.40	182.56
374.60	243.42
374.79	283.20
374.99	229.37
375.19	238.73
375.38	224.69
375.58	259.80
375.78	234.05
375.97	304.27
376.17	283.20
376.37	241.08
376.56	234.05
376.76	276.18
376.95	217.67
377.15	332.36
377.35	278.52
377.54	341.72
377.74	304.27
377.93	276.18
378.13	365.12
378.33	320.65
378.52	355.76
378.72	330.02
378.91	297.25
379.11	255.12
379.31	311.29
379.50	285.55
379.70	330.02
379.89	322.99
380.09	255.12
380.28	278.52
380.48	285.55
380.68	294.91
380.87	245.76
381.07	400.23
381.26	308.95
381.46	308.95
381.65	315.97
381.85	344.06
382.04	374.49
382.24	306.61
382.43	353.42
382.63	365.12
382.83	346.40
383.02	369.80
383.22	311.29
383.41	346.40
383.61	381.51
383.80	400.23
384.00	447.04
384.19	292.57
384.39	416.62
384.58	404.91
384.78	449.38
384.97	355.76
385.17	311.29
385.36	416.62
385.56	376.83
385.75	409.59
385.95	367.46
386.14	414.27
386.34	372.15
386.53	381.51
386.72	444.70
386.92	395.55
387.11	423.64
387.31	451.72
387.50	332.36
387.70	440.02
387.89	465.77
388.09	402.57
388.28	468.11
388.48	393.21
388.67	421.30
388.86	486.83
389.06	390.87
389.25	411.93
389.45	535.98
389.64	425.98
389.84	482.15
390.03	500.87
390.22	470.45
390.42	454.06
390.61	461.09
390.81	444.70
391.00	580.45
391.19	627.26
391.39	519.60
391.58	596.84
391.78	444.70
391.97	496.19
392.16	479.81
392.36	617.90
392.55	603.86
392.75	484.49
392.94	465.77
393.13	561.73
393.33	557.05
393.52	582.79
393.71	524.28
393.91	468.11
394.10	528.96
394.29	589.82
394.49	613.22
394.68	599.18
394.88	571.09
395.07	664.71
395.26	655.35
395.46	620.24
395.65	617.90
395.84	582.79
396.04	681.10
396.23	624.92
396.42	643.65
396.62	587.47
396.81	657.69
397.00	603.86
397.19	674.07
397.39	564.07
397.58	734.93
397.77	610.88
397.97	732.59
398.16	692.80
398.35	648.33
398.55	718.54
398.74	734.93
398.93	774.72
399.12	802.80
399.32	767.70
399.51	758.33
399.70	791.10
399.90	746.63
400.09	725.57
400.28	786.42
400.47	798.12
400.67	847.27
400.86	807.48
401.05	788.76
401.24	917.49
401.44	816.85
401.63	784.08
401.82	910.47
402.01	851.96
402.21	784.08
402.40	849.61
402.59	835.57
402.78	908.13
402.97	842.59
403.17	863.66
403.36	809.83
403.55	959.62
403.74	919.83
403.93	875.36
404.13	943.24
404.32	1025.15
404.51	828.55
404.70	915.15
404.89	968.98
405.09	983.02
405.28	1034.52
405.47	1006.43
405.66	985.37
405.85	1067.28
406.05	987.71
406.24	968.98
406.43	1018.13
406.62	1074.31
406.81	1027.50
407.00	1076.65
407.20	1104.73
407.39	1004.09
407.58	1090.69
407.77	1074.31
407.96	1146.86
408.15	1177.29
408.34	1121.12
408.54	1107.07
408.73	1083.67
408.92	1118.78
409.11	1210.06
409.30	1146.86
409.49	1132.82
409.68	1130.48
409.87	1156.22
410.07	1170.27
410.26	1193.67
410.45	1179.63
410.64	1235.80
410.83	1221.76
411.02	1212.40
411.21	1313.04
411.40	1228.78
411.59	1345.81
411.78	1352.83
411.98	1299.00
412.17	1301.34
412.36	1430.07
412.55	1378.58
412.74	1369.21
412.93	1348.15
413.12	1322.40
413.31	1462.83
413.50	1474.54
413.69	1451.13
413.88	1476.88
414.07	1502.62
414.26	1561.14
414.45	1519.01
414.64	1460.49
414.83	1490.92
415.02	1495.60
415.22	1533.05
415.41	1540.07
415.60	1568.16
415.79	1596.25
415.98	1591.56
416.17	1593.90
416.36	1682.85
416.55	1554.12
416.74	1767.10
416.93	1629.01
417.12	1703.91
417.31	1785.83
417.50	1762.42
417.69	1743.70
417.88	1830.30
418.07	1689.87
418.26	1729.66
418.45	1778.81
418.64	1912.22
418.83	1900.52
419.02	1785.83
419.21	1856.04
419.39	1884.13
419.58	1860.73
419.77	1830.30
419.96	1923.92
420.15	1895.83
420.34	1764.76
420.53	2001.16
420.72	1975.41
420.91	1982.43
421.10	1966.05
421.29	1977.75
421.48	1980.09
421.67	1944.99
421.86	1923.92
422.05	1860.73
422.24	2022.22
422.43	2155.63
422.61	2059.67
422.80	1973.07
422.99	1919.24
423.18	2211.81
423.37	2064.35
423.56	2080.74
423.75	2010.52
423.94	2005.84
424.13	1930.94
424.32	1888.81
424.50	2080.74
424.69	2134.57
424.88	2104.14
425.07	2019.88
425.26	2033.93
425.45	2111.16
425.64	2136.91
425.83	2054.99
426.01	2139.25
426.20	2104.14
426.39	2078.40
426.58	2087.76
426.77	2134.57
426.96	2183.72
427.15	2090.10
427.33	2232.87
427.52	2197.76
427.71	2146.27
427.90	2090.10
428.09	2256.28
428.28	2139.25
428.46	2270.32
428.65	2289.04
428.84	2312.45
429.03	2267.98
429.22	2176.70
429.40	2277.34
429.59	2293.72
429.78	2298.41
429.97	2062.01
430.16	2286.70
430.34	2333.51
430.53	2394.37
430.72	2466.92
430.91	2335.85
431.10	2361.60
431.28	2436.50
431.47	2363.94
431.66	2377.98
431.85	2270.32
432.03	2483.31
432.22	2492.67
432.41	2445.86
432.60	2541.82
432.79	2499.69
432.97	2422.45
433.16	2476.29
433.35	2537.14
433.54	2527.78
433.72	2483.31
433.91	2677.57
434.10	2600.34
434.28	2544.16
434.47	2586.29
434.66	2726.72
434.85	2612.04
435.03	2619.06
435.22	2640.12
435.41	2796.94
435.59	2602.68
435.78	2691.62
435.97	2722.04
436.16	2670.55
436.34	2740.77
436.53	2808.64
436.72	2902.26
436.90	2754.81
437.09	2766.51
437.28	2700.98
437.46	2796.94
437.65	2827.37
437.84	2710.34
438.02	2827.37
438.21	2813.32
438.40	2825.03
438.58	2862.48
438.77	2925.67
438.96	2902.26
439.14	2991.20
439.33	2937.37
439.52	3054.40
439.70	3112.91
439.89	3138.66
440.08	3096.53
440.26	3002.91
440.45	3148.02
440.63	3218.24
440.82	3220.58
441.01	3108.23
441.19	3103.55
441.38	3274.41
441.57	3218.24
441.75	3344.63
441.94	3351.65
442.12	3382.07
442.31	3442.93
442.50	3363.35
442.68	3543.57
442.87	3370.37
443.05	3531.87
443.24	3571.66
443.43	3482.72
443.61	3480.38
443.80	3529.53
443.98	3407.82
444.17	3396.12
444.35	3452.29
444.54	3552.93
444.73	3543.57
444.91	3449.95
445.10	3499.10
445.28	3494.42
445.47	3353.99
445.65	3583.36
445.84	3482.72
446.02	3590.38
446.21	3571.66
446.39	3574.00
446.58	3538.89
446.77	3606.77
446.95	3461.65
447.14	3522.51
447.32	3606.77
447.51	3543.57
447.69	3478.04
447.88	3616.13
448.06	3557.61
448.25	3611.45
448.43	3599.74
448.62	3529.53
448.80	3522.51
448.99	3595.06
449.17	3676.98
449.36	3749.54
449.54	3744.86
449.73	3721.45
449.91	3794.01
450.10	3688.68
450.28	3791.67
450.46	3843.16
450.65	3822.09
450.83	3761.24
451.02	3688.68
451.20	3941.46
451.39	4018.70
451.57	3808.05
451.76	3857.20
451.94	3826.78
452.13	3929.76
452.31	3911.04
452.49	3887.63
452.68	3847.84
452.86	3913.38
453.05	4004.66
453.23	4035.08
453.42	3971.89
453.60	3969.55
453.78	3854.86
453.97	4051.47
454.15	4145.09
454.34	4077.21
454.52	3932.10
454.70	4018.70
454.89	4014.02
455.07	4098.28
455.26	4191.90
455.44	4210.62
455.62	4175.52
455.81	4170.83
455.99	4044.45
456.17	4201.26
456.36	4112.32
456.54	4388.50
456.73	4140.41
456.91	4395.53
457.09	4414.25
457.28	4351.06
457.46	4212.96
457.64	4505.53
457.83	4386.16
458.01	4306.59
458.19	4461.06
458.38	4491.49
458.56	4566.39
458.74	4435.32
458.93	4435.32
459.11	4318.29
459.29	4479.79
459.48	4463.40
459.66	4465.74
459.84	4571.07
460.03	4608.51
460.21	4599.15
460.39	4519.57
460.57	4655.33
460.76	4685.75
460.94	4910.44
461.12	4601.49
461.31	4692.77
461.49	4650.64
461.67	4765.33
461.85	4968.96
462.04	4730.22
462.22	4947.89
462.40	5057.90
462.59	4851.93
462.77	4826.18
462.95	4748.95
463.13	4812.14
463.32	4856.61
463.50	4865.97
463.68	4929.17
463.86	5041.51
464.05	4950.23
464.23	4966.62
464.41	5013.43
464.59	4940.87
464.78	5018.11
464.96	5085.98
465.14	4945.55
465.32	5020.45
465.50	4933.85
465.69	5060.24
465.87	5020.45
466.05	5142.16
466.23	5118.75
466.41	5181.95
466.60	5348.12
466.78	5144.50
466.96	4978.32
467.14	5104.71
467.32	5331.74
467.51	5238.12
467.69	5296.63
467.87	5331.74
468.05	5305.99
468.23	5195.99
468.41	5130.45
468.60	5329.40
468.78	5254.50
468.96	5149.18
469.14	5177.26
469.32	5364.51
469.50	5282.59
469.69	5320.04
469.87	5383.23
470.05	5643.03
470.23	5596.22
470.41	5444.09
470.59	5582.18
470.77	5432.38
470.95	5537.71
471.14	5767.08
471.32	5785.80
471.50	5598.56
471.68	5781.12
471.86	5921.56
472.04	5912.19
472.22	5867.72
472.40	5753.04
472.58	5926.24
472.77	5788.14
472.95	5905.17
473.13	5975.39
473.31	6033.90
473.49	5860.70
473.67	5844.32
473.85	5849.00
474.03	6183.70
474.21	6127.52
474.39	6099.44
474.57	6289.02
474.75	6129.86
474.93	6200.08
475.12	6122.84
475.30	6466.90
475.48	6230.51
475.66	6342.85
475.84	6370.94
476.02	6590.95
476.20	6480.94
476.38	6581.59
476.56	6801.60
476.74	6722.02
476.92	6590.95
477.10	6651.80
477.28	6736.06
477.46	6722.02
477.64	6848.41
477.82	6803.94
478.00	7253.32
478.18	7033.31
478.36	7213.53
478.54	7133.95
478.72	7309.49
478.90	7295.45
479.08	7124.59
479.26	7344.60
479.44	7417.16
479.62	7426.52
479.80	7520.14
479.98	7449.93
480.16	7531.84
480.34	7705.04
480.52	7896.97
480.70	7906.33
480.88	7698.02
481.06	7873.56
481.24	7873.56
481.41	7953.14
481.59	7974.21
481.77	8053.78
481.95	8374.44
482.13	8138.04
482.31	8229.32
482.49	8379.12
482.67	8573.38
482.85	8491.46
483.03	8566.36
483.21	8769.99
483.39	8723.18
483.57	8786.37
483.74	8828.50
483.92	8901.06
484.10	8997.02
484.28	8926.80
484.46	9268.52
484.64	9605.56
484.82	9275.54
485.00	9114.05
485.18	9507.26
485.35	9795.14
485.53	9603.22
485.71	9680.46
485.89	9853.66
486.07	9666.41
486.25	9706.20
486.43	9886.42
486.61	10022.17
486.78	9933.23
486.96	10190.69
487.14	10214.10
487.32	10366.23
487.50	10413.04
487.68	10583.90
487.85	10382.62
488.03	10796.89
488.21	10768.80
488.39	10846.04
488.57	10834.34
488.75	10932.64
488.92	11033.29
489.10	11066.05
489.28	11084.78
489.46	11342.24
489.64	11463.94
489.81	11269.68
489.99	11342.24
490.17	11808.00
490.35	11770.55
490.53	11932.05
490.70	11623.10
490.88	11967.16
491.06	11929.71
491.24	11908.65
491.41	12056.10
491.59	12458.67
491.77	12243.34
491.95	12634.21
492.13	12346.33
492.30	12517.18
492.48	12372.07
492.66	12514.84
492.84	12547.61
493.01	12933.80
493.19	12999.34
493.37	13179.56
493.54	13310.63
493.72	13355.10
493.90	12908.05
494.08	13231.05
494.25	13427.65
494.43	13544.68
494.61	13631.28
494.79	13453.40
494.96	13500.21
495.14	13654.69
495.32	13504.89
495.49	13965.98
495.67	13872.36
495.85	13870.01
496.02	14272.59
496.20	14380.25
496.38	14370.89
496.55	14354.51
496.73	14672.82
496.91	14263.22
497.09	14537.07
497.26	14553.45
497.44	14649.41
497.62	14792.19
497.79	14752.40
497.97	14925.60
498.14	15133.90
498.32	15159.65
498.50	15410.09
498.67	14984.11
498.85	15330.51
499.03	15159.65
499.20	15398.38
499.38	15456.90
499.56	15625.42
499.73	15543.50
499.91	15768.19
500.08	15910.96
500.26	15576.27
500.44	16016.29
500.61	15852.45
500.79	15992.88
500.97	16025.65
501.14	15906.28
501.32	15967.13
501.49	16287.79
501.67	16133.31
501.84	16196.51
502.02	16325.24
502.20	16512.48
502.37	16535.88
502.55	16596.74
502.72	16458.65
502.90	16671.64
503.07	16205.87
503.25	16620.14
503.43	16439.92
503.60	16861.22
503.78	16744.19
503.95	17053.14
504.13	17011.01
504.30	16879.94
504.48	16723.13
504.65	17341.03
504.83	17216.98
505.01	17357.41
505.18	17191.23
505.36	17570.40
505.53	17212.30
505.71	17444.01
505.88	17547.00
506.06	17238.05
506.23	17701.47
506.41	17727.22
506.58	17619.55
506.76	17942.55
506.93	17792.75
507.11	17947.23
507.28	17977.65
507.46	18239.79
507.63	18354.48
507.81	18272.56
507.98	17820.84
508.16	18441.08
508.33	17991.70
508.50	18214.05
508.68	18258.52
508.85	18452.78
509.03	18569.81
509.20	18672.79
509.38	18843.65
509.55	19108.13
509.73	19051.96
509.90	18829.61
510.08	18515.98
510.25	18904.51
510.42	19358.57
510.60	19073.03
510.77	18902.17
510.95	19178.35
511.12	19091.75
511.30	19084.73
511.47	18970.04
511.64	19283.67
511.82	19262.61
511.99	19377.30
512.17	19733.06
512.34	19372.61
512.51	19681.56
512.69	19449.85
512.86	19728.38
513.04	19847.74
513.21	19892.21
513.38	19735.40
513.56	19782.21
513.73	19819.66
513.90	19943.70
514.08	20025.62
514.25	20070.09
514.43	19859.45
514.60	20283.08
514.77	20559.27
514.95	20304.15
515.12	20105.20
515.29	20444.58
515.47	20472.67
515.64	20498.41
515.81	20547.56
515.99	20587.35
516.16	20793.32
516.33	20350.96
516.51	21067.16
516.68	20533.52
516.85	20636.50
517.03	20957.16
517.20	21120.99
517.37	20931.41
517.54	21254.40
517.72	21071.84
517.89	20695.02
518.06	20910.35
518.24	20870.56
518.41	21006.31
518.58	21223.98
518.75	21123.33
518.93	21537.61
519.10	21118.65
519.27	21469.73
519.45	21462.71
519.62	21324.62
519.79	21481.44
519.96	21790.39
520.14	21898.05
520.31	21731.87
520.48	21886.35
520.65	21525.91
520.83	21977.63
521.00	21626.55
521.17	21561.02
521.34	21633.57
521.52	22398.93
521.69	21930.82
521.86	22246.79
522.03	22422.33
522.20	22207.00
522.38	22228.07
522.55	22499.57
522.72	22185.94
522.89	22204.66
523.07	22457.44
523.24	22263.18
523.41	22958.31
523.58	22321.69
523.75	22881.08
523.92	22312.33
524.10	22518.29
524.27	22991.08
524.44	23028.53
524.61	22747.67
524.78	23271.95
524.96	22867.03
525.13	23007.47
525.30	23044.91
525.47	23269.61
525.64	23110.45
525.81	23274.29
525.98	23288.33
526.16	23241.52
526.33	23503.66
526.50	23330.46
526.67	22934.91
526.84	23220.45
527.01	23543.45
527.18	23206.41
527.36	23974.11
527.53	23718.99
527.70	24102.84
527.87	24386.04
528.04	23812.61
528.21	23826.65
528.38	23920.28
528.55	23716.65
528.72	23857.08
528.89	24140.29
529.07	23871.12
529.24	23814.95
529.41	24144.97
529.58	24095.82
529.75	24233.91
529.92	23648.77
530.09	24011.56
530.26	23934.32
530.43	24547.54
530.60	24140.29
530.77	24584.99
530.94	24486.68
531.11	24088.79
531.28	24327.53
531.46	24425.83
531.63	24526.47
531.80	24489.03
531.97	24613.07
532.14	24636.48
532.31	24884.58
532.48	24683.29
532.65	24364.98
532.82	24678.61
532.99	24758.19
533.16	24907.98
533.33	24573.28
533.50	24959.47
533.67	25125.65
533.84	24858.83
534.01	24978.20
534.18	24903.30
534.35	24910.32
534.52	24840.11
534.69	24996.92
534.86	25427.58
535.03	25298.85
535.20	25303.53
535.37	25252.04
535.54	25628.87
535.71	25106.93
535.88	25085.86
536.05	25469.71
536.22	25722.49
536.38	25802.07
536.55	25411.20
536.72	25649.93
536.89	25352.68
537.06	25673.34
537.23	25528.22
537.40	25816.11
537.57	25771.64
537.74	25757.60
537.91	26111.02
538.08	26003.35
538.25	25659.29
538.42	25495.46
538.59	26274.85
538.75	25546.95
538.92	25968.24
539.09	26040.80
539.26	26073.57
539.43	26141.44
539.60	26242.09
539.77	26270.17
539.94	26073.57
540.11	26164.85
540.28	26171.87
540.44	26164.85
540.61	26300.60
540.78	26033.78
540.95	26366.13
541.12	26064.21
541.29	26422.31
541.46	26363.79
541.62	26321.66
541.79	26223.36
541.96	26155.49
542.13	26319.32
542.30	26677.43
542.47	26892.76
542.63	26803.82
542.80	26920.84
542.97	26775.73
543.14	27157.24
543.31	26792.11
543.48	27044.89
543.64	26859.99
543.81	26955.95
543.98	27536.40
544.15	27288.31
544.32	27190.00
544.48	27587.89
544.65	27243.84
544.82	27075.32
544.99	27014.46
545.16	27227.45
545.32	26991.06
545.49	27190.00
545.66	27747.05
545.83	27475.55
546.00	27789.18
546.16	27410.01
546.33	27218.09
546.50	27140.85
546.67	27150.21
546.83	27002.76
547.00	27274.26
547.17	27711.94
547.34	27761.09
547.50	27669.81
547.67	28088.77
547.84	27524.70
548.00	27571.51
548.17	28098.13
548.34	27667.47
548.51	28065.36
548.67	27821.95
548.84	27885.14
549.01	27943.66
549.18	27920.25
549.34	27765.78
549.51	27826.63
549.68	28236.22
549.84	28088.77
550.01	27789.18
550.18	27737.69
550.34	27880.46
550.51	28119.20
550.68	28512.41
550.84	28053.66
551.01	28175.37
551.18	27714.28
551.34	27887.48
551.51	28437.51
551.68	28294.74
551.84	28435.17
552.01	28238.56
552.18	28863.49
552.34	28587.30
552.51	28893.91
552.68	28528.79
552.84	28425.81
553.01	28409.42
553.18	28243.24
553.34	28720.71
553.51	28875.19
553.67	28830.72
553.84	28924.34
554.01	28924.34
554.17	28830.72
554.34	28954.77
554.51	28760.50
554.67	28685.61
554.84	28666.88
555.00	28802.63
555.17	29036.69
555.33	28474.96
555.50	28982.85
555.67	28975.83
555.83	28837.74
556.00	28971.15
556.16	29071.79
556.33	29020.30
556.50	28865.83
556.66	29221.59
556.83	28931.36
556.99	29298.83
557.16	29179.46
557.32	29223.93
557.49	29457.98
557.65	28987.53
557.82	28919.66
557.98	29144.35
558.15	29151.37
558.32	29252.02
558.48	29432.24
558.65	29340.96
558.81	29294.14
558.98	29060.09
559.14	29839.49
559.31	29312.87
559.47	29369.04
559.64	29656.93
559.80	29675.65
559.97	29708.42
560.13	29425.22
560.30	29640.54
560.46	29333.93
560.63	29237.97
560.79	29406.49
560.96	29883.96
561.12	29406.49
561.29	29490.75
561.45	29500.11
561.61	29467.34
561.78	29680.33
561.94	29673.31
562.11	29731.83
562.27	29776.30
562.44	29661.61
562.60	29535.22
562.77	29792.68
562.93	29537.56
563.10	30082.91
563.26	29809.06
563.42	29984.60
563.59	30054.82
563.75	29668.63
563.92	29771.61
564.08	29993.97
564.24	30178.87
564.41	29668.63
564.57	29736.51
564.74	29511.81
564.90	30288.87
565.07	29851.19
565.23	29886.30
565.39	30038.44
565.56	29736.51
565.72	29930.77
565.88	29876.94
566.05	30101.63
566.21	29663.95
566.38	29961.20
566.54	30167.16
566.70	30125.04
566.87	30412.92
567.03	29776.30
567.19	30244.40
567.36	30057.16
567.52	29675.65
567.68	30113.33
567.85	30169.51
568.01	30134.40
568.17	29944.81
568.34	30314.62
568.50	29909.71
568.66	30244.40
568.83	30363.77
568.99	30068.86
569.15	30267.81
569.32	30108.65
569.48	29743.53
569.64	30274.83
569.81	30242.06
569.97	30628.25
570.13	30691.44
570.30	30253.76
570.46	30422.28
570.62	29951.84
570.78	29883.96
570.95	30239.72
571.11	30298.23
571.27	30242.06
571.43	30073.54
571.60	30483.14
571.76	30012.69
571.92	30536.97
572.09	30373.13
572.25	30654.00
572.41	30398.88
572.57	30312.28
572.74	30345.05
572.90	30366.11
573.06	30368.45
573.22	30520.59
573.38	30707.83
573.55	30433.99
573.71	30569.74
573.87	30595.48
574.03	30459.73
574.20	30164.82
574.36	30384.83
574.52	30476.12
574.68	30228.02
574.84	30525.27
575.01	30539.31
575.17	30808.47
575.33	30595.48
575.49	30506.54
575.65	30373.13
575.82	30316.96
575.98	30085.25
576.14	30810.81
576.30	30286.53
576.46	30841.24
576.62	30466.75
576.79	30192.91
576.95	30396.54
577.11	30628.25
577.27	30160.14
577.43	30782.73
577.59	30885.71
577.75	30588.46
577.92	30506.54
578.08	30471.43
578.24	30433.99
578.40	30661.02
578.56	30309.94
578.72	30249.08
578.88	30417.60
579.04	30967.63
579.21	30859.96
579.37	30836.56
579.53	30560.37
579.69	30579.10
579.85	30497.18
580.01	30642.29
580.17	30436.33
580.33	30525.27
580.49	30831.88
580.65	30759.32
580.82	31166.57
580.98	30764.00
581.14	30768.68
581.30	30775.70
581.46	30387.18
581.62	30576.76
581.78	30492.50
581.94	30665.70
582.10	30562.72
582.26	30862.30
582.42	30572.08
582.58	30831.88
582.74	30326.32
582.90	30806.13
583.06	30679.74
583.22	30766.34
583.38	30277.17
583.54	30574.42
583.70	30541.65
583.86	30857.62
584.02	30403.56
584.18	31021.46
584.34	31007.42
584.50	31108.06
584.66	30560.37
584.82	30677.40
584.98	30721.87
585.14	30616.55
585.30	30850.60
585.46	30883.37
585.62	30600.16
585.78	30710.17
585.94	30705.49
586.10	30742.94
586.26	31042.53
586.42	30944.22
586.58	31311.69
586.74	31054.23
586.90	30885.71
587.06	30742.94
587.22	30675.06
587.38	30771.02
587.54	31159.55
587.70	30981.67
587.86	30866.98
588.02	30483.14
588.18	30883.37
588.34	31269.56
588.49	30995.71
588.65	31070.61
588.81	31094.02
588.97	30967.63
589.13	30962.95
589.29	30679.74
589.45	30644.63
589.61	31344.45
589.77	31082.31
589.93	31325.73
590.08	31180.62
590.24	31234.45
590.40	31199.34
590.56	31023.80
590.72	31079.97
590.88	30733.57
591.04	31063.59
591.20	31337.43
591.35	30843.58
591.51	31335.09
591.67	31241.47
591.83	31138.49
591.99	31285.94
592.15	30792.09
592.31	31395.95
592.46	30614.21
592.62	30960.61
592.78	30953.58
592.94	31601.91
593.10	31218.07
593.26	31611.28
593.41	31091.68
593.57	31079.97
593.73	31276.58
593.89	31578.51
594.05	31318.71
594.20	30717.19
594.36	31353.82
594.52	31061.25
594.68	31005.08
594.84	30972.31
594.99	31360.84
595.15	31515.31
595.31	31358.50
595.47	31456.80
595.62	31377.22
595.78	31630.00
595.94	31332.75
596.10	31316.37
596.25	31171.25
596.41	31143.17
596.57	31131.47
596.73	31590.21
596.88	31044.87
597.04	31510.63
597.20	31391.26
597.36	31592.55
597.51	31498.93
597.67	31627.66
597.83	30890.39
597.99	31309.35
598.14	31599.57
598.30	31409.99
598.46	31309.35
598.61	31269.56
598.77	31484.89
598.93	31400.63
599.09	31414.67
599.24	31594.89
599.40	31868.73
599.56	31459.14
599.71	31304.67
599.87	31349.14
600.03	31255.51
600.18	31358.50
600.34	31335.09
600.50	31482.55
600.65	31391.26
600.81	31812.56
600.97	31372.54
601.12	31730.64
601.28	31894.48
601.44	31594.89
601.59	31604.25
601.75	31688.51
601.91	31449.78
602.06	31461.48
602.22	31566.81
602.37	31480.21
602.53	31482.55
602.69	31304.67
602.84	31660.43
603.00	31421.69
603.16	31510.63
603.31	31604.25
603.47	31812.56
603.62	31543.40
603.78	31302.32
603.94	31274.24
604.09	31388.92
604.25	31412.33
604.40	31555.10
604.56	31548.08
604.71	31576.17
604.87	31718.94
605.03	31424.03
605.18	31810.22
605.34	32144.92
605.49	31431.05
605.65	31480.21
605.80	30974.65
605.96	31307.01
606.12	31519.99
606.27	31356.16
606.43	31117.42
606.58	31585.53
606.74	31218.07
606.89	31463.82
607.05	31861.71
607.20	31742.35
607.36	31548.08
607.51	31480.21
607.67	31433.39
607.82	31447.44
607.98	31452.12
608.13	31094.02
608.29	31314.03
608.44	31304.67
608.60	31557.44
608.75	31351.48
608.91	31536.38
609.06	30981.67
609.22	31124.44
609.37	31026.14
609.53	30927.84
609.68	31087.00
609.84	30967.63
609.99	31218.07
610.15	31140.83
610.30	31115.08
610.46	31250.83
610.61	31332.75
610.76	31325.73
610.92	31346.79
611.07	31014.44
611.23	31356.16
611.38	31243.81
611.54	30944.22
611.69	30824.86
611.84	31129.12
612.00	30895.07
612.15	30693.79
612.31	30960.61
612.46	31143.17
612.62	31115.08
612.77	30979.33
612.92	31522.34
613.08	30806.13
613.23	31056.57
613.39	30459.73
613.54	30885.71
613.69	31082.31
613.85	30506.54
614.00	31161.89
614.15	31194.66
614.31	30902.09
614.46	31126.78
614.62	30902.09
614.77	30993.37
614.92	30728.89
615.08	30843.58
615.23	30841.24
615.38	30834.22
615.54	30586.12
615.69	30675.06
615.84	30838.90
616.00	30845.92
616.15	30572.08
616.30	31353.82
616.46	31040.18
616.61	30728.89
616.76	30672.72
616.92	30258.45
617.07	30764.00
617.22	30881.03
617.37	30026.73
617.53	30291.21
617.68	30525.27
617.83	30323.98
617.99	30665.70
618.14	30066.52
618.29	30445.69
618.45	30712.51
618.60	30836.56
618.75	30405.90
618.90	30668.04
619.06	30396.54
619.21	30576.76
619.36	30092.27
619.51	30677.40
619.67	30455.05
619.82	29727.14
619.97	30085.25
620.12	30040.78
620.28	30462.07
620.43	30225.68
620.58	30754.64
620.73	30349.73
620.89	30494.84
621.04	30396.54
621.19	30316.96
621.34	30363.77
621.49	30050.14
621.65	29886.30
621.80	30300.58
621.95	30167.16
622.10	30008.01
622.25	29963.54
622.41	29769.27
622.56	29706.08
622.71	30396.54
622.86	30216.32
623.01	29675.65
623.16	30181.21
623.32	29773.95
623.47	29790.34
623.62	29905.02
623.77	30080.56
623.92	29928.43
624.07	29883.96
624.23	29825.45
624.38	29734.17
624.53	30029.07
624.68	29986.94
624.83	29942.47
624.98	29881.62
625.13	29804.38
625.29	29895.66
625.44	29886.30
625.59	29633.52
625.74	29663.95
625.89	29450.96
626.04	29563.31
626.19	29710.76
626.34	29663.95
626.49	29352.66
626.65	29874.60
626.80	29874.60
626.95	29546.92
627.10	29708.42
627.25	29535.22
627.40	29315.21
627.55	29525.86
627.70	29436.92
627.85	29591.39
628.00	29237.97
628.15	29032.00
628.30	29537.56
628.45	29350.32
628.60	29036.69
628.76	29539.90
628.91	29474.37
629.06	29228.61
629.21	29514.16
629.36	29415.85
629.51	29029.66
629.66	29427.56
629.81	29275.42
629.96	29062.43
630.11	28863.49
630.26	29102.22
630.41	29359.68
630.56	29394.79
630.71	29090.52
630.86	29097.54
631.01	28851.78
631.16	28987.53
631.31	29015.62
631.46	28638.80
631.61	28793.27
631.76	29027.32
631.91	28893.91
632.06	28828.38
632.21	29132.65
632.36	28947.75
632.51	28882.21
632.66	28725.39
632.81	28582.62
632.96	29134.99
633.10	28655.18
633.25	28872.85
633.40	29083.50
633.55	28673.90
633.70	28816.68
633.85	28311.12
634.00	28711.35
634.15	28250.27
634.30	28659.86
634.45	28811.99
634.60	29078.82
634.75	28694.97
634.90	28561.56
635.05	28851.78
635.19	28552.20
635.34	28802.63
635.49	28779.23
635.64	28723.05
635.79	28912.64
635.94	28575.60
636.09	28737.10
636.24	28666.88
636.39	27887.48
636.53	28271.33
636.68	28154.30
636.83	28268.99
636.98	28842.42
637.13	28257.29
637.28	28603.69
637.43	28514.75
637.57	28226.86
637.72	28070.04
637.87	28367.29
638.02	28086.43
638.17	28180.05
638.32	28166.01
638.46	27995.15
638.61	28048.98
638.76	27999.83
638.91	28041.96
639.06	27758.75
639.20	28231.54
639.35	28304.10
639.50	27981.10
639.65	28514.75
639.80	28283.03
639.94	27847.69
640.09	27983.44
640.24	27924.93
640.39	27651.09
640.54	27791.52
640.68	27632.36
640.83	27737.69
640.98	27690.88
641.13	27604.28
641.27	28098.13
641.42	27803.22
641.57	28013.87
641.72	27821.95
641.86	27723.65
642.01	27644.07
642.16	27569.17
642.31	27704.92
642.45	27646.41
642.60	27395.97
642.75	27393.63
642.90	27606.62
643.04	27583.21
643.19	27267.24
643.34	27634.71
643.48	27419.38
643.63	27754.07
643.78	27180.64
643.93	27812.59
644.07	27763.43
644.22	27627.68
644.37	27798.54
644.51	27421.72
644.66	27400.65
644.81	27103.40
644.95	27398.31
645.10	27417.04
645.25	27229.79
645.39	27723.65
645.54	27445.12
645.69	27182.98
645.83	27309.37
645.98	27314.05
646.13	27297.67
646.27	27386.61
646.42	27087.02
646.57	27445.12
646.71	27253.20
646.86	27154.90
647.00	27199.37
647.15	27166.60
647.30	27077.66
647.44	26883.39
647.59	27035.53
647.74	27218.09
647.88	27091.70
648.03	27365.54
648.17	27295.33
648.32	27316.39
648.47	26923.18
648.61	27096.38
648.76	27206.39
648.90	27040.21
649.05	26927.86
649.20	26979.36
649.34	27063.61
649.49	26733.60
649.63	26724.24
649.78	26834.24
649.92	26457.42
650.07	27147.87
650.21	26700.83
650.36	27105.74
650.51	26845.94
650.65	26899.78
650.80	26993.40
650.94	27070.64
651.09	26752.32
651.23	26555.72
651.38	26958.29
651.52	26639.98
651.67	26370.82
651.81	26609.55
651.96	26586.15
652.10	26380.18
652.25	26604.87
652.39	26752.32
652.54	26471.46
652.68	26600.19
652.83	26831.90
652.97	26799.13
653.12	26967.65
653.26	26600.19
653.41	26845.94
653.55	26785.09
653.70	26436.35
653.84	26178.89
653.99	26417.63
654.13	26375.50
654.27	26340.39
654.42	26127.40
654.56	26757.00
654.71	26590.83
654.85	26525.29
655.00	26136.76
655.14	26405.92
655.29	26492.52
655.43	26321.66
655.57	26485.50
655.72	26141.44
655.86	25970.58
656.01	26501.89
656.15	26239.75
656.30	25879.30
656.44	25968.24
656.58	25886.32
656.73	26031.44
656.87	25986.97
657.01	26150.81
657.16	26298.26
657.30	26267.83
657.45	26223.36
657.59	25963.56
657.73	25699.08
657.88	26068.89
658.02	25827.81
658.16	25891.01
658.31	25781.00
658.45	25883.98
658.60	25865.26
658.74	25785.68
658.88	25458.01
659.03	25420.56
659.17	25448.64
659.31	25825.47
659.46	25607.80
659.60	25855.90
659.74	25626.53
659.89	25448.64
660.03	25572.69
660.17	25446.30
660.32	25338.64
660.46	25369.07
660.60	25427.58
660.74	25001.60
660.89	25378.43
661.03	24830.74
661.17	25273.10
661.32	25310.55
661.46	25156.08
661.60	25247.36
661.74	25380.77
661.89	25380.77
662.03	25106.93
662.17	25338.64
662.31	25010.96
662.46	24903.30
662.60	25046.07
662.74	24971.18
662.88	24786.27
663.03	24636.48
663.17	24711.38
663.31	24584.99
663.45	24496.05
663.60	24713.72
663.74	24486.68
663.88	24769.89
664.02	24655.20
664.17	24917.34
664.31	24353.27
664.45	24390.72
664.59	24599.03
664.73	24397.74
664.88	24517.11
665.02	24311.14
665.16	24484.34
665.30	24236.25
665.44	24259.65
665.59	24072.41
665.73	24390.72
665.87	23976.45
666.01	24283.06
666.15	24489.03
666.29	24238.59
666.44	24346.25
666.58	24245.61
666.72	24191.78
666.86	24360.30
667.00	24290.08
667.14	23962.40
667.28	24051.34
667.43	23693.24
667.57	23899.21
667.71	24039.64
667.85	23953.04
667.99	23983.47
668.13	23651.11
668.27	23688.56
668.41	23686.22
668.56	23590.26
668.70	23442.81
668.84	23962.40
668.98	23157.26
669.12	23871.12
669.26	23346.84
669.40	23300.03
669.54	23115.13
669.68	23566.85
669.82	23335.14
669.96	23058.96
670.10	22977.04
670.25	23173.64
670.39	23344.50
670.53	23049.60
670.67	22656.39
670.81	23002.78
670.95	23051.94
671.09	22850.65
671.23	22920.87
671.37	23194.71
671.51	22869.37
671.65	22834.27
671.79	23082.36
671.93	22916.19
672.07	22794.48
672.21	22293.60
672.35	22457.44
672.49	22595.53
672.63	22490.21
672.77	22375.52
672.91	22520.63
673.05	22532.34
673.19	22398.93
673.33	22314.67
673.47	22483.19
673.61	22384.88
673.75	22527.66
673.89	22307.65
674.03	22078.27
674.17	22366.16
674.31	22246.79
674.45	22033.80
674.59	22169.55
674.73	22010.40
674.87	21820.81
675.01	22043.17
675.15	21706.13
675.29	21605.49
675.43	21486.12
675.56	21495.48
675.70	21605.49
675.84	21633.57
675.98	21212.28
676.12	21902.73
676.26	21376.11
676.40	21277.81
676.54	21132.70
676.68	21083.55
676.82	20767.57
676.96	20999.29
677.10	21083.55
677.23	20936.09
677.37	20915.03
677.51	20847.15
677.65	21064.82
677.79	20210.53
677.93	20666.93
678.07	20615.44
678.21	20418.83
678.34	20561.61
678.48	20252.66
678.62	20393.09
678.76	20159.03
678.90	20236.27
679.04	20517.14
679.18	20149.67
679.31	19995.20
679.45	19941.36
679.59	19873.49
679.73	19962.43
679.87	19927.32
680.00	19847.74
680.14	19824.34
680.28	19819.66
680.42	19634.75
680.56	19892.21
680.70	19585.60
680.83	19765.82
680.97	19475.60
681.11	19372.61
681.25	19054.30
681.39	19187.71
681.52	19124.52
681.66	19255.59
681.80	18977.06
681.94	19066.00
682.07	19026.21
682.21	19042.60
682.35	18693.86
682.49	18675.13
682.62	18792.16
682.76	18850.67
682.90	18539.38
683.04	18651.73
683.17	18602.58
683.31	18780.46
683.45	18539.38
683.59	18438.74
683.72	18354.48
683.86	18120.43
684.00	18305.33
684.13	18307.67
684.27	18068.94
684.41	17977.65
684.55	17980.00
684.68	17750.62
684.82	17853.61
684.96	17577.42
685.09	17689.77
685.23	17759.98
685.37	17818.50
685.50	17561.04
685.64	17736.58
685.78	17722.54
685.91	17930.84
686.05	17406.56
686.19	17568.06
686.32	17642.96
686.46	17298.90
686.60	17338.69
686.73	17298.90
686.87	16826.11
687.01	17050.80
687.14	17064.85
687.28	17085.91
687.42	16760.58
687.55	16767.60
687.69	16938.46
687.82	16573.33
687.96	16936.12
688.10	16578.01
688.23	16484.39
688.37	16734.83
688.50	16610.78
688.64	16451.63
688.78	16430.56
688.91	16243.32
689.05	16372.05
689.18	16224.59
689.32	15779.89
689.46	15955.43
689.59	15744.78
689.73	16135.65
689.86	15962.45
690.00	15824.36
690.13	15765.85
690.27	15618.39
690.41	15660.52
690.54	15658.18
690.68	15562.22
690.81	15658.18
690.95	15550.52
691.08	15651.16
691.22	15583.29
691.35	15398.38
691.49	15442.85
691.62	15363.28
691.76	15300.08
691.89	15019.22
692.03	15014.54
692.16	14831.97
692.30	14787.50
692.43	14766.44
692.57	14820.27
692.70	14511.32
692.84	14640.05
692.97	14490.26
693.11	14806.23
693.24	14654.09
693.38	14389.61
693.51	14661.12
693.65	14471.53
693.78	14267.91
693.92	14670.48
694.05	14541.75
694.19	14066.62
694.32	14300.67
694.45	14104.07
694.59	13781.07
694.72	13942.57
694.86	13666.39
694.99	13558.72
695.13	13823.20
695.26	13668.73
695.39	13652.34
695.53	13841.93
695.66	13540.00
695.80	13631.28
695.93	13565.74
696.07	13610.22
696.20	13495.53
696.33	13401.91
696.47	13102.32
696.60	13460.42
696.73	13116.36
696.87	13331.69
697.00	13235.73
697.14	12805.07
697.27	12861.24
697.40	12854.22
697.54	12985.29
697.67	12720.81
697.80	12720.81
697.94	12444.63
698.07	12650.60
698.21	12505.48
698.34	12535.91
698.47	12627.19
698.61	12526.55
698.74	12566.34
698.87	12416.54
699.01	12037.38
699.14	12049.08
699.27	12304.20
699.40	12121.63
699.54	12011.63
699.67	12112.27
699.80	11875.88
699.94	11840.77
700.07	11948.43
700.20	11751.83
700.34	11672.25
700.47	11784.60
700.60	11604.38
700.73	11747.15
700.87	11683.95
701.00	11424.15
701.13	11447.56
701.26	11384.37
701.40	11438.20
701.53	11391.39
701.66	11248.61
701.79	11307.13
701.93	11204.14
702.06	11133.93
702.19	11073.07
702.32	11070.73
702.46	11000.52
702.59	10848.38
702.72	10836.68
702.85	10869.45
702.99	10923.28
703.12	10780.51
703.25	10583.90
703.38	10878.81
703.51	10607.31
703.65	10883.49
703.78	10324.10
703.91	10534.75
704.04	10504.32
704.17	10548.79
704.31	10164.95
704.44	10263.25
704.57	10469.22
704.70	10094.73
704.83	10183.67
704.96	10136.86
705.10	9940.26
705.23	9923.87
>>>>>End Processed Spectral Data<<<<<
