SpectraSuite Data File
++++++++++++++++++++++++++++++++++++
Date: Fri Oct 18 13:58:03 GMT-05:00 2013
User: bianchi
Dark Spectrum Present: No
Reference Spectrum Present: No
Number of Sampled Component Spectra: 1
Spectrometers: USB2+H05261
Integration Time (usec): 50000 (USB2+H05261)
Spectra Averaged: 1 (USB2+H05261)
Boxcar Smoothing: 0 (USB2+H05261)
Correct for Electrical Dark: No (USB2+H05261)
Strobe/Lamp Enabled: No (USB2+H05261)
Correct for Detector Non-linearity: No (USB2+H05261)
Correct for Stray Light: No (USB2+H05261)
Number of Pixels in Processed Spectrum: 2048
>>>>>Begin Processed Spectral Data<<<<<
365.73	0.00
365.92	0.00
366.12	0.00
366.32	0.00
366.52	0.00
366.72	0.00
366.91	0.00
367.11	0.00
367.31	0.00
367.51	0.00
367.70	0.00
367.90	0.00
368.10	0.00
368.30	0.00
368.49	0.00
368.69	0.00
368.89	0.00
369.09	0.00
369.28	0.00
369.48	0.00
369.68	0.00
369.87	0.00
370.07	0.00
370.27	0.00
370.47	0.00
370.66	23.41
370.86	77.24
371.06	86.60
371.25	105.32
371.45	194.26
371.65	168.52
371.84	145.11
372.04	124.05
372.24	147.45
372.44	227.03
372.63	212.99
372.83	208.31
373.03	184.90
373.22	217.67
373.42	173.20
373.62	227.03
373.81	250.44
374.01	238.73
374.21	208.31
374.40	280.86
374.60	241.08
374.79	145.11
374.99	227.03
375.19	245.76
375.38	313.63
375.58	250.44
375.78	152.13
375.97	287.89
376.17	252.78
376.37	283.20
376.56	215.33
376.76	273.84
376.95	236.39
377.15	297.25
377.35	276.18
377.54	299.59
377.74	257.46
377.93	313.63
378.13	327.68
378.33	276.18
378.52	224.69
378.72	262.14
378.91	299.59
379.11	271.50
379.31	292.57
379.50	273.84
379.70	308.95
379.89	315.97
380.09	283.20
380.28	292.57
380.48	259.80
380.68	287.89
380.87	365.12
381.07	276.18
381.26	304.27
381.46	397.89
381.65	374.49
381.85	222.35
382.04	287.89
382.24	325.33
382.43	318.31
382.63	301.93
382.83	428.32
383.02	372.15
383.22	337.04
383.41	334.70
383.61	386.19
383.80	465.77
384.00	365.12
384.19	360.44
384.39	444.70
384.58	425.98
384.78	341.72
384.97	397.89
385.17	362.78
385.36	372.15
385.56	411.93
385.75	353.42
385.95	400.23
386.14	418.96
386.34	411.93
386.53	463.43
386.72	442.36
386.92	367.46
387.11	379.17
387.31	388.53
387.50	451.72
387.70	456.40
387.89	486.83
388.09	444.70
388.28	407.25
388.48	454.06
388.67	433.00
388.86	421.30
389.06	554.71
389.25	587.47
389.45	468.11
389.64	475.13
389.84	557.05
390.03	535.98
390.22	519.60
390.42	468.11
390.61	514.92
390.81	519.60
391.00	451.72
391.19	475.13
391.39	440.02
391.58	524.28
391.78	503.22
391.97	507.90
392.16	526.62
392.36	510.24
392.55	447.04
392.75	554.71
392.94	503.22
393.13	578.11
393.33	526.62
393.52	552.37
393.71	610.88
393.91	617.90
394.10	531.30
394.29	641.31
394.49	531.30
394.68	620.24
394.88	655.35
395.07	603.86
395.26	648.33
395.46	695.14
395.65	645.99
395.84	547.69
396.04	645.99
396.23	617.90
396.42	594.50
396.62	645.99
396.81	578.11
397.00	641.31
397.19	657.69
397.39	660.03
397.58	739.61
397.77	645.99
397.97	683.44
398.16	636.63
398.35	723.23
398.55	748.97
398.74	596.84
398.93	704.50
399.12	741.95
399.32	720.88
399.51	800.46
399.70	737.27
399.90	716.20
400.09	760.67
400.28	772.38
400.47	784.08
400.67	697.48
400.86	737.27
401.05	837.91
401.24	781.74
401.44	765.36
401.63	727.91
401.82	837.91
402.01	741.95
402.21	891.74
402.40	774.72
402.59	774.72
402.78	772.38
402.97	826.21
403.17	858.98
403.36	915.15
403.55	842.59
403.74	875.36
403.93	926.85
404.13	987.71
404.32	957.28
404.51	901.11
404.70	924.51
404.89	971.32
405.09	1008.77
405.28	1039.20
405.47	994.73
405.66	1015.79
405.85	954.94
406.05	1062.60
406.24	973.66
406.43	1013.45
406.62	987.71
406.81	1130.48
407.00	1039.20
407.20	968.98
407.39	1074.31
407.58	1097.71
407.77	1156.22
407.96	1074.31
408.15	1219.42
408.34	1144.52
408.54	1121.12
408.73	1015.79
408.92	1095.37
409.11	1163.25
409.30	1163.25
409.49	1125.80
409.68	1135.16
409.87	1179.63
410.07	1207.72
410.26	1177.29
410.45	1167.93
410.64	1261.55
410.83	1233.46
411.02	1102.39
411.21	1172.61
411.40	1270.91
411.59	1247.51
411.78	1245.16
411.98	1221.76
412.17	1303.68
412.36	1289.64
412.55	1350.49
412.74	1362.19
412.93	1465.18
413.12	1359.85
413.31	1416.02
413.50	1366.87
413.69	1409.00
413.88	1394.96
414.07	1446.45
414.26	1441.77
414.45	1544.75
414.64	1509.65
414.83	1476.88
415.02	1441.77
415.22	1533.05
415.41	1493.26
415.60	1600.93
415.79	1516.67
415.98	1619.65
416.17	1556.46
416.36	1579.86
416.55	1694.55
416.74	1774.13
416.93	1659.44
417.12	1657.10
417.31	1603.27
417.50	1577.52
417.69	1802.21
417.88	1811.57
418.07	1708.59
418.26	1743.70
418.45	1771.79
418.64	1799.87
418.83	1806.89
419.02	1820.94
419.21	1825.62
419.39	1795.19
419.58	1788.17
419.77	1860.73
419.96	1816.26
420.15	1916.90
420.34	1902.86
420.53	1907.54
420.72	1834.98
420.91	1867.75
421.10	1893.49
421.29	2036.27
421.48	1891.15
421.67	1942.64
421.86	2024.56
422.05	2024.56
422.24	1956.69
422.43	2045.63
422.61	1989.46
422.80	2127.55
422.99	1994.14
423.18	1935.62
423.37	2118.18
423.56	2038.61
423.75	1930.94
423.94	1909.88
424.13	1865.41
424.32	1980.09
424.50	1984.77
424.69	2118.18
424.88	2071.37
425.07	2087.76
425.26	1891.15
425.45	2069.03
425.64	2071.37
425.83	2026.90
426.01	2071.37
426.20	1996.48
426.39	2120.53
426.58	2094.78
426.77	2054.99
426.96	2073.71
427.15	2122.87
427.33	2043.29
427.52	2146.27
427.71	2059.67
427.90	2167.34
428.09	2150.95
428.28	2195.42
428.46	2136.91
428.65	2221.17
428.84	2225.85
429.03	2279.68
429.22	2122.87
429.40	2298.41
429.59	2169.68
429.78	2120.53
429.97	2136.91
430.16	2204.78
430.34	2275.00
430.53	2399.05
430.72	2277.34
430.91	2263.30
431.10	2218.83
431.28	2272.66
431.47	2363.94
431.66	2387.35
431.85	2293.72
432.03	2340.54
432.22	2511.39
432.41	2385.01
432.60	2413.09
432.79	2590.97
432.97	2509.05
433.16	2436.50
433.35	2471.61
433.54	2579.27
433.72	2539.48
433.91	2392.03
434.10	2506.71
434.28	2626.08
434.47	2525.44
434.66	2567.57
434.85	2621.40
435.03	2619.06
435.22	2588.63
435.41	2717.36
435.59	2647.15
435.78	2576.93
435.97	2633.10
436.16	2597.99
436.34	2656.51
436.53	2588.63
436.72	2759.49
436.90	2602.68
437.09	2719.70
437.28	2647.15
437.46	2708.00
437.65	2679.91
437.84	2832.05
438.02	2750.13
438.21	2796.94
438.40	2799.28
438.58	2827.37
438.77	2871.84
438.96	3068.44
439.14	2925.67
439.33	2949.08
439.52	3033.33
439.70	2967.80
439.89	3016.95
440.08	3101.21
440.26	3141.00
440.45	2895.24
440.63	3155.04
440.82	3066.10
441.01	3009.93
441.19	3187.81
441.38	3222.92
441.57	3225.26
441.75	3353.99
441.94	3187.81
442.12	3323.56
442.31	3295.47
442.50	3258.03
442.68	3286.11
442.87	3358.67
443.05	3365.69
443.24	3400.80
443.43	3412.50
443.61	3382.07
443.80	3485.06
443.98	3435.91
444.17	3267.39
444.35	3346.97
444.54	3335.26
444.73	3426.54
444.91	3496.76
445.10	3356.33
445.28	3393.78
445.47	3606.77
445.65	3229.94
445.84	3520.17
446.02	3581.02
446.21	3332.92
446.39	3482.72
446.58	3566.98
446.77	3618.47
446.95	3445.27
447.14	3545.91
447.32	3487.40
447.51	3508.46
447.69	3459.31
447.88	3527.19
448.06	3555.27
448.25	3515.48
448.43	3482.72
448.62	3524.85
448.80	3431.23
448.99	3620.81
449.17	3566.98
449.36	3672.30
449.54	3709.75
449.73	3618.47
449.91	3688.68
450.10	3796.35
450.28	3698.05
450.46	3772.94
450.65	3847.84
450.83	3864.22
451.02	3698.05
451.20	3822.09
451.39	3829.12
451.57	3786.99
451.76	3765.92
451.94	3934.44
452.13	3899.33
452.31	3709.75
452.49	3831.46
452.68	3885.29
452.86	4021.04
453.05	3957.85
453.23	3913.38
453.42	3880.61
453.60	3885.29
453.78	4070.19
453.97	3878.27
454.15	3906.35
454.34	3864.22
454.52	3953.16
454.70	4023.38
454.89	4163.81
455.07	4138.07
455.26	4056.15
455.44	4114.66
455.62	4095.94
455.81	4070.19
455.99	4079.55
456.17	4152.11
456.36	4117.00
456.54	4337.01
456.73	4091.26
456.91	4259.78
457.09	4236.37
457.28	4379.14
457.46	4344.03
457.64	4301.90
457.83	4266.80
458.01	4161.47
458.19	4341.69
458.38	4346.37
458.56	4671.71
458.74	4484.47
458.93	4454.04
459.11	4346.37
459.29	4447.02
459.48	4507.87
459.66	4484.47
459.84	4379.14
460.03	4547.66
460.21	4484.47
460.39	4521.92
460.57	4535.96
460.76	4652.98
460.94	4657.67
461.12	4725.54
461.31	4692.77
461.49	4573.41
461.67	4727.88
461.85	4786.40
462.04	4697.46
462.22	5074.28
462.40	4805.12
462.59	4863.63
462.77	4681.07
462.95	4648.30
463.13	4690.43
463.32	4992.36
463.50	4903.42
463.68	4826.18
463.86	4910.44
464.05	4788.74
464.23	4884.70
464.41	4933.85
464.59	4713.84
464.78	5020.45
464.96	4875.34
465.14	4901.08
465.32	4987.68
465.50	4919.81
465.69	5027.47
465.87	4938.53
466.05	4938.53
466.23	4957.25
466.41	5018.11
466.60	5153.86
466.78	5043.85
466.96	5109.39
467.14	5240.46
467.32	5177.26
467.51	5167.90
467.69	5057.90
467.87	5027.47
468.05	5305.99
468.23	5125.77
468.41	5334.08
468.60	5310.68
468.78	5298.97
468.96	5067.26
469.14	5301.31
469.32	5348.12
469.50	5242.80
469.69	5329.40
469.87	5439.40
470.05	5446.43
470.23	5390.25
470.41	5603.24
470.59	5425.36
470.77	5486.22
470.95	5509.62
471.14	5610.26
471.32	5530.69
471.50	5685.16
471.68	5577.50
471.86	5556.43
472.04	5619.63
472.22	5736.65
472.40	5631.33
472.58	5863.04
472.77	5865.38
472.95	5858.36
473.13	6066.67
473.31	5827.93
473.49	5832.62
473.67	6029.22
473.85	5907.51
474.03	5933.26
474.21	6071.35
474.39	6050.28
474.57	6193.06
474.75	6216.46
474.93	6176.67
475.12	6209.44
475.30	6270.30
475.48	6242.21
475.66	6143.91
475.84	6296.04
476.02	6370.94
476.20	6373.28
476.38	6569.88
476.56	6612.01
476.74	6544.14
476.92	6530.09
477.10	6593.29
477.28	6766.49
477.46	6647.12
477.64	6806.28
477.82	6853.09
478.00	6911.60
478.18	6967.77
478.36	6958.41
478.54	7063.74
478.72	7023.95
478.90	6939.69
479.08	7129.27
479.26	7246.30
479.44	7297.79
479.62	7410.14
479.80	7351.62
479.98	7382.05
480.16	7503.76
480.34	7496.74
480.52	7702.70
480.70	7889.95
480.88	7674.62
481.06	7962.50
481.24	7927.39
481.41	7789.30
481.59	7906.33
481.77	8107.62
481.95	8128.68
482.13	8109.96
482.31	8088.89
482.49	8245.71
482.67	8278.47
482.85	8407.20
483.03	8386.14
483.21	8596.79
483.39	8409.54
483.57	8535.93
483.74	8531.25
483.92	8662.32
484.10	8699.77
484.28	8961.91
484.46	8830.84
484.64	9097.66
484.82	8800.41
485.00	9123.41
485.18	9418.32
485.35	9350.44
485.53	9273.20
485.71	9572.79
485.89	9621.94
486.07	9600.88
486.25	9481.51
486.43	9797.48
486.61	9652.37
486.78	10054.94
486.96	9942.60
487.14	10202.40
487.32	10076.01
487.50	10164.95
487.68	10312.40
487.85	10370.91
488.03	10611.99
488.21	10630.71
488.39	10644.76
488.57	10731.36
488.75	10827.32
488.92	10869.45
489.10	11030.94
489.28	10953.71
489.46	11070.73
489.64	11183.08
489.81	11309.47
489.99	11417.13
490.17	11440.54
490.35	11412.45
490.53	11405.43
490.70	11747.15
490.88	11534.16
491.06	11882.90
491.24	11524.80
491.41	12049.08
491.59	11969.50
491.77	12123.98
491.95	12351.01
492.13	12142.70
492.30	12123.98
492.48	12301.86
492.66	12446.97
492.84	12634.21
493.01	12926.78
493.19	12603.78
493.37	12587.40
493.54	12617.83
493.72	12980.61
493.90	12692.73
494.08	13004.02
494.25	13273.18
494.43	13235.73
494.61	13352.76
494.79	13352.76
494.96	13355.10
495.14	13458.08
495.32	13537.66
495.49	13483.83
495.67	13865.33
495.85	13738.94
496.02	13708.52
496.20	13935.55
496.38	13886.40
496.55	14050.24
496.73	14359.19
496.91	14319.40
497.09	14370.89
497.26	14183.65
497.44	14389.61
497.62	14342.80
497.79	14616.65
497.97	14712.61
498.14	14497.28
498.32	14991.13
498.50	14920.92
498.67	15023.90
498.85	15068.37
499.03	15208.80
499.20	15002.83
499.38	15262.63
499.56	15028.58
499.73	15084.75
499.91	15550.52
500.08	15536.48
500.26	15405.41
500.44	15435.83
500.61	15573.92
500.79	15463.92
500.97	15541.16
501.14	15833.72
501.32	16049.05
501.49	16011.60
501.67	15803.30
501.84	15875.85
502.02	15882.88
502.20	16065.44
502.37	16231.62
502.55	16240.98
502.72	16400.13
502.90	16175.44
503.07	16198.85
503.25	16156.72
503.43	16521.84
503.60	16774.62
503.78	16706.74
503.95	16624.83
504.13	16664.61
504.30	16622.48
504.48	16423.54
504.65	16830.79
504.83	16954.84
505.01	17011.01
505.18	17343.37
505.36	17153.79
505.53	16779.30
505.71	17263.79
505.88	17125.70
506.06	17186.55
506.23	17371.46
506.41	17088.25
506.58	17495.50
506.76	17493.16
506.93	17612.53
507.11	17319.96
507.28	17579.76
507.46	17694.45
507.63	17642.96
507.81	17743.60
507.98	17914.46
508.16	17919.14
508.33	18061.91
508.50	17790.41
508.68	18097.02
508.85	18642.37
509.03	18008.08
509.20	18059.57
509.38	18590.88
509.55	18560.45
509.73	18642.37
509.90	18380.23
510.08	18764.07
510.25	18326.39
510.42	18738.33
510.60	18647.05
510.77	18930.25
510.95	18775.78
511.12	18820.25
511.30	18890.46
511.47	18836.63
511.64	19023.87
511.82	19168.99
511.99	18934.93
512.17	19105.79
512.34	19005.15
512.51	19007.49
512.69	19510.71
512.86	19379.64
513.04	19360.91
513.21	19477.94
513.38	19590.28
513.56	19506.02
513.73	19318.78
513.90	19772.85
514.08	19515.39
514.25	19744.76
514.43	19833.70
514.60	19812.63
514.77	19913.28
514.95	20013.92
515.12	19920.30
515.29	20002.22
515.47	20224.57
515.64	20201.16
515.81	19992.86
515.99	20367.34
516.16	20453.94
516.33	20414.15
516.51	20467.98
516.68	20503.09
516.85	20613.10
517.03	20685.65
517.20	20460.96
517.37	20613.10
517.54	20718.42
517.72	20580.33
517.89	20416.49
518.06	20758.21
518.24	20816.72
518.41	20737.15
518.58	20774.60
518.75	20886.94
518.93	21130.36
519.10	21132.70
519.27	20959.50
519.45	21060.14
519.62	21074.18
519.79	20837.79
519.96	21483.78
520.14	21369.09
520.31	21261.43
520.48	21310.58
520.65	21324.62
520.83	21413.56
521.00	21383.13
521.17	21422.92
521.34	21582.08
521.52	21476.76
521.69	21713.15
521.86	21844.22
522.03	21965.93
522.20	21743.58
522.38	22015.08
522.55	22061.89
522.72	22270.20
522.89	22272.54
523.07	22305.31
523.24	21991.67
523.41	21963.59
523.58	22022.10
523.75	22693.83
523.92	22129.77
524.10	22391.91
524.27	22888.10
524.44	22389.56
524.61	22848.31
524.78	22852.99
524.96	22630.64
525.13	22459.78
525.30	22576.81
525.47	22511.27
525.64	22457.44
525.81	22579.15
525.98	22682.13
526.16	23009.81
526.33	22857.67
526.50	23290.67
526.67	22869.37
526.84	23400.68
527.01	22948.95
527.18	22817.88
527.36	23271.95
527.53	23314.08
527.70	23520.04
527.87	23630.05
528.04	23117.47
528.21	23171.30
528.38	23403.02
528.55	23325.78
528.72	23433.44
528.89	23435.78
529.07	23180.67
529.24	23367.91
529.41	23747.08
529.58	23728.35
529.75	23658.14
529.92	23894.53
530.09	23772.82
530.26	23931.98
530.43	23587.92
530.60	24002.19
530.77	24009.22
530.94	24170.71
531.11	23859.42
531.28	23976.45
531.46	23765.80
531.63	24395.40
531.80	24346.25
531.97	24372.00
532.14	24135.60
532.31	24095.82
532.48	24287.74
532.65	24126.24
532.82	24151.99
532.99	24177.73
533.16	24290.08
533.33	24610.73
533.50	24400.08
533.67	24587.33
533.84	24463.28
534.01	24589.67
534.18	23960.06
534.35	24692.65
534.52	24877.55
534.69	25142.03
534.86	25177.14
535.03	24723.08
535.20	24702.01
535.37	24503.07
535.54	24872.87
535.71	24559.24
535.88	25095.22
536.05	24849.47
536.22	24889.26
536.38	25207.57
536.55	25127.99
536.72	25003.94
536.89	25200.55
537.06	25102.25
537.23	25205.23
537.40	24926.71
537.57	25160.76
537.74	25034.37
537.91	25710.78
538.08	25284.81
538.25	25223.95
538.42	25446.30
538.59	25348.00
538.75	25113.95
538.92	25785.68
539.09	25511.84
539.26	25743.55
539.43	25776.32
539.60	25638.23
539.77	25511.84
539.94	25914.41
540.11	26057.18
540.28	25853.56
540.44	25820.79
540.61	25710.78
540.78	25708.44
540.95	25738.87
541.12	26143.78
541.29	25804.41
541.46	25759.94
541.62	25944.84
541.79	25872.28
541.96	25579.71
542.13	26244.43
542.30	25699.08
542.47	26398.90
542.63	26249.11
542.80	26401.24
542.97	26352.09
543.14	26394.22
543.31	26459.76
543.48	26155.49
543.64	26785.09
543.81	26672.74
543.98	26522.95
544.15	27037.87
544.32	26944.25
544.48	26867.01
544.65	26712.53
544.82	26525.29
544.99	26218.68
545.16	26665.72
545.32	26457.42
545.49	27042.55
545.66	27084.68
545.83	27061.27
546.00	27157.24
546.16	26834.24
546.33	26780.41
546.50	26735.94
546.67	27171.28
546.83	26410.60
547.00	27292.99
547.17	26843.60
547.34	26962.97
547.50	27175.96
547.67	27353.84
547.84	27283.62
548.00	27353.84
548.17	27211.07
548.34	27402.99
548.51	27248.52
548.67	27424.06
548.84	27384.27
549.01	27325.75
549.18	27440.44
549.34	27309.37
549.51	27061.27
549.68	27283.62
549.84	27292.99
550.01	27402.99
550.18	27276.60
550.34	27517.68
550.51	27505.98
550.68	27833.65
550.84	27555.13
551.01	27625.34
551.18	27433.42
551.34	27503.64
551.51	27615.98
551.68	27611.30
551.84	27667.47
552.01	27775.14
552.18	28191.75
552.34	27805.56
552.51	28243.24
552.68	27683.86
552.84	28030.26
553.01	27824.29
553.18	27988.13
553.34	28149.62
553.51	28479.64
553.67	28137.92
553.84	28318.14
554.01	28460.91
554.17	28222.18
554.34	28194.09
554.51	28107.49
554.67	28360.27
554.84	27906.21
555.00	28313.46
555.17	28781.57
555.33	28575.60
555.50	28425.81
555.67	28304.10
555.83	28453.89
556.00	28261.97
556.16	28666.88
556.33	28664.54
556.50	28606.03
556.66	28589.64
556.83	28334.53
556.99	28577.94
557.16	28959.45
557.32	28980.51
557.49	28727.74
557.65	28718.37
557.82	28463.25
557.98	28746.46
558.15	28648.16
558.32	28814.34
558.48	28835.40
558.65	29134.99
558.81	28783.91
558.98	29118.60
559.14	28966.47
559.31	28451.55
559.47	28790.93
559.64	28751.14
559.80	28723.05
559.97	28898.59
560.13	28910.30
560.30	28893.91
560.46	28716.03
560.63	29090.52
560.79	28861.15
560.96	29223.93
561.12	28929.02
561.29	29153.71
561.45	28844.76
561.61	29034.35
561.78	29055.41
561.94	29584.37
562.11	29139.67
562.27	28975.83
562.44	29275.42
562.60	29156.05
562.77	29170.10
562.93	29076.48
563.10	29656.93
563.26	28980.51
563.42	29567.99
563.59	28947.75
563.75	29097.54
563.92	29338.62
564.08	29284.78
564.24	28996.90
564.41	29287.12
564.57	29247.33
564.74	29263.72
564.90	29453.30
565.07	29652.25
565.23	29383.09
565.39	29324.57
565.56	29659.27
565.72	29366.70
565.88	29450.96
566.05	29111.58
566.21	29247.33
566.38	29301.17
566.54	29345.64
566.70	29635.86
566.87	29689.70
567.03	29551.60
567.19	29930.77
567.36	29626.50
567.52	29762.25
567.68	29507.13
567.85	29713.10
568.01	29422.87
568.17	29394.79
568.34	29371.38
568.50	29614.80
568.66	29832.47
568.83	29947.15
568.99	29848.85
569.15	29366.70
569.32	29572.67
569.48	29142.01
569.64	29551.60
569.81	29780.98
569.97	29532.88
570.13	29914.39
570.30	29598.41
570.46	29518.84
570.62	30288.87
570.78	29645.23
570.95	29717.78
571.11	29729.48
571.27	29883.96
571.43	29479.05
571.60	29930.77
571.76	29675.65
571.92	29951.84
572.09	29930.77
572.25	29954.18
572.41	30061.84
572.57	29832.47
572.74	29617.14
572.90	29853.53
573.06	29394.79
573.22	29724.80
573.38	29762.25
573.55	30148.44
573.71	30267.81
573.87	29809.06
574.03	30008.01
574.20	29986.94
574.36	29610.12
574.52	29902.68
574.68	29862.90
574.84	29930.77
575.01	30033.75
575.17	30129.72
575.33	30150.78
575.49	29865.24
575.65	29612.46
575.82	29926.09
575.98	30082.91
576.14	29752.89
576.30	29900.34
576.46	29610.12
576.62	29965.88
576.79	29832.47
576.95	29617.14
577.11	29895.66
577.27	30157.80
577.43	30211.64
577.59	30040.78
577.75	29958.86
577.92	29844.17
578.08	29818.42
578.24	29916.73
578.40	29720.12
578.56	29909.71
578.72	30122.69
578.88	30235.04
579.04	30218.66
579.21	29951.84
579.37	30022.05
579.53	30309.94
579.69	30089.93
579.85	30101.63
580.01	29703.74
580.17	30064.18
580.33	30164.82
580.49	29804.38
580.65	30270.15
580.82	30143.76
580.98	29895.66
581.14	30225.68
581.30	30082.91
581.46	29790.34
581.62	30068.86
581.78	30169.51
581.94	29940.13
582.10	30012.69
582.26	29881.62
582.42	30054.82
582.58	30305.26
582.74	30244.40
582.90	30071.20
583.06	29996.31
583.22	29930.77
583.38	29954.18
583.54	30457.39
583.70	30181.21
583.86	30045.46
584.02	30015.03
584.18	30567.40
584.34	30349.73
584.50	30300.58
584.66	30071.20
584.82	29989.28
584.98	30066.52
585.14	29993.97
585.30	29565.65
585.46	30066.52
585.62	29832.47
585.78	30003.33
585.94	29942.47
586.10	30389.52
586.26	30536.97
586.42	30316.96
586.58	30433.99
586.74	30167.16
586.90	30136.74
587.06	30043.12
587.22	30403.56
587.38	29928.43
587.54	30464.41
587.70	30731.23
587.86	30618.89
588.02	30710.17
588.18	30373.13
588.34	30471.43
588.49	30408.24
588.65	29832.47
588.81	29869.92
588.97	30396.54
589.13	30286.53
589.29	30712.51
589.45	30693.79
589.61	30272.49
589.77	30742.94
589.93	30796.77
590.08	30639.95
590.24	30602.50
590.40	30253.76
590.56	30845.92
590.72	30459.73
590.88	30560.37
591.04	30417.60
591.20	31040.18
591.35	30462.07
591.51	30822.51
591.67	30539.31
591.83	30642.29
591.99	30314.62
592.15	30518.25
592.31	30817.83
592.46	30291.21
592.62	30394.20
592.78	30749.96
592.94	30539.31
593.10	30480.80
593.26	30551.01
593.41	30590.80
593.57	30843.58
593.73	30504.20
593.89	30595.48
594.05	30635.27
594.20	30506.54
594.36	30417.60
594.52	30609.53
594.68	30370.79
594.84	30642.29
594.99	30862.30
595.15	30621.23
595.31	31267.22
595.47	30960.61
595.62	30967.63
595.78	30927.84
595.94	30635.27
596.10	30635.27
596.25	30731.23
596.41	30370.79
596.57	30553.35
596.73	30848.26
596.88	30082.91
597.04	30820.17
597.20	30565.06
597.36	30988.69
597.51	30941.88
597.67	30616.55
597.83	30888.05
597.99	30534.63
598.14	30785.07
598.30	30377.81
598.46	30473.78
598.61	30946.56
598.77	30504.20
598.93	30618.89
599.09	30700.81
599.24	31243.81
599.40	31112.74
599.56	31140.83
599.71	31035.50
599.87	30726.55
600.03	30684.42
600.18	30562.72
600.34	31026.14
600.50	30780.39
600.65	30831.88
600.81	31040.18
600.97	30902.09
601.12	30946.56
601.28	30836.56
601.44	30944.22
601.59	31051.89
601.75	30525.27
601.91	31005.08
602.06	30644.63
602.22	30700.81
602.37	30656.34
602.53	30836.56
602.69	31019.12
602.84	30951.24
603.00	30661.02
603.16	30897.41
603.31	30876.35
603.47	31110.40
603.62	30731.23
603.78	30483.14
603.94	30513.56
604.09	30852.94
604.25	30859.96
604.40	30387.18
604.56	30237.38
604.71	30756.98
604.87	30745.28
605.03	30958.27
605.18	30553.35
605.34	30965.29
605.49	30951.24
605.65	30546.33
605.80	30583.78
605.96	30672.72
606.12	30859.96
606.27	30677.40
606.43	31164.23
606.58	30810.81
606.74	30621.23
606.89	30611.87
607.05	30857.62
607.20	31154.87
607.36	30785.07
607.51	30850.60
607.67	30712.51
607.82	30445.69
607.98	30462.07
608.13	30429.30
608.29	30150.78
608.44	30436.33
608.60	30646.97
608.75	30778.04
608.91	30658.68
609.06	30764.00
609.22	30522.93
609.37	30141.42
609.53	30543.99
609.68	30342.70
609.84	30354.41
609.99	30445.69
610.15	30506.54
610.30	30649.32
610.46	30504.20
610.61	30448.03
610.76	30824.86
610.92	30775.70
611.07	30654.00
611.23	30132.06
611.38	30307.60
611.54	30504.20
611.69	30171.85
611.84	30148.44
612.00	30148.44
612.15	30728.89
612.31	30646.97
612.46	30459.73
612.62	30663.36
612.77	30354.41
612.92	30480.80
613.08	30314.62
613.23	30441.01
613.39	30129.72
613.54	30237.38
613.69	30162.48
613.85	30103.97
614.00	30043.12
614.15	30497.18
614.31	29883.96
614.46	30057.16
614.62	30153.12
614.77	30321.64
614.92	30242.06
615.08	30024.39
615.23	30089.93
615.38	30188.23
615.54	30169.51
615.69	30160.14
615.84	29940.13
616.00	30508.88
616.15	30003.33
616.30	30347.39
616.46	30359.09
616.61	29706.08
616.76	30015.03
616.92	29898.00
617.07	29790.34
617.22	29879.28
617.37	29916.73
617.53	29919.07
617.68	29422.87
617.83	29984.60
617.99	29968.22
618.14	30256.11
618.29	29830.13
618.45	30054.82
618.60	30092.27
618.75	30075.88
618.90	29811.40
619.06	30017.37
619.21	29422.87
619.36	29886.30
619.51	29675.65
619.67	29493.09
619.82	29429.90
619.97	30008.01
620.12	29472.03
620.28	29659.27
620.43	29345.64
620.58	29708.42
620.73	29668.63
620.89	29399.47
621.04	29823.11
621.19	29619.48
621.34	29376.06
621.49	29027.32
621.65	29455.64
621.80	29624.16
621.95	29448.62
622.10	29401.81
622.25	29137.33
622.41	29202.86
622.56	29340.96
622.71	29825.45
622.86	29298.83
623.01	29125.63
623.16	29385.43
623.32	29172.44
623.47	29296.49
623.62	29383.09
623.77	28996.90
623.92	29350.32
624.07	29127.97
624.23	29003.92
624.38	29326.91
624.53	29200.52
624.68	29380.74
624.83	29692.04
624.98	29413.51
625.13	28931.36
625.29	29488.41
625.44	29034.35
625.59	28954.77
625.74	28636.45
625.89	28624.75
626.04	29156.05
626.19	29071.79
626.34	28734.76
626.49	28821.36
626.65	28891.57
626.80	29048.39
626.95	28807.31
627.10	28875.19
627.25	28671.56
627.40	28603.69
627.55	28418.78
627.70	28538.15
627.85	28772.21
628.00	28783.91
628.15	28554.54
628.30	28793.27
628.45	28699.65
628.60	28505.38
628.76	28737.10
628.91	29127.97
629.06	28402.40
629.21	28793.27
629.36	28582.62
629.51	28297.08
629.66	28320.48
629.81	28243.24
629.96	28168.35
630.11	28395.38
630.26	28327.50
630.41	28161.33
630.56	28238.56
630.71	28016.21
630.86	28638.80
631.01	28414.10
631.16	28166.01
631.31	28376.66
631.46	28404.74
631.61	28299.42
631.76	28386.02
631.91	28175.37
632.06	28158.99
632.21	27990.47
632.36	28142.60
632.51	28095.79
632.66	28329.84
632.81	27821.95
632.96	28245.58
633.10	28240.90
633.25	28142.60
633.40	28299.42
633.55	28465.60
633.70	28016.21
633.85	28180.05
634.00	27924.93
634.15	28002.17
634.30	28048.98
634.45	28173.03
634.60	27714.28
634.75	27838.33
634.90	27931.95
635.05	28322.82
635.19	27784.50
635.34	28276.01
635.49	28098.13
635.64	28030.26
635.79	28271.33
635.94	27927.27
636.09	28219.84
636.24	27623.00
636.39	27920.25
636.53	27824.29
636.68	27857.06
636.83	28051.32
636.98	27906.21
637.13	28060.68
637.28	27871.10
637.43	28084.09
637.57	28039.62
637.72	27833.65
637.87	27505.98
638.02	27854.72
638.17	27658.11
638.32	27377.25
638.46	27438.10
638.61	27077.66
638.76	27473.21
638.91	27367.88
639.06	27339.80
639.20	27292.99
639.35	27414.69
639.50	27154.90
639.65	27690.88
639.80	27555.13
639.94	27908.55
640.09	27454.48
640.24	27718.96
640.39	27068.30
640.54	27049.57
640.68	27358.52
640.83	27255.54
640.98	26967.65
641.13	26941.91
641.27	27428.74
641.42	26979.36
641.57	27302.35
641.72	27187.66
641.86	27161.92
642.01	27208.73
642.16	26740.62
642.31	26890.41
642.45	26955.95
642.60	26614.23
642.75	26888.07
642.90	26862.33
643.04	26838.92
643.19	26923.18
643.34	26752.32
643.48	26897.44
643.63	26815.52
643.78	26609.55
643.93	26993.40
644.07	27339.80
644.22	27178.30
644.37	26684.45
644.51	26977.01
644.66	26981.70
644.81	26696.15
644.95	26991.06
645.10	26789.77
645.25	26560.40
645.39	26436.35
645.54	26644.66
645.69	26766.37
645.83	26721.90
645.98	26532.31
646.13	26843.60
646.27	26586.15
646.42	26796.79
646.57	26962.97
646.71	26572.10
646.86	26642.32
647.00	26515.93
647.15	26668.06
647.30	26106.34
647.44	26555.72
647.59	26394.22
647.74	26284.22
647.88	26616.57
648.03	26408.26
648.17	26712.53
648.32	26251.45
648.47	26719.56
648.61	26728.92
648.76	26595.51
648.90	26246.77
649.05	26553.38
649.20	26520.61
649.34	26214.00
649.49	26354.43
649.63	26141.44
649.78	26410.60
649.92	25846.54
650.07	26190.59
650.21	25977.61
650.36	26520.61
650.51	25984.63
650.65	25795.04
650.80	26118.04
650.94	26078.25
651.09	26017.40
651.23	26185.91
651.38	26466.78
651.52	26244.43
651.67	25921.43
651.81	26328.69
651.96	25893.35
652.10	25898.03
652.25	26033.78
652.39	26382.52
652.54	26061.87
652.68	25905.05
652.83	25914.41
652.97	26277.19
653.12	26181.23
653.26	26022.08
653.41	25860.58
653.55	25521.20
653.70	25553.97
653.84	25699.08
653.99	25944.84
654.13	25656.95
654.27	25956.54
654.42	26010.37
654.56	25685.04
654.71	25635.89
654.85	25778.66
655.00	25713.13
655.14	25888.67
655.29	25883.98
655.43	25982.29
655.57	25647.59
655.72	25582.06
655.86	25764.62
656.01	25600.78
656.15	25668.66
656.30	25488.43
656.44	25507.16
656.58	25392.47
656.73	25568.01
656.87	25163.10
657.01	25420.56
657.16	25841.85
657.30	25881.64
657.45	25436.94
657.59	25612.48
657.73	25399.49
657.88	25472.05
658.02	25502.48
658.16	25064.80
658.31	24907.98
658.45	25193.53
658.60	25137.35
658.74	25355.02
658.88	25254.38
659.03	25039.05
659.17	24694.99
659.31	25097.56
659.46	25041.39
659.60	25233.32
659.74	25003.94
659.89	24915.00
660.03	24912.66
660.17	24865.85
660.32	24826.06
660.46	24666.91
660.60	24341.57
660.74	24833.08
660.89	24753.51
661.03	24573.28
661.17	24348.59
661.32	24505.41
661.46	24531.15
661.60	24788.61
661.74	24652.86
661.89	24458.60
662.03	24713.72
662.17	24435.19
662.31	24318.17
662.46	24350.93
662.60	24421.15
662.74	24156.67
662.88	24313.48
663.03	23814.95
663.17	24318.17
663.31	24163.69
663.45	24177.73
663.60	24100.50
663.74	23803.25
663.88	24053.69
664.02	24095.82
664.17	24414.13
664.31	24072.41
664.45	24149.65
664.59	24187.10
664.73	24187.10
664.88	23920.28
665.02	23740.05
665.16	23587.92
665.30	24247.95
665.44	23763.46
665.59	23608.98
665.73	23660.48
665.87	23772.82
666.01	23590.26
666.15	23248.54
666.29	23360.89
666.44	23604.30
666.58	23126.83
666.72	23587.92
666.86	23515.36
667.00	23517.70
667.14	23641.75
667.28	23452.17
667.43	23232.16
667.57	23681.54
667.71	22960.66
667.85	23239.18
667.99	22981.72
668.13	22668.09
668.27	23112.79
668.41	23300.03
668.56	22937.25
668.70	23040.23
668.84	22862.35
668.98	23112.79
669.12	22974.70
669.26	23070.66
669.40	22799.16
669.54	22883.42
669.68	23091.73
669.82	22778.09
669.96	22630.64
670.10	22539.36
670.25	22878.74
670.39	22457.44
670.53	22607.23
670.67	22656.39
670.81	22415.31
670.95	22593.19
671.09	22679.79
671.23	22647.02
671.37	22590.85
671.51	22141.47
671.65	22635.32
671.79	22714.90
671.93	22017.42
672.07	22412.97
672.21	21944.86
672.35	21862.94
672.49	21713.15
672.63	21816.13
672.77	22019.76
672.91	21968.27
673.05	21940.18
673.19	21809.11
673.33	21834.86
673.47	21860.60
673.61	21757.62
673.75	21788.05
673.89	21837.20
674.03	21717.83
674.17	21942.52
674.31	21582.08
674.45	21317.60
674.59	21717.83
674.73	21245.04
674.87	21621.87
675.01	21018.01
675.15	21287.17
675.29	20994.61
675.43	21249.72
675.56	20926.73
675.70	21275.47
675.84	21048.44
675.98	20783.96
676.12	21326.96
676.26	20959.50
676.40	20910.35
676.54	20975.88
676.68	20835.45
676.82	20690.34
676.96	20489.05
677.10	20533.52
677.23	20259.68
677.37	20458.62
677.51	20236.27
677.65	20355.64
677.79	20250.32
677.93	20400.11
678.07	20189.46
678.21	20013.92
678.34	19999.88
678.48	19899.23
678.62	20011.58
678.76	19782.21
678.90	19583.26
679.04	19569.22
679.18	19611.35
679.31	19513.05
679.45	19508.37
679.59	19393.68
679.73	19225.16
679.87	19728.38
680.00	19403.04
680.14	19255.59
680.28	19171.33
680.42	19248.57
680.56	19470.92
680.70	18860.04
680.83	19428.79
680.97	19363.25
681.11	18946.64
681.25	18869.40
681.39	18967.70
681.52	18754.71
681.66	18710.24
681.80	18277.24
681.94	18757.05
682.07	18452.78
682.21	18565.13
682.35	18075.96
682.49	18221.07
682.62	18476.19
682.76	18228.09
682.90	18324.05
683.04	17958.93
683.17	18494.91
683.31	17893.40
683.45	18129.79
683.59	17921.48
683.72	18129.79
683.86	17994.04
684.00	17980.00
684.13	17631.26
684.27	17977.65
684.41	17596.15
684.55	17441.67
684.68	17336.35
684.82	17439.33
684.96	17151.45
685.09	17209.96
685.23	16933.78
685.37	17177.19
685.50	17282.52
685.64	17282.52
685.78	16961.86
685.91	16879.94
686.05	16933.78
686.19	16961.86
686.32	16734.83
686.46	16936.12
686.60	16594.40
686.73	16741.85
686.87	16592.06
687.01	16739.51
687.14	16496.10
687.28	16248.00
687.42	16175.44
687.55	16329.92
687.69	16411.84
687.82	16329.92
687.96	16196.51
688.10	16329.92
688.23	16191.83
688.37	16077.14
688.50	15950.75
688.64	16013.95
688.78	15990.54
688.91	15644.14
689.05	15847.77
689.18	15627.76
689.32	15356.25
689.46	15482.64
689.59	15482.64
689.73	15508.39
689.86	15396.04
690.00	15419.45
690.13	15623.08
690.27	15407.75
690.41	15412.43
690.54	15185.40
690.68	15257.95
690.81	14993.47
690.95	15466.26
691.08	15005.17
691.22	15353.91
691.35	14897.51
691.49	14892.83
691.62	15049.64
691.76	14864.74
691.89	14869.42
692.03	14516.00
692.16	14684.52
692.30	14553.45
692.43	14483.24
692.57	14288.97
692.70	14319.40
692.84	14314.72
692.97	14429.40
693.11	14434.08
693.24	14387.27
693.38	14195.35
693.51	14157.90
693.65	14253.86
693.78	14345.14
693.92	13865.33
694.05	14148.54
694.19	14040.87
694.32	13617.24
694.45	13951.93
694.59	13455.74
694.72	13495.53
694.86	13284.88
694.99	13336.37
695.13	13322.33
695.26	13114.02
695.39	13270.84
695.53	13207.64
695.66	13296.58
695.80	13202.96
695.93	13179.56
696.07	13268.50
696.20	12964.23
696.33	13057.85
696.47	13064.87
696.60	12903.37
696.73	12905.71
696.87	13043.81
697.00	12800.39
697.14	12585.06
697.27	12451.65
697.40	12421.22
697.54	12280.79
697.67	12484.42
697.80	12400.16
697.94	12400.16
698.07	11983.54
698.21	12236.32
698.34	12393.14
698.47	12271.43
698.61	12009.29
698.74	12128.66
698.87	12273.77
699.01	11798.64
699.14	11981.20
699.27	11866.52
699.40	12128.66
699.54	11686.29
699.67	11723.74
699.80	11665.23
699.94	11679.27
700.07	11527.14
700.20	11431.18
700.34	11545.86
700.47	11414.79
700.60	11260.32
700.73	11431.18
700.87	11211.17
701.00	11110.52
701.13	11089.46
701.26	11358.62
701.40	11180.74
701.53	11215.85
701.66	11077.76
701.79	10682.20
701.93	10843.70
702.06	10895.19
702.19	10726.68
702.32	10523.05
702.46	10586.24
702.59	10710.29
702.72	10565.18
702.85	10588.58
702.99	10611.99
703.12	10501.98
703.25	10321.76
703.38	10600.29
703.51	10581.56
703.65	10363.89
703.78	10492.62
703.91	10544.11
704.04	10368.57
704.17	10312.40
704.31	10274.95
704.44	10176.65
704.57	10125.16
704.70	9860.68
704.83	9816.21
704.96	9760.03
705.10	9764.72
705.23	9731.95
>>>>>End Processed Spectral Data<<<<<
