SpectraSuite Data File
++++++++++++++++++++++++++++++++++++
Date: Fri Oct 18 13:58:11 GMT-05:00 2013
User: bianchi
Dark Spectrum Present: No
Reference Spectrum Present: No
Number of Sampled Component Spectra: 1
Spectrometers: USB2+H05261
Integration Time (usec): 50000 (USB2+H05261)
Spectra Averaged: 1 (USB2+H05261)
Boxcar Smoothing: 0 (USB2+H05261)
Correct for Electrical Dark: No (USB2+H05261)
Strobe/Lamp Enabled: No (USB2+H05261)
Correct for Detector Non-linearity: No (USB2+H05261)
Correct for Stray Light: No (USB2+H05261)
Number of Pixels in Processed Spectrum: 2048
>>>>>Begin Processed Spectral Data<<<<<
365.73	0.00
365.92	0.00
366.12	0.00
366.32	0.00
366.52	0.00
366.72	0.00
366.91	0.00
367.11	0.00
367.31	0.00
367.51	0.00
367.70	0.00
367.90	0.00
368.10	0.00
368.30	0.00
368.49	0.00
368.69	0.00
368.89	0.00
369.09	0.00
369.28	0.00
369.48	0.00
369.68	0.00
369.87	0.00
370.07	0.00
370.27	0.00
370.47	0.00
370.66	152.13
370.86	63.19
371.06	140.43
371.25	154.48
371.45	198.95
371.65	133.41
371.84	135.75
372.04	117.03
372.24	112.35
372.44	107.66
372.63	140.43
372.83	205.97
373.03	236.39
373.22	220.01
373.42	208.31
373.62	182.56
373.81	187.24
374.01	243.42
374.21	308.95
374.40	212.99
374.60	229.37
374.79	138.09
374.99	257.46
375.19	177.88
375.38	205.97
375.58	201.29
375.78	264.48
375.97	322.99
376.17	334.70
376.37	241.08
376.56	266.82
376.76	367.46
376.95	313.63
377.15	280.86
377.35	348.74
377.54	313.63
377.74	320.65
377.93	311.29
378.13	318.31
378.33	348.74
378.52	290.23
378.72	318.31
378.91	285.55
379.11	318.31
379.31	229.37
379.50	205.97
379.70	187.24
379.89	294.91
380.09	337.04
380.28	266.82
380.48	411.93
380.68	381.51
380.87	283.20
381.07	304.27
381.26	367.46
381.46	262.14
381.65	292.57
381.85	330.02
382.04	320.65
382.24	358.10
382.43	257.46
382.63	297.25
382.83	325.33
383.02	447.04
383.22	386.19
383.41	353.42
383.61	311.29
383.80	325.33
384.00	386.19
384.19	355.76
384.39	320.65
384.58	348.74
384.78	358.10
384.97	346.40
385.17	454.06
385.36	381.51
385.56	416.62
385.75	301.93
385.95	320.65
386.14	355.76
386.34	358.10
386.53	339.38
386.72	372.15
386.92	416.62
387.11	435.34
387.31	428.32
387.50	447.04
387.70	421.30
387.89	421.30
388.09	425.98
388.28	400.23
388.48	400.23
388.67	458.74
388.86	416.62
389.06	442.36
389.25	437.68
389.45	498.53
389.64	531.30
389.84	496.19
390.03	517.26
390.22	470.45
390.42	465.77
390.61	519.60
390.81	503.22
391.00	571.09
391.19	437.68
391.39	575.77
391.58	566.41
391.78	543.00
391.97	545.34
392.16	538.32
392.36	674.07
392.55	496.19
392.75	608.54
392.94	468.11
393.13	550.03
393.33	514.92
393.52	596.84
393.71	617.90
393.91	582.79
394.10	578.11
394.29	561.73
394.49	498.53
394.68	592.16
394.88	669.39
395.07	617.90
395.26	683.44
395.46	535.98
395.65	592.16
395.84	662.37
396.04	676.41
396.23	704.50
396.42	692.80
396.62	655.35
396.81	645.99
397.00	744.29
397.19	713.86
397.39	688.12
397.58	688.12
397.77	671.73
397.97	727.91
398.16	620.24
398.35	819.19
398.55	692.80
398.74	662.37
398.93	674.07
399.12	755.99
399.32	660.03
399.51	791.10
399.70	844.93
399.90	805.14
400.09	835.57
400.28	880.04
400.47	779.40
400.67	826.21
400.86	720.88
401.05	807.48
401.24	816.85
401.44	940.90
401.63	851.96
401.82	840.25
402.01	844.93
402.21	910.47
402.40	826.21
402.59	758.33
402.78	791.10
402.97	936.21
403.17	844.93
403.36	894.08
403.55	912.81
403.74	947.92
403.93	915.15
404.13	1015.79
404.32	882.38
404.51	905.79
404.70	980.68
404.89	828.55
405.09	959.62
405.28	1001.75
405.47	931.53
405.66	1053.24
405.85	990.05
406.05	833.23
406.24	1006.43
406.43	1015.79
406.62	1022.81
406.81	1064.94
407.00	1088.35
407.20	1048.56
407.39	985.37
407.58	1067.28
407.77	1130.48
407.96	1118.78
408.15	1060.26
408.34	1090.69
408.54	1095.37
408.73	1062.60
408.92	1041.54
409.11	1256.87
409.30	1160.91
409.49	1151.54
409.68	1151.54
409.87	1137.50
410.07	1203.04
410.26	1224.10
410.45	1179.63
410.64	1214.74
410.83	1146.86
411.02	1247.51
411.21	1263.89
411.40	1165.59
411.59	1188.99
411.78	1376.24
411.98	1221.76
412.17	1327.08
412.36	1308.36
412.55	1432.41
412.74	1317.72
412.93	1275.59
413.12	1373.89
413.31	1448.79
413.50	1411.34
413.69	1444.11
413.88	1441.77
414.07	1366.87
414.26	1434.75
414.45	1465.18
414.64	1528.37
414.83	1535.39
415.02	1526.03
415.22	1568.16
415.41	1607.95
415.60	1535.39
415.79	1598.59
415.98	1607.95
416.17	1579.86
416.36	1579.86
416.55	1563.48
416.74	1614.97
416.93	1727.32
417.12	1757.74
417.31	1678.16
417.50	1710.93
417.69	1783.49
417.88	1844.34
418.07	1816.26
418.26	1846.68
418.45	1760.08
418.64	1914.56
418.83	1867.75
419.02	1825.62
419.21	1764.76
419.39	1830.30
419.58	1853.70
419.77	1806.89
419.96	1877.11
420.15	1853.70
420.34	1849.02
420.53	1886.47
420.72	2008.18
420.91	1916.90
421.10	1921.58
421.29	1921.58
421.48	1842.00
421.67	2019.88
421.86	2057.33
422.05	1966.05
422.24	2038.61
422.43	2005.84
422.61	1968.39
422.80	2054.99
422.99	2050.31
423.18	2188.40
423.37	2080.74
423.56	2097.12
423.75	2012.86
423.94	1961.37
424.13	1820.94
424.32	2083.08
424.50	2228.19
424.69	2143.93
424.88	2129.89
425.07	2108.82
425.26	1980.09
425.45	2094.78
425.64	2064.35
425.83	2101.80
426.01	2209.47
426.20	2064.35
426.39	2031.58
426.58	2047.97
426.77	2024.56
426.96	2150.95
427.15	2228.19
427.33	2026.90
427.52	2155.63
427.71	2190.74
427.90	2197.76
428.09	2307.77
428.28	2267.98
428.46	2286.70
428.65	2267.98
428.84	2342.88
429.03	2389.69
429.22	2263.30
429.40	2310.11
429.59	2422.45
429.78	2176.70
429.97	2150.95
430.16	2326.49
430.34	2361.60
430.53	2385.01
430.72	2464.58
430.91	2370.96
431.10	2293.72
431.28	2422.45
431.47	2518.42
431.66	2483.31
431.85	2473.95
432.03	2565.23
432.22	2506.71
432.41	2520.76
432.60	2513.74
432.79	2370.96
432.97	2462.24
433.16	2534.80
433.35	2455.22
433.54	2548.84
433.72	2590.97
433.91	2473.95
434.10	2452.88
434.28	2609.70
434.47	2583.95
434.66	2541.82
434.85	2614.38
435.03	2647.15
435.22	2558.21
435.41	2677.57
435.59	2562.89
435.78	2565.23
435.97	2665.87
436.16	2771.19
436.34	2768.85
436.53	2700.98
436.72	2920.99
436.90	2717.36
437.09	2909.29
437.28	2649.49
437.46	2693.96
437.65	2759.49
437.84	2920.99
438.02	2808.64
438.21	2857.79
438.40	2855.45
438.58	2939.71
438.77	3068.44
438.96	2932.69
439.14	2993.55
439.33	2932.69
439.52	2974.82
439.70	3098.87
439.89	3054.40
440.08	3082.49
440.26	3014.61
440.45	3042.70
440.63	3239.30
440.82	3279.09
441.01	3246.32
441.19	3260.37
441.38	3332.92
441.57	3183.13
441.75	3361.01
441.94	3344.63
442.12	3225.26
442.31	3478.04
442.50	3375.05
442.68	3398.46
442.87	3246.32
443.05	3276.75
443.24	3421.86
443.43	3433.57
443.61	3480.38
443.80	3487.40
443.98	3431.23
444.17	3307.18
444.35	3456.97
444.54	3576.34
444.73	3550.59
444.91	3485.06
445.10	3466.33
445.28	3623.15
445.47	3562.30
445.65	3487.40
445.84	3527.19
446.02	3592.72
446.21	3574.00
446.39	3733.15
446.58	3550.59
446.77	3627.83
446.95	3346.97
447.14	3585.70
447.32	3503.78
447.51	3581.02
447.69	3571.66
447.88	3592.72
448.06	3543.57
448.25	3564.64
448.43	3515.48
448.62	3653.58
448.80	3733.15
448.99	3524.85
449.17	3660.60
449.36	3564.64
449.54	3824.44
449.73	3730.81
449.91	3754.22
450.10	3779.97
450.28	3847.84
450.46	3882.95
450.65	3784.65
450.83	3857.20
451.02	3730.81
451.20	3894.65
451.39	3819.75
451.57	3803.37
451.76	3894.65
451.94	3974.23
452.13	3927.42
452.31	3901.67
452.49	3932.10
452.68	3948.48
452.86	3911.04
453.05	3943.80
453.23	4016.36
453.42	4035.08
453.60	3948.48
453.78	3976.57
453.97	3967.21
454.15	3847.84
454.34	4077.21
454.52	4138.07
454.70	4030.40
454.89	4149.77
455.07	4079.55
455.26	4044.45
455.44	4222.33
455.62	4285.52
455.81	4163.81
455.99	4287.86
456.17	4252.75
456.36	4266.80
456.54	4325.31
456.73	4381.48
456.91	4344.03
457.09	4421.27
457.28	4447.02
457.46	4292.54
457.64	4458.72
457.83	4273.82
458.01	4353.40
458.19	4486.81
458.38	4325.31
458.56	4627.24
458.74	4545.32
458.93	4547.66
459.11	4507.87
459.29	4566.39
459.48	4578.09
459.66	4540.64
459.84	4606.17
460.03	4727.88
460.21	4732.56
460.39	4552.34
460.57	4669.37
460.76	4690.43
460.94	4751.29
461.12	4753.63
461.31	4709.16
461.49	4648.30
461.67	4678.73
461.85	4826.18
462.04	4669.37
462.22	5102.37
462.40	4898.74
462.59	4954.91
462.77	4856.61
462.95	4814.48
463.13	4924.49
463.32	4896.40
463.50	4940.87
463.68	5055.56
463.86	4828.53
464.05	4880.02
464.23	4950.23
464.41	4957.25
464.59	4856.61
464.78	5041.51
464.96	5088.32
465.14	4959.60
465.32	4891.72
465.50	5095.35
465.69	5193.65
465.87	5135.14
466.05	5078.96
466.23	5109.39
466.41	5177.26
466.60	5217.05
466.78	5071.94
466.96	4999.38
467.14	5128.11
467.32	5254.50
467.51	5296.63
467.69	5268.55
467.87	5125.77
468.05	5275.57
468.23	5195.99
468.41	5210.03
468.60	5203.01
468.78	5397.28
468.96	5401.96
469.14	5472.17
469.32	5416.00
469.50	5301.31
469.69	5495.58
469.87	5640.69
470.05	5502.60
470.23	5551.75
470.41	5554.09
470.59	5418.34
470.77	5479.19
470.95	5493.24
471.14	5652.39
471.32	5502.60
471.50	5825.59
471.68	5509.62
471.86	5652.39
472.04	5755.38
472.22	5849.00
472.40	5724.95
472.58	5982.41
472.77	5959.00
472.95	5970.71
473.13	6078.37
473.31	5977.73
473.49	5898.15
473.67	5797.51
473.85	5959.00
474.03	6125.18
474.21	6171.99
474.39	6111.14
474.57	6263.27
474.75	6317.11
474.93	6424.77
475.12	6148.59
475.30	6169.65
475.48	6141.57
475.66	6354.55
475.84	6424.77
476.02	6389.66
476.20	6401.37
476.38	6595.63
476.56	6729.04
476.74	6373.28
476.92	6644.78
477.10	6771.17
477.28	6707.98
477.46	6897.56
477.64	6860.11
477.82	6946.71
478.00	7056.72
478.18	7047.35
478.36	7304.81
478.54	7119.91
478.72	7262.68
478.90	7084.80
479.08	7250.98
479.26	7426.52
479.44	7386.73
479.62	7485.03
479.80	7723.77
479.98	7545.89
480.16	7559.93
480.34	7665.25
480.52	8025.70
480.70	7868.88
480.88	7763.56
481.06	7798.66
481.24	7826.75
481.41	8042.08
481.59	8135.70
481.77	8145.06
481.95	8021.02
482.13	8318.26
482.31	8386.14
482.49	8456.36
482.67	8500.83
482.85	8571.04
483.03	8695.09
483.21	8741.90
483.39	8702.11
483.57	8730.20
483.74	8875.31
483.92	8964.25
484.10	8851.91
484.28	9022.77
484.46	9385.55
484.64	9261.50
484.82	9207.67
485.00	9352.78
485.18	9584.49
485.35	9537.68
485.53	9493.21
485.71	9572.79
485.89	9895.78
486.07	9797.48
486.25	9893.44
486.43	10094.73
486.61	10106.43
486.78	10001.11
486.96	10024.51
487.14	10436.45
487.32	10448.15
487.50	10249.21
487.68	10300.70
487.85	10621.35
488.03	10473.90
488.21	10934.98
488.39	11035.63
488.57	10876.47
488.75	10944.34
488.92	11115.20
489.10	11084.78
489.28	11131.59
489.46	11321.17
489.64	11257.98
489.81	11466.28
489.99	11613.74
490.17	11501.39
490.35	11712.04
490.53	11747.15
490.70	11974.18
490.88	11761.19
491.06	12025.67
491.24	11943.75
491.41	12079.50
491.59	12018.65
491.77	12435.27
491.95	12437.61
492.13	12292.49
492.30	12629.53
492.48	12414.20
492.66	12535.91
492.84	12648.26
493.01	12615.49
493.19	12847.20
493.37	12938.48
493.54	12999.34
493.72	13214.66
493.90	13500.21
494.08	13153.81
494.25	13256.79
494.43	13317.65
494.61	13434.68
494.79	13743.63
494.96	13699.16
495.14	13626.60
495.32	13886.40
495.49	13568.09
495.67	13944.91
495.85	14204.71
496.02	14408.34
496.20	14185.99
496.38	14211.73
496.55	14501.96
496.73	14780.48
496.91	14410.68
497.09	14700.90
497.26	14623.67
497.44	14906.87
497.62	14946.66
497.79	15082.41
497.97	15016.88
498.14	14949.00
498.32	15171.35
498.50	15173.69
498.67	15159.65
498.85	15295.40
499.03	15304.76
499.20	15466.26
499.38	15344.55
499.56	15384.34
499.73	15957.77
499.91	15653.50
500.08	15728.40
500.26	15634.78
500.44	15836.06
500.61	15943.73
500.79	15602.01
500.97	16088.84
501.14	16079.48
501.32	16191.83
501.49	16266.72
501.67	16168.42
501.84	16276.09
502.02	16343.96
502.20	16402.47
502.37	16926.75
502.55	16482.05
502.72	16563.97
502.90	16549.93
503.07	16730.15
503.25	16711.42
503.43	16545.25
503.60	16776.96
503.78	16964.20
503.95	16723.13
504.13	16868.24
504.30	17163.15
504.48	16999.31
504.65	16868.24
504.83	17425.29
505.01	17584.44
505.18	17088.25
505.36	17488.48
505.53	17238.05
505.71	17778.71
505.88	17589.13
506.06	17647.64
506.23	17748.28
506.41	17675.73
506.58	17757.64
506.76	17432.31
506.93	17692.11
507.11	17748.28
507.28	17968.29
507.46	17984.68
507.63	17956.59
507.81	18302.99
507.98	18108.72
508.16	18211.71
508.33	18106.38
508.50	18263.20
508.68	18033.83
508.85	18679.82
509.03	18616.62
509.20	18712.58
509.38	18562.79
509.55	18824.93
509.73	18923.23
509.90	18764.07
510.08	18981.74
510.25	18427.04
510.42	18869.40
510.60	19293.04
510.77	19091.75
510.95	19199.41
511.12	19033.24
511.30	19005.15
511.47	19405.38
511.64	19159.63
511.82	19321.12
511.99	19552.84
512.17	19543.47
512.34	19522.41
512.51	19623.05
512.69	19866.47
512.86	19623.05
513.04	19840.72
513.21	19927.32
513.38	20210.53
513.56	20114.56
513.73	20114.56
513.90	19873.49
514.08	20088.82
514.25	20238.61
514.43	19981.15
514.60	20219.89
514.77	20095.84
514.95	20313.51
515.12	20233.93
515.29	20044.35
515.47	20327.55
515.64	20446.92
515.81	20753.53
515.99	20622.46
516.16	20959.50
516.33	20985.24
516.51	20959.50
516.68	20629.48
516.85	20982.90
517.03	21008.65
517.20	20875.24
517.37	21039.08
517.54	20795.66
517.72	20950.14
517.89	21090.57
518.06	20975.88
518.24	21104.61
518.41	20858.85
518.58	21446.33
518.75	21305.90
518.93	21495.48
519.10	21355.05
519.27	21706.13
519.45	21535.27
519.62	21397.18
519.79	21425.26
519.96	21502.50
520.14	21888.69
520.31	21804.43
520.48	21879.33
520.65	22085.30
520.83	21935.50
521.00	21951.88
521.17	21986.99
521.34	22036.14
521.52	22066.57
521.69	22270.20
521.86	22183.60
522.03	22532.34
522.20	22256.15
522.38	22689.15
522.55	22539.36
522.72	22324.03
522.89	22537.02
523.07	22696.17
523.24	22532.34
523.41	22712.56
523.58	22553.40
523.75	22766.39
523.92	22740.64
524.10	22909.16
524.27	22794.48
524.44	22995.76
524.61	23173.64
524.78	23168.96
524.96	22710.22
525.13	23143.22
525.30	22948.95
525.47	23178.33
525.64	22991.08
525.81	23084.70
525.98	23585.58
526.16	23185.35
526.33	23185.35
526.50	23569.19
526.67	23400.68
526.84	23566.85
527.01	23262.58
527.18	23681.54
527.36	23683.88
527.53	23597.28
527.70	24112.20
527.87	23648.77
528.04	23660.48
528.21	23782.18
528.38	23779.84
528.55	24034.96
528.72	23758.78
528.89	24102.84
529.07	24105.18
529.24	23850.06
529.41	24133.26
529.58	24318.17
529.75	24107.52
529.92	23946.02
530.09	23667.50
530.26	24416.47
530.43	24198.80
530.60	24306.46
530.77	24315.83
530.94	24313.48
531.11	24088.79
531.28	24098.16
531.46	24442.21
531.63	24287.74
531.80	24634.14
531.97	24489.03
532.14	24655.20
532.31	24671.59
532.48	24500.73
532.65	24802.66
532.82	24444.56
532.99	24737.12
533.16	24519.45
533.33	24788.61
533.50	24889.26
533.67	25097.56
533.84	24940.75
534.01	25165.44
534.18	24886.92
534.35	24947.77
534.52	24980.54
534.69	25483.75
534.86	25282.47
535.03	25635.89
535.20	25364.39
535.37	25488.43
535.54	25392.47
535.71	25446.30
535.88	25621.84
536.05	25675.68
536.22	25612.48
536.38	25530.56
536.55	25827.81
536.72	25680.36
536.89	25888.67
537.06	25465.03
537.23	25830.15
537.40	25724.83
537.57	25521.20
537.74	25638.23
537.91	25883.98
538.08	25965.90
538.25	25568.01
538.42	25923.77
538.59	25752.91
538.75	25642.91
538.92	25699.08
539.09	26047.82
539.26	26279.54
539.43	26099.31
539.60	26274.85
539.77	26043.14
539.94	26033.78
540.11	26214.00
540.28	26464.44
540.44	26466.78
540.61	26370.82
540.78	26103.99
540.95	26267.83
541.12	26363.79
541.29	26373.16
541.46	26340.39
541.62	26595.51
541.79	26497.20
541.96	26239.75
542.13	26567.42
542.30	26384.86
542.47	26745.30
542.63	26979.36
542.80	26752.32
542.97	26845.94
543.14	27035.53
543.31	26572.10
543.48	27033.19
543.64	27129.15
543.81	27096.38
543.98	27204.05
544.15	27395.97
544.32	27124.47
544.48	27751.73
544.65	27388.95
544.82	27161.92
544.99	27159.58
545.16	27140.85
545.32	27131.49
545.49	27583.21
545.66	27639.39
545.83	27644.07
546.00	27709.60
546.16	27555.13
546.33	27278.94
546.50	27168.94
546.67	27587.89
546.83	27587.89
547.00	27840.67
547.17	27817.27
547.34	27772.80
547.50	27756.41
547.67	28116.86
547.84	27552.79
548.00	27906.21
548.17	27758.75
548.34	27693.22
548.51	27962.38
548.67	28070.04
548.84	27845.35
549.01	28112.17
549.18	27747.05
549.34	28109.83
549.51	28077.07
549.68	28081.75
549.84	28009.19
550.01	28252.61
550.18	28561.56
550.34	28060.68
550.51	28060.68
550.68	28634.11
550.84	28205.80
551.01	28034.94
551.18	27976.42
551.34	28294.74
551.51	28498.36
551.68	28222.18
551.84	28638.80
552.01	28215.16
552.18	28603.69
552.34	28694.97
552.51	28533.47
552.68	28271.33
552.84	28704.33
553.01	28886.89
553.18	28652.84
553.34	28833.06
553.51	28723.05
553.67	29174.78
553.84	29062.43
554.01	29074.13
554.17	28432.83
554.34	28739.44
554.51	28484.32
554.67	28910.30
554.84	28914.98
555.00	28739.44
555.17	28662.20
555.33	28847.10
555.50	29111.58
555.67	28755.82
555.83	28992.22
556.00	28952.43
556.16	29563.31
556.33	29266.06
556.50	29053.07
556.66	29088.18
556.83	29450.96
556.99	29230.95
557.16	29202.86
557.32	29565.65
557.49	29394.79
557.65	29013.28
557.82	29301.17
557.98	29153.71
558.15	29242.65
558.32	29546.92
558.48	29177.12
558.65	29537.56
558.81	29474.37
558.98	29090.52
559.14	29221.59
559.31	29324.57
559.47	29259.04
559.64	29647.57
559.80	29556.28
559.97	29738.85
560.13	29486.07
560.30	29731.83
560.46	29439.26
560.63	29493.09
560.79	29467.34
560.96	29785.66
561.12	29376.06
561.29	29544.58
561.45	29759.91
561.61	29874.60
561.78	29841.83
561.94	29834.81
562.11	29736.51
562.27	29617.14
562.44	29612.46
562.60	29598.41
562.77	29813.74
562.93	29214.57
563.10	30017.37
563.26	29722.46
563.42	29993.97
563.59	29811.40
563.75	30169.51
563.92	30206.95
564.08	29780.98
564.24	29886.30
564.41	29748.21
564.57	29834.81
564.74	29893.32
564.90	29898.00
565.07	29855.87
565.23	30033.75
565.39	29984.60
565.56	30417.60
565.72	30213.98
565.88	30054.82
566.05	30008.01
566.21	29509.47
566.38	29827.79
566.54	29958.86
566.70	30462.07
566.87	30527.61
567.03	30199.93
567.19	30780.39
567.36	30274.83
567.52	30050.14
567.68	30312.28
567.85	30026.73
568.01	30005.67
568.17	30394.20
568.34	30260.79
568.50	30405.90
568.66	30176.53
568.83	30845.92
568.99	30352.07
569.15	30157.80
569.32	30232.70
569.48	30190.57
569.64	30405.90
569.81	30747.62
569.97	30459.73
570.13	30391.86
570.30	30017.37
570.46	30071.20
570.62	30408.24
570.78	30321.64
570.95	30197.59
571.11	30595.48
571.27	30223.34
571.43	30110.99
571.60	30728.89
571.76	30457.39
571.92	30625.91
572.09	30281.85
572.25	30721.87
572.41	30630.59
572.57	30424.62
572.74	30546.33
572.90	30471.43
573.06	30338.02
573.22	30155.46
573.38	30340.36
573.55	30340.36
573.71	30593.14
573.87	30277.17
574.03	30534.63
574.20	30707.83
574.36	30457.39
574.52	30654.00
574.68	30462.07
574.84	30445.69
575.01	30642.29
575.17	30625.91
575.33	30691.44
575.49	30623.57
575.65	30890.39
575.82	30675.06
575.98	30464.41
576.14	30899.75
576.30	30555.69
576.46	30714.85
576.62	30548.67
576.79	30192.91
576.95	30532.29
577.11	30639.95
577.27	30553.35
577.43	30600.16
577.59	30897.41
577.75	30782.73
577.92	30478.46
578.08	30188.23
578.24	30494.84
578.40	30831.88
578.56	30113.33
578.72	30632.93
578.88	31131.47
579.04	30778.04
579.21	30703.15
579.37	30574.42
579.53	30771.02
579.69	30614.21
579.85	30911.46
580.01	30611.87
580.17	30298.23
580.33	30801.45
580.49	30691.44
580.65	30642.29
580.82	30651.66
580.98	30829.54
581.14	30726.55
581.30	30829.54
581.46	30525.27
581.62	30504.20
581.78	30703.15
581.94	30593.14
582.10	30314.62
582.26	30558.03
582.42	30710.17
582.58	31243.81
582.74	31023.80
582.90	30869.33
583.06	30857.62
583.22	30862.30
583.38	30885.71
583.54	30937.20
583.70	30764.00
583.86	30574.42
584.02	30565.06
584.18	30808.47
584.34	30948.90
584.50	30773.36
584.66	31213.38
584.82	30649.32
584.98	30654.00
585.14	31005.08
585.30	30684.42
585.46	30885.71
585.62	30976.99
585.78	30682.08
585.94	30764.00
586.10	30841.24
586.26	30911.46
586.42	30995.71
586.58	31508.29
586.74	30871.67
586.90	30874.01
587.06	30309.94
587.22	30869.33
587.38	31000.40
587.54	31417.01
587.70	30991.03
587.86	31096.36
588.02	31150.19
588.18	30866.98
588.34	31232.11
588.49	31468.50
588.65	30621.23
588.81	30913.80
588.97	31288.28
589.13	30845.92
589.29	30328.66
589.45	30843.58
589.61	31236.79
589.77	31096.36
589.93	31417.01
590.08	31311.69
590.24	31129.12
590.40	31374.88
590.56	31512.97
590.72	31239.13
590.88	31061.25
591.04	31117.42
591.20	31243.81
591.35	31159.55
591.51	31440.42
591.67	31246.15
591.83	31828.95
591.99	31412.33
592.15	31194.66
592.31	31711.92
592.46	31173.60
592.62	31131.47
592.78	31615.96
592.94	31079.97
593.10	31157.21
593.26	31494.25
593.41	30939.54
593.57	31049.55
593.73	31253.17
593.89	31557.44
594.05	31105.72
594.20	31276.58
594.36	31351.48
594.52	30801.45
594.68	30881.03
594.84	30902.09
594.99	31868.73
595.15	31248.49
595.31	31653.40
595.47	31545.74
595.62	31782.13
595.78	31555.10
595.94	31512.97
596.10	30962.95
596.25	31651.06
596.41	31328.07
596.57	31089.34
596.73	31566.81
596.88	31281.26
597.04	31363.18
597.20	31318.71
597.36	31428.71
597.51	31571.49
597.67	31435.74
597.83	31307.01
597.99	31215.72
598.14	31372.54
598.30	31386.58
598.46	31522.34
598.61	31807.88
598.77	31248.49
598.93	31168.91
599.09	31087.00
599.24	31857.03
599.40	31786.82
599.56	31395.95
599.71	31433.39
599.87	31236.79
600.03	31477.86
600.18	31527.02
600.34	31211.04
600.50	31344.45
600.65	31491.91
600.81	31913.20
600.97	31442.76
601.12	31548.08
601.28	31358.50
601.44	31466.16
601.59	31271.90
601.75	31718.94
601.91	31351.48
602.06	31468.50
602.22	31400.63
602.37	31278.92
602.53	31899.16
602.69	31597.23
602.84	31428.71
603.00	31545.74
603.16	31952.99
603.31	31627.66
603.47	31754.05
603.62	31255.51
603.78	31620.64
603.94	31412.33
604.09	31082.31
604.25	31592.55
604.40	31611.28
604.56	31494.25
604.71	31716.60
604.87	31674.47
605.03	31620.64
605.18	31618.30
605.34	31707.24
605.49	30918.48
605.65	31260.20
605.80	30995.71
605.96	31529.36
606.12	31248.49
606.27	31363.18
606.43	31218.07
606.58	31473.18
606.74	31101.04
606.89	31510.63
607.05	31550.42
607.20	31576.17
607.36	31613.62
607.51	31180.62
607.67	31192.32
607.82	31068.27
607.98	31201.68
608.13	31449.78
608.29	31211.04
608.44	31246.15
608.60	31512.97
608.75	31761.07
608.91	31316.37
609.06	31356.16
609.22	31344.45
609.37	31580.85
609.53	31206.36
609.68	31173.60
609.84	31229.77
609.99	31384.24
610.15	31094.02
610.30	31197.00
610.46	30806.13
610.61	31426.37
610.76	31119.76
610.92	31220.41
611.07	31077.63
611.23	31044.87
611.38	30656.34
611.54	30780.39
611.69	30551.01
611.84	30852.94
612.00	31145.51
612.15	30665.70
612.31	31168.91
612.46	30642.29
612.62	31133.81
612.77	31225.09
612.92	31330.41
613.08	30909.11
613.23	31644.04
613.39	31185.30
613.54	30604.84
613.69	31115.08
613.85	30859.96
614.00	30890.39
614.15	31201.68
614.31	30874.01
614.46	31187.64
614.62	30705.49
614.77	31342.11
614.92	31103.38
615.08	30979.33
615.23	30976.99
615.38	30780.39
615.54	30588.46
615.69	30639.95
615.84	30834.22
616.00	30988.69
616.15	30710.17
616.30	30939.54
616.46	30532.29
616.61	30845.92
616.76	30759.32
616.92	30782.73
617.07	30916.14
617.22	30525.27
617.37	30429.30
617.53	30382.49
617.68	30976.99
617.83	30443.35
617.99	30883.37
618.14	30511.22
618.29	30754.64
618.45	30476.12
618.60	30817.83
618.75	30618.89
618.90	30677.40
619.06	30546.33
619.21	30494.84
619.36	30796.77
619.51	30115.67
619.67	30436.33
619.82	30150.78
619.97	30136.74
620.12	30150.78
620.28	29886.30
620.43	30265.47
620.58	30300.58
620.73	30431.65
620.89	30412.92
621.04	30581.44
621.19	30230.36
621.34	30225.68
621.49	30110.99
621.65	30005.67
621.80	30015.03
621.95	30153.12
622.10	29883.96
622.25	29862.90
622.41	30237.38
622.56	29900.34
622.71	30490.16
622.86	30286.53
623.01	30089.93
623.16	30150.78
623.32	29926.09
623.47	30270.15
623.62	29968.22
623.77	30019.71
623.92	30096.95
624.07	29802.04
624.23	30043.12
624.38	29998.65
624.53	29905.02
624.68	30202.27
624.83	29902.68
624.98	30153.12
625.13	29755.23
625.29	29792.68
625.44	29785.66
625.59	29518.84
625.74	29680.33
625.89	29722.46
626.04	29656.93
626.19	29483.73
626.34	29820.77
626.49	29830.13
626.65	29647.57
626.80	29624.16
626.95	29722.46
627.10	29404.15
627.25	29362.02
627.40	29743.53
627.55	29177.12
627.70	29514.16
627.85	29333.93
628.00	29209.89
628.15	29390.11
628.30	29249.67
628.45	29284.78
628.60	29483.73
628.76	29453.30
628.91	29188.82
629.06	29146.69
629.21	29493.09
629.36	29205.20
629.51	29223.93
629.66	29111.58
629.81	28926.68
629.96	28954.77
630.11	29151.37
630.26	29296.49
630.41	29109.24
630.56	29123.29
630.71	29158.39
630.86	29113.92
631.01	28912.64
631.16	29195.84
631.31	29041.37
631.46	29074.13
631.61	29390.11
631.76	29331.59
631.91	28603.69
632.06	28975.83
632.21	28905.62
632.36	29256.70
632.51	28821.36
632.66	28762.84
632.81	28924.34
632.96	28797.95
633.10	29024.98
633.25	28800.29
633.40	28671.56
633.55	28671.56
633.70	28854.12
633.85	28783.91
634.00	28474.96
634.15	28320.48
634.30	28238.56
634.45	28666.88
634.60	28685.61
634.75	28341.55
634.90	28538.15
635.05	28830.72
635.19	29069.45
635.34	28687.95
635.49	29046.05
635.64	28400.06
635.79	28371.97
635.94	28863.49
636.09	28114.52
636.24	28367.29
636.39	28467.94
636.53	28486.66
636.68	28486.66
636.83	28397.72
636.98	28863.49
637.13	28393.04
637.28	28753.48
637.43	28627.09
637.57	28479.64
637.72	28130.90
637.87	28121.54
638.02	28290.06
638.17	28191.75
638.32	27992.81
638.46	28154.30
638.61	28095.79
638.76	28025.57
638.91	27938.97
639.06	28079.41
639.20	28322.82
639.35	28334.53
639.50	27978.76
639.65	28166.01
639.80	28283.03
639.94	27723.65
640.09	28266.65
640.24	27929.61
640.39	27845.35
640.54	28065.36
640.68	27946.00
640.83	28086.43
640.98	27709.60
641.13	27754.07
641.27	27868.76
641.42	28030.26
641.57	28039.62
641.72	27908.55
641.86	27747.05
642.01	27812.59
642.16	27714.28
642.31	27613.64
642.45	27873.44
642.60	27679.18
642.75	27311.71
642.90	27164.26
643.04	27297.67
643.19	27463.85
643.34	27922.59
643.48	27564.49
643.63	27763.43
643.78	27950.68
643.93	27482.57
644.07	27718.96
644.22	27793.86
644.37	27140.85
644.51	27431.08
644.66	27344.48
644.81	27262.56
644.95	27672.15
645.10	27424.06
645.25	27679.18
645.39	27365.54
645.54	27204.05
645.69	27384.27
645.83	27257.88
645.98	27791.52
646.13	27534.06
646.27	27508.32
646.42	27171.28
646.57	27257.88
646.71	27349.16
646.86	27445.12
647.00	27297.67
647.15	27014.46
647.30	26991.06
647.44	27208.73
647.59	27206.39
647.74	27262.56
647.88	27328.10
648.03	27431.08
648.17	27314.05
648.32	27271.92
648.47	27426.40
648.61	27330.44
648.76	26824.88
648.90	27033.19
649.05	27138.51
649.20	26967.65
649.34	26955.95
649.49	26539.33
649.63	26747.64
649.78	26551.04
649.92	26668.06
650.07	26843.60
650.21	26768.71
650.36	27187.66
650.51	26670.40
650.65	27115.11
650.80	26684.45
650.94	27096.38
651.09	27026.17
651.23	26965.31
651.38	26242.09
651.52	26658.70
651.67	26717.22
651.81	26546.36
651.96	26710.19
652.10	26852.97
652.25	27021.48
652.39	26703.17
652.54	26984.04
652.68	26981.70
652.83	26642.32
652.97	26909.14
653.12	26710.19
653.26	26532.31
653.41	26642.32
653.55	26382.52
653.70	26199.96
653.84	26455.08
653.99	26265.49
654.13	26508.91
654.27	26431.67
654.42	26480.82
654.56	26391.88
654.71	26445.71
654.85	26513.59
655.00	26426.99
655.14	26675.09
655.29	26621.25
655.43	26103.99
655.57	26443.37
655.72	26274.85
655.86	26235.06
656.01	26396.56
656.15	25523.54
656.30	26120.38
656.44	25862.92
656.58	25998.67
656.73	25860.58
656.87	26141.44
657.01	25986.97
657.16	25951.86
657.30	26160.17
657.45	26087.61
657.59	26071.23
657.73	25820.79
657.88	26075.91
658.02	25928.45
658.16	25883.98
658.31	25516.52
658.45	26038.46
658.60	25586.74
658.74	25575.03
658.88	25886.32
659.03	25507.16
659.17	25755.26
659.31	25694.40
659.46	25781.00
659.60	25603.12
659.74	25523.54
659.89	25699.08
660.03	25401.83
660.17	25731.85
660.32	25207.57
660.46	25369.07
660.60	25352.68
660.74	25324.60
660.89	25434.60
661.03	25415.88
661.17	25245.02
661.32	25174.80
661.46	25465.03
661.60	25235.66
661.74	25102.25
661.89	25137.35
662.03	25179.48
662.17	25130.33
662.31	25085.86
662.46	25228.63
662.60	25088.20
662.74	24666.91
662.88	25186.50
663.03	24577.97
663.17	24819.04
663.31	24470.30
663.45	24613.07
663.60	24636.48
663.74	24912.66
663.88	24489.03
664.02	24634.14
664.17	24690.31
664.31	24400.08
664.45	24753.51
664.59	24694.99
664.73	24629.46
664.88	24482.00
665.02	24505.41
665.16	24334.55
665.30	24442.21
665.44	24154.33
665.59	24273.70
665.73	23693.24
665.87	24067.73
666.01	24409.45
666.15	24175.39
666.29	23985.81
666.44	24390.72
666.58	23948.36
666.72	23939.00
666.86	23810.27
667.00	24187.10
667.14	24130.92
667.28	23784.52
667.43	23915.59
667.57	23828.99
667.71	23964.75
667.85	23803.25
667.99	23857.08
668.13	23498.98
668.27	24018.58
668.41	23555.15
668.56	23672.18
668.70	23812.61
668.84	23608.98
668.98	23695.58
669.12	23597.28
669.26	23454.51
669.40	23796.23
669.54	23641.75
669.68	23239.18
669.82	23267.27
669.96	23166.62
670.10	23260.24
670.25	23220.45
670.39	23225.14
670.53	23173.64
670.67	22864.69
670.81	23171.30
670.95	23157.26
671.09	23178.33
671.23	23311.74
671.37	23161.94
671.51	22843.63
671.65	22951.29
671.79	22712.56
671.93	22684.47
672.07	22904.48
672.21	22728.94
672.35	22761.71
672.49	22288.92
672.63	22370.84
672.77	22618.94
672.91	22492.55
673.05	23028.53
673.19	22497.23
673.33	22174.24
673.47	22204.66
673.61	22368.50
673.75	22288.92
673.89	22015.08
674.03	22197.64
674.17	21912.10
674.31	21905.07
674.45	22005.72
674.59	22059.55
674.73	22242.11
674.87	21944.86
675.01	21668.68
675.15	21628.89
675.29	21762.30
675.43	21916.78
675.56	21825.50
675.70	21600.80
675.84	21692.08
675.98	21406.54
676.12	21881.67
676.26	21582.08
676.40	21352.71
676.54	21233.34
676.68	21324.62
676.82	20950.14
676.96	21151.42
677.10	21048.44
677.23	20781.62
677.37	20758.21
677.51	20903.32
677.65	20746.51
677.79	20879.92
677.93	20690.34
678.07	20685.65
678.21	20765.23
678.34	20514.80
678.48	20498.41
678.62	20535.86
678.76	20306.49
678.90	20208.19
679.04	20376.70
679.18	20264.36
679.31	20027.96
679.45	19941.36
679.59	19978.81
679.73	19494.32
679.87	19587.94
680.00	19609.01
680.14	19683.91
680.28	19761.14
680.42	19660.50
680.56	19817.32
680.70	19822.00
680.83	19609.01
680.97	19456.87
681.11	19506.02
681.25	19393.68
681.39	19349.21
681.52	19295.38
681.66	19461.55
681.80	19047.28
681.94	19098.77
682.07	19124.52
682.21	18677.48
682.35	18953.66
682.49	18799.18
682.62	18625.98
682.76	19075.37
682.90	18743.01
683.04	18434.06
683.17	18260.86
683.31	18635.35
683.45	18768.76
683.59	18314.69
683.72	18396.61
683.86	18569.81
684.00	18113.41
684.13	18225.75
684.27	18237.45
684.41	18167.24
684.55	17738.92
684.68	18029.15
684.82	17806.80
684.96	17706.15
685.09	17673.39
685.23	17645.30
685.37	17776.37
685.50	17446.35
685.64	17614.87
685.78	17649.98
685.91	17748.28
686.05	17453.37
686.19	17216.98
686.32	17514.23
686.46	17273.15
686.60	17106.98
686.73	17270.81
686.87	17207.62
687.01	17090.59
687.14	16877.60
687.28	16877.60
687.42	16947.82
687.55	16688.02
687.69	16966.54
687.82	16793.34
687.96	16493.76
688.10	16355.66
688.23	16638.87
688.37	16435.24
688.50	16645.89
688.64	16610.78
688.78	16636.53
688.91	16163.74
689.05	16194.17
689.18	16030.33
689.32	15751.81
689.46	16039.69
689.59	16049.05
689.73	16051.39
689.86	15620.74
690.00	15852.45
690.13	16023.31
690.27	15936.71
690.41	15772.87
690.54	15892.24
690.68	15630.10
690.81	15587.97
690.95	15740.10
691.08	15803.30
691.22	15536.48
691.35	15440.51
691.49	15105.82
691.62	15140.93
691.76	15389.02
691.89	15033.26
692.03	15201.78
692.16	14785.16
692.30	14974.75
692.43	14560.47
692.57	14728.99
692.70	14843.68
692.84	14710.27
692.97	14600.26
693.11	14679.84
693.24	14759.42
693.38	14726.65
693.51	14279.61
693.65	14331.10
693.78	14483.24
693.92	14504.30
694.05	14438.76
694.19	14029.17
694.32	14452.81
694.45	14019.81
694.59	14207.05
694.72	13846.61
694.86	13720.22
694.99	13509.57
695.13	13832.57
695.26	13671.07
695.39	13635.96
695.53	13914.48
695.66	13928.53
695.80	13523.62
695.93	13645.32
696.07	13621.92
696.20	13483.83
696.33	13303.60
696.47	13280.20
696.60	13334.03
696.73	13319.99
696.87	13252.11
697.00	13046.15
697.14	12938.48
697.27	12802.73
697.40	12762.94
697.54	12908.05
697.67	12870.61
697.80	12980.61
697.94	12568.68
698.07	12456.33
698.21	12339.30
698.34	12498.46
698.47	12732.51
698.61	12381.43
698.74	12311.22
698.87	12517.18
699.01	12217.60
699.14	12348.67
699.27	12233.98
699.40	12243.34
699.54	12273.77
699.67	12161.42
699.80	11847.79
699.94	12028.01
700.07	11723.74
700.20	11948.43
700.34	11730.76
700.47	11723.74
700.60	11548.20
700.73	11822.05
700.87	11552.88
701.00	11630.12
701.13	11639.48
701.26	11538.84
701.40	11346.92
701.53	11508.41
701.66	11286.06
701.79	11442.88
701.93	11412.45
702.06	11239.25
702.19	11023.92
702.32	11035.63
702.46	11122.23
702.59	10995.84
702.72	10707.95
702.85	10925.62
702.99	10963.07
703.12	10698.59
703.25	10698.59
703.38	10729.02
703.51	10665.82
703.65	10445.81
703.78	10541.77
703.91	10551.14
704.04	10602.63
704.17	10551.14
704.31	10579.22
704.44	10209.42
704.57	10270.27
704.70	10153.24
704.83	10094.73
704.96	10277.29
705.10	9874.72
705.23	10068.98
>>>>>End Processed Spectral Data<<<<<
