SpectraSuite Data File
++++++++++++++++++++++++++++++++++++
Date: Fri Oct 18 13:57:59 GMT-05:00 2013
User: bianchi
Dark Spectrum Present: No
Reference Spectrum Present: No
Number of Sampled Component Spectra: 1
Spectrometers: USB2+H05261
Integration Time (usec): 50000 (USB2+H05261)
Spectra Averaged: 1 (USB2+H05261)
Boxcar Smoothing: 0 (USB2+H05261)
Correct for Electrical Dark: No (USB2+H05261)
Strobe/Lamp Enabled: No (USB2+H05261)
Correct for Detector Non-linearity: No (USB2+H05261)
Correct for Stray Light: No (USB2+H05261)
Number of Pixels in Processed Spectrum: 2048
>>>>>Begin Processed Spectral Data<<<<<
365.73	0.00
365.92	0.00
366.12	0.00
366.32	0.00
366.52	0.00
366.72	0.00
366.91	0.00
367.11	0.00
367.31	0.00
367.51	0.00
367.70	0.00
367.90	0.00
368.10	0.00
368.30	0.00
368.49	0.00
368.69	0.00
368.89	0.00
369.09	0.00
369.28	0.00
369.48	0.00
369.68	0.00
369.87	0.00
370.07	0.00
370.27	0.00
370.47	0.00
370.66	28.09
370.86	91.28
371.06	128.73
371.25	166.18
371.45	194.26
371.65	215.33
371.84	168.52
372.04	168.52
372.24	159.16
372.44	184.90
372.63	259.80
372.83	248.10
373.03	227.03
373.22	250.44
373.42	224.69
373.62	224.69
373.81	222.35
374.01	299.59
374.21	294.91
374.40	187.24
374.60	266.82
374.79	262.14
374.99	278.52
375.19	262.14
375.38	290.23
375.58	266.82
375.78	304.27
375.97	180.22
376.17	327.68
376.37	276.18
376.56	318.31
376.76	330.02
376.95	266.82
377.15	248.10
377.35	248.10
377.54	283.20
377.74	285.55
377.93	236.39
378.13	196.60
378.33	344.06
378.52	271.50
378.72	308.95
378.91	341.72
379.11	327.68
379.31	337.04
379.50	339.38
379.70	243.42
379.89	264.48
380.09	301.93
380.28	318.31
380.48	313.63
380.68	327.68
380.87	257.46
381.07	294.91
381.26	290.23
381.46	311.29
381.65	334.70
381.85	344.06
382.04	339.38
382.24	416.62
382.43	348.74
382.63	369.80
382.83	348.74
383.02	348.74
383.22	388.53
383.41	425.98
383.61	393.21
383.80	397.89
384.00	381.51
384.19	365.12
384.39	362.78
384.58	344.06
384.78	344.06
384.97	421.30
385.17	346.40
385.36	416.62
385.56	430.66
385.75	327.68
385.95	386.19
386.14	390.87
386.34	393.21
386.53	351.08
386.72	360.44
386.92	463.43
387.11	442.36
387.31	421.30
387.50	395.55
387.70	447.04
387.89	456.40
388.09	416.62
388.28	409.59
388.48	407.25
388.67	444.70
388.86	461.09
389.06	461.09
389.25	482.15
389.45	521.94
389.64	435.34
389.84	489.17
390.03	451.72
390.22	456.40
390.42	482.15
390.61	449.38
390.81	514.92
391.00	535.98
391.19	496.19
391.39	479.81
391.58	538.32
391.78	498.53
391.97	566.41
392.16	463.43
392.36	531.30
392.55	606.20
392.75	641.31
392.94	603.86
393.13	585.13
393.33	624.92
393.52	538.32
393.71	580.45
393.91	568.75
394.10	561.73
394.29	610.88
394.49	620.24
394.68	690.46
394.88	566.41
395.07	599.18
395.26	648.33
395.46	587.47
395.65	704.50
395.84	610.88
396.04	669.39
396.23	617.90
396.42	631.94
396.62	650.67
396.81	610.88
397.00	599.18
397.19	711.52
397.39	669.39
397.58	685.78
397.77	732.59
397.97	599.18
398.16	697.48
398.35	760.67
398.55	697.48
398.74	594.50
398.93	725.57
399.12	753.65
399.32	709.18
399.51	746.63
399.70	746.63
399.90	699.82
400.09	725.57
400.28	741.95
400.47	774.72
400.67	840.25
400.86	690.46
401.05	858.98
401.24	774.72
401.44	849.61
401.63	851.96
401.82	863.66
402.01	891.74
402.21	903.45
402.40	833.23
402.59	933.87
402.78	858.98
402.97	910.47
403.17	842.59
403.36	940.90
403.55	901.11
403.74	950.26
403.93	999.41
404.13	837.91
404.32	868.34
404.51	889.40
404.70	875.36
404.89	901.11
405.09	884.72
405.28	1011.11
405.47	938.55
405.66	926.85
405.85	994.73
406.05	994.73
406.24	1071.97
406.43	952.60
406.62	950.26
406.81	1156.22
407.00	1041.54
407.20	1013.45
407.39	1004.09
407.58	1121.12
407.77	1116.44
407.96	1043.88
408.15	1074.31
408.34	1118.78
408.54	1095.37
408.73	1181.97
408.92	1240.48
409.11	1062.60
409.30	1083.67
409.49	1057.92
409.68	1245.16
409.87	1221.76
410.07	1224.10
410.26	1200.69
410.45	1196.01
410.64	1256.87
410.83	1240.48
411.02	1198.35
411.21	1282.61
411.40	1275.59
411.59	1242.82
411.78	1350.49
411.98	1268.57
412.17	1266.23
412.36	1226.44
412.55	1345.81
412.74	1418.36
412.93	1287.29
413.12	1385.60
413.31	1509.65
413.50	1380.92
413.69	1366.87
413.88	1556.46
414.07	1479.22
414.26	1507.30
414.45	1474.54
414.64	1476.88
414.83	1458.15
415.02	1568.16
415.22	1486.24
415.41	1516.67
415.60	1614.97
415.79	1612.63
415.98	1636.03
416.17	1624.33
416.36	1490.92
416.55	1664.12
416.74	1699.23
416.93	1657.10
417.12	1741.36
417.31	1748.38
417.50	1692.21
417.69	1739.02
417.88	1713.27
418.07	1755.40
418.26	1734.34
418.45	1818.60
418.64	1849.02
418.83	1778.81
419.02	1776.47
419.21	1877.11
419.39	1879.45
419.58	1849.02
419.77	1717.95
419.96	1902.86
420.15	1888.81
420.34	1961.37
420.53	1942.64
420.72	1865.41
420.91	1994.14
421.10	1893.49
421.29	2108.82
421.48	1919.24
421.67	2071.37
421.86	1949.67
422.05	2125.21
422.24	1996.48
422.43	1991.80
422.61	2050.31
422.80	1916.90
422.99	2069.03
423.18	2153.29
423.37	1975.41
423.56	2040.95
423.75	2092.44
423.94	1996.48
424.13	1874.77
424.32	1996.48
424.50	2052.65
424.69	2108.82
424.88	2115.84
425.07	1966.05
425.26	2066.69
425.45	2090.10
425.64	2076.06
425.83	2120.53
426.01	2092.44
426.20	2153.29
426.39	2148.61
426.58	2024.56
426.77	2157.97
426.96	2272.66
427.15	2139.25
427.33	2190.74
427.52	2172.02
427.71	2221.17
427.90	2165.00
428.09	2232.87
428.28	2200.10
428.46	2331.17
428.65	2413.09
428.84	2284.36
429.03	2267.98
429.22	2305.43
429.40	2420.11
429.59	2370.96
429.78	2260.96
429.97	2155.63
430.16	2279.68
430.34	2422.45
430.53	2377.98
430.72	2431.82
430.91	2450.54
431.10	2399.05
431.28	2417.77
431.47	2480.97
431.66	2427.14
431.85	2445.86
432.03	2562.89
432.22	2541.82
432.41	2473.95
432.60	2555.86
432.79	2476.29
432.97	2471.61
433.16	2553.52
433.35	2504.37
433.54	2497.35
433.72	2495.01
433.91	2605.02
434.10	2539.48
434.28	2520.76
434.47	2614.38
434.66	2623.74
434.85	2691.62
435.03	2621.40
435.22	2623.74
435.41	2684.59
435.59	2626.08
435.78	2684.59
435.97	2708.00
436.16	2698.64
436.34	2740.77
436.53	2745.45
436.72	2848.43
436.90	2663.53
437.09	2808.64
437.28	2810.98
437.46	2729.06
437.65	2815.66
437.84	2848.43
438.02	2895.24
438.21	2836.73
438.40	2895.24
438.58	3019.29
438.77	2984.18
438.96	2860.13
439.14	2970.14
439.33	2939.71
439.52	3063.76
439.70	2902.26
439.89	3070.78
440.08	3169.09
440.26	3171.43
440.45	3192.49
440.63	3159.72
440.82	3283.77
441.01	3148.02
441.19	3187.81
441.38	3218.24
441.57	3290.79
441.75	3351.65
441.94	3260.37
442.12	3234.62
442.31	3405.48
442.50	3389.10
442.68	3328.24
442.87	3356.33
443.05	3372.71
443.24	3639.53
443.43	3431.23
443.61	3543.57
443.80	3559.95
443.98	3232.28
444.17	3330.58
444.35	3410.16
444.54	3508.46
444.73	3442.93
444.91	3515.48
445.10	3363.35
445.28	3501.44
445.47	3412.50
445.65	3419.52
445.84	3555.27
446.02	3592.72
446.21	3581.02
446.39	3510.80
446.58	3695.71
446.77	3588.04
446.95	3510.80
447.14	3674.64
447.32	3574.00
447.51	3461.65
447.69	3714.43
447.88	3393.78
448.06	3613.79
448.25	3449.95
448.43	3707.41
448.62	3653.58
448.80	3632.51
448.99	3648.90
449.17	3674.64
449.36	3658.26
449.54	3779.97
449.73	3691.02
449.91	3803.37
450.10	3873.59
450.28	3880.61
450.46	3688.68
450.65	3749.54
450.83	3918.06
451.02	3899.33
451.20	3971.89
451.39	3894.65
451.57	3847.84
451.76	3730.81
451.94	3815.07
452.13	4053.81
452.31	4032.74
452.49	4030.40
452.68	4021.04
452.86	3889.97
453.05	3967.21
453.23	4016.36
453.42	3913.38
453.60	4002.32
453.78	4058.49
453.97	3997.64
454.15	3948.48
454.34	3925.08
454.52	4028.06
454.70	4011.68
454.89	4161.47
455.07	4184.88
455.26	4325.31
455.44	4271.48
455.62	4009.34
455.81	4187.22
455.99	4154.45
456.17	4236.37
456.36	4259.78
456.54	4266.80
456.73	4236.37
456.91	4318.29
457.09	4273.82
457.28	4372.12
457.46	4231.69
457.64	4528.94
457.83	4468.08
458.01	4465.74
458.19	4479.79
458.38	4489.15
458.56	4463.40
458.74	4456.38
458.93	4510.21
459.11	4468.08
459.29	4557.02
459.48	4692.77
459.66	4648.30
459.84	4592.13
460.03	4634.26
460.21	4514.89
460.39	4650.64
460.57	4678.73
460.76	4704.48
460.94	4791.08
461.12	4645.96
461.31	4657.67
461.49	4730.22
461.67	4587.45
461.85	4812.14
462.04	4833.21
462.22	5291.95
462.40	4992.36
462.59	4716.18
462.77	4746.61
462.95	5011.09
463.13	4624.90
463.32	5032.15
463.50	4896.40
463.68	4915.12
463.86	4915.12
464.05	4863.63
464.23	4821.50
464.41	4983.00
464.59	4858.95
464.78	4990.02
464.96	5043.85
465.14	4957.25
465.32	5076.62
465.50	5107.05
465.69	5069.60
465.87	4873.00
466.05	5050.88
466.23	5060.24
466.41	4947.89
466.60	5233.44
466.78	5149.18
466.96	5245.14
467.14	5114.07
467.32	5247.48
467.51	5277.91
467.69	5097.69
467.87	5245.14
468.05	5212.37
468.23	5191.31
468.41	5266.21
468.60	5207.69
468.78	5303.65
468.96	5280.25
469.14	5348.12
469.32	5593.88
469.50	5247.48
469.69	5603.24
469.87	5565.79
470.05	5561.11
470.23	5610.26
470.41	5500.26
470.59	5584.52
470.77	5479.19
470.95	5710.91
471.14	5628.99
471.32	5755.38
471.50	5748.36
471.68	5657.07
471.86	5795.17
472.04	5795.17
472.22	6015.18
472.40	5738.99
472.58	6001.13
472.77	5914.53
472.95	5851.34
473.13	6169.65
473.31	5851.34
473.49	5907.51
473.67	6017.52
473.85	5930.92
474.03	6209.44
474.21	6069.01
474.39	6239.87
474.57	6242.21
474.75	6225.82
474.93	6462.22
475.12	6207.10
475.30	6277.32
475.48	6104.12
475.66	6349.87
475.84	6317.11
476.02	6441.15
476.20	6399.02
476.38	6604.99
476.56	6623.72
476.74	6637.76
476.92	6670.53
477.10	6693.93
477.28	6825.00
477.46	6995.86
477.64	6979.48
477.82	7045.01
478.00	7096.50
478.18	6939.69
478.36	7265.02
478.54	7332.90
478.72	7218.21
478.90	7208.85
479.08	7480.35
479.26	7503.76
479.44	7360.98
479.62	7517.80
479.80	7468.65
479.98	7611.42
480.16	7468.65
480.34	7801.01
480.52	7857.18
480.70	7974.21
480.88	7761.22
481.06	7735.47
481.24	7817.39
481.41	8070.17
481.59	8100.59
481.77	8177.83
481.95	8292.52
482.13	8205.92
482.31	8114.64
482.49	8451.67
482.67	8442.31
482.85	8496.14
483.03	8594.45
483.21	8566.36
483.39	8849.57
483.57	8971.27
483.74	8821.48
483.92	8865.95
484.10	8791.05
484.28	9121.07
484.46	9085.96
484.64	9312.99
484.82	9067.24
485.00	9408.95
485.18	9537.68
485.35	9563.43
485.53	9537.68
485.71	9451.08
485.89	9781.10
486.07	9682.80
486.25	9776.42
486.43	9771.74
486.61	10118.14
486.78	10242.18
486.96	10286.65
487.14	10242.18
487.32	10324.10
487.50	10370.91
487.68	10490.28
487.85	10658.80
488.03	10581.56
488.21	10888.17
488.39	10778.17
488.57	10684.55
488.75	10995.84
488.92	10920.94
489.10	10902.22
489.28	11136.27
489.46	11257.98
489.64	11169.04
489.81	11414.79
489.99	11445.22
490.17	11679.27
490.35	11686.29
490.53	11906.31
490.70	11793.96
490.88	11939.07
491.06	12023.33
491.24	12116.95
491.41	12030.35
491.59	12196.53
491.77	12325.26
491.95	12453.99
492.13	12243.34
492.30	12641.23
492.48	12676.34
492.66	12624.85
492.84	12727.83
493.01	12695.07
493.19	12896.35
493.37	13132.75
493.54	13107.00
493.72	13317.65
493.90	13085.94
494.08	13085.94
494.25	13308.29
494.43	13556.38
494.61	13650.00
494.79	13745.97
494.96	13577.45
495.14	13575.11
495.32	14153.22
495.49	14026.83
495.67	14015.13
495.85	14064.28
496.02	14216.41
496.20	14094.71
496.38	14001.08
496.55	14153.22
496.73	14464.51
496.91	14155.56
497.09	14523.02
497.26	14558.13
497.44	14707.93
497.62	14714.95
497.79	15019.22
497.97	14501.96
498.14	14944.32
498.32	15197.10
498.50	15037.94
498.67	15272.00
498.85	15087.09
499.03	15396.04
499.20	15356.25
499.38	15161.99
499.56	15484.98
499.73	15384.34
499.91	15639.46
500.08	15709.68
500.26	15875.85
500.44	15784.57
500.61	16018.63
500.79	15831.38
500.97	15925.00
501.14	16432.90
501.32	16116.93
501.49	16257.36
501.67	16152.04
501.84	16245.66
502.02	16334.60
502.20	16379.07
502.37	16264.38
502.55	16435.24
502.72	16430.56
502.90	16477.37
503.07	16500.78
503.25	16856.54
503.43	16463.33
503.60	16910.37
503.78	17036.76
503.95	16985.27
504.13	16898.67
504.30	17083.57
504.48	16884.62
504.65	16858.88
504.83	17242.73
505.01	17422.95
505.18	17130.38
505.36	17582.10
505.53	17312.94
505.71	17671.04
505.88	17467.42
506.06	17261.45
506.23	17792.75
506.41	17671.04
506.58	17579.76
506.76	17764.67
506.93	17781.05
507.11	17930.84
507.28	17764.67
507.46	18071.28
507.63	17947.23
507.81	18150.85
507.98	18207.03
508.16	18270.22
508.33	17996.38
508.50	18544.06
508.68	18508.96
508.85	18581.51
509.03	18506.62
509.20	18663.43
509.38	18773.44
509.55	18817.91
509.73	18750.03
509.90	18665.77
510.08	18600.24
510.25	18609.60
510.42	18513.64
510.60	18888.12
510.77	18946.64
510.95	19286.01
511.12	19257.93
511.30	19143.24
511.47	19332.82
511.64	19110.47
511.82	19520.07
511.99	19321.12
512.17	19627.73
512.34	19676.88
512.51	19494.32
512.69	19517.73
512.86	19651.14
513.04	20119.24
513.21	19985.83
513.38	19978.81
513.56	19864.13
513.73	19770.51
513.90	19962.43
514.08	19999.88
514.25	20397.77
514.43	20123.93
514.60	20170.74
514.77	20091.16
514.95	20311.17
515.12	20215.21
515.29	20107.54
515.47	20456.28
515.64	20603.74
515.81	20643.52
515.99	20577.99
516.16	20730.12
516.33	20748.85
516.51	20879.92
516.68	20821.41
516.85	20737.15
517.03	20882.26
517.20	21095.25
517.37	21050.78
517.54	21064.82
517.72	20973.54
517.89	20870.56
518.06	21319.94
518.24	20863.54
518.41	20929.07
518.58	21460.37
518.75	21214.62
518.93	21238.02
519.10	21535.27
519.27	21586.76
519.45	21371.43
519.62	21570.38
519.79	21336.32
519.96	21635.91
520.14	21984.65
520.31	21844.22
520.48	22001.04
520.65	21673.36
520.83	22008.06
521.00	22057.21
521.17	22010.40
521.34	21982.31
521.52	22085.30
521.69	21975.29
521.86	22284.24
522.03	22525.32
522.20	22422.33
522.38	22291.26
522.55	22036.14
522.72	22321.69
522.89	22405.95
523.07	22466.80
523.24	22377.86
523.41	22670.43
523.58	22492.55
523.75	22733.62
523.92	22497.23
524.10	22735.96
524.27	22927.89
524.44	22796.82
524.61	22780.43
524.78	22698.52
524.96	22860.01
525.13	22958.31
525.30	23178.33
525.47	23316.42
525.64	23201.73
525.81	23101.09
525.98	23075.34
526.16	23185.35
526.33	23311.74
526.50	23342.16
526.67	23222.80
526.84	23477.91
527.01	23454.51
527.18	23496.64
527.36	23527.06
527.53	23690.90
527.70	23974.11
527.87	24217.52
528.04	23740.05
528.21	23704.95
528.38	23985.81
528.55	23658.14
528.72	23880.49
528.89	23433.44
529.07	23948.36
529.24	24095.82
529.41	24336.89
529.58	23674.52
529.75	23985.81
529.92	24151.99
530.09	24191.78
530.26	24566.26
530.43	24166.03
530.60	24416.47
530.77	24294.76
530.94	24664.57
531.11	24341.57
531.28	24112.20
531.46	24280.72
531.63	24615.41
531.80	24666.91
531.97	24474.98
532.14	24643.50
532.31	24458.60
532.48	24545.20
532.65	24603.71
532.82	24819.04
532.99	24580.31
533.16	24676.27
533.33	25198.21
533.50	25181.82
533.67	24987.56
533.84	24865.85
534.01	24769.89
534.18	24505.41
534.35	24917.34
534.52	24910.32
534.69	25357.36
534.86	25546.95
535.03	25036.71
535.20	25219.27
535.37	25621.84
535.54	25441.62
535.71	25113.95
535.88	25261.40
536.05	25142.03
536.22	25865.26
536.38	25415.88
536.55	25418.22
536.72	25694.40
536.89	25495.46
537.06	25642.91
537.23	26148.46
537.40	25439.28
537.57	25797.38
537.74	25937.82
537.91	25989.31
538.08	25748.23
538.25	25748.23
538.42	25699.08
538.59	26113.36
538.75	25607.80
538.92	26134.42
539.09	26139.10
539.26	25935.48
539.43	25818.45
539.60	26228.04
539.77	25914.41
539.94	26361.45
540.11	26003.35
540.28	26125.06
540.44	26132.08
540.61	26279.54
540.78	26115.70
540.95	26211.66
541.12	26162.51
541.29	26560.40
541.46	26352.09
541.62	26373.16
541.79	26478.48
541.96	26309.96
542.13	26529.97
542.30	26649.34
542.47	26808.50
542.63	26553.38
542.80	26841.26
542.97	26670.40
543.14	26890.41
543.31	27187.66
543.48	26700.83
543.64	27058.93
543.81	27213.41
543.98	27292.99
544.15	27227.45
544.32	27087.02
544.48	27227.45
544.65	26822.54
544.82	26803.82
544.99	26871.69
545.16	26813.18
545.32	27257.88
545.49	27566.83
545.66	27828.97
545.83	27218.09
546.00	27683.86
546.16	27651.09
546.33	27002.76
546.50	27215.75
546.67	27461.51
546.83	26948.93
547.00	27615.98
547.17	27529.38
547.34	27269.58
547.50	27735.35
547.67	27796.20
547.84	27838.33
548.00	27639.39
548.17	27946.00
548.34	27751.73
548.51	27751.73
548.67	28011.53
548.84	28025.57
549.01	27721.30
549.18	27812.59
549.34	27782.16
549.51	28034.94
549.68	27920.25
549.84	27740.03
550.01	27988.13
550.18	27768.12
550.34	28212.82
550.51	28004.51
550.68	28353.25
550.84	28247.93
551.01	28374.31
551.18	27936.63
551.34	28233.88
551.51	27749.39
551.68	28411.76
551.84	28184.73
552.01	28240.90
552.18	28294.74
552.34	28329.84
552.51	28229.20
552.68	28250.27
552.84	28393.04
553.01	28676.24
553.18	28547.51
553.34	28699.65
553.51	28276.01
553.67	28645.82
553.84	28788.59
554.01	28561.56
554.17	28751.14
554.34	28851.78
554.51	28685.61
554.67	28786.25
554.84	28657.52
555.00	28716.03
555.17	29053.07
555.33	29268.40
555.50	29041.37
555.67	29036.69
555.83	29055.41
556.00	28961.79
556.16	28922.00
556.33	28554.54
556.50	28856.46
556.66	29134.99
556.83	29226.27
556.99	29186.48
557.16	29064.77
557.32	28898.59
557.49	29408.83
557.65	29259.04
557.82	29125.63
557.98	29230.95
558.15	29188.82
558.32	29259.04
558.48	29364.36
558.65	29415.85
558.81	29291.80
558.98	29024.98
559.14	29261.38
559.31	29048.39
559.47	29111.58
559.64	29195.84
559.80	29399.47
559.97	29315.21
560.13	29387.77
560.30	29514.16
560.46	29432.24
560.63	29830.13
560.79	29158.39
560.96	29586.71
561.12	29483.73
561.29	29476.71
561.45	29577.35
561.61	29575.01
561.78	29570.33
561.94	29741.19
562.11	29799.70
562.27	29734.17
562.44	29558.63
562.60	29270.74
562.77	29589.05
562.93	29467.34
563.10	29780.98
563.26	29722.46
563.42	29813.74
563.59	30148.44
563.75	30019.71
563.92	29734.17
564.08	29209.89
564.24	29579.69
564.41	29654.59
564.57	29778.64
564.74	29474.37
564.90	30068.86
565.07	29876.94
565.23	30110.99
565.39	30265.47
565.56	30068.86
565.72	30082.91
565.88	29830.13
566.05	30008.01
566.21	29802.04
566.38	29862.90
566.54	30026.73
566.70	30433.99
566.87	30277.17
567.03	29921.41
567.19	30094.61
567.36	30300.58
567.52	30298.23
567.68	30302.92
567.85	29727.14
568.01	30178.87
568.17	29912.05
568.34	30202.27
568.50	30349.73
568.66	30143.76
568.83	30221.00
568.99	29982.26
569.15	30263.13
569.32	29996.31
569.48	29830.13
569.64	30185.89
569.81	30101.63
569.97	30555.69
570.13	29752.89
570.30	30160.14
570.46	30466.75
570.62	30029.07
570.78	29855.87
570.95	30099.29
571.11	30118.01
571.27	30265.47
571.43	29986.94
571.60	30103.97
571.76	30202.27
571.92	30417.60
572.09	30192.91
572.25	30171.85
572.41	30670.38
572.57	30607.19
572.74	30349.73
572.90	30536.97
573.06	30352.07
573.22	30223.34
573.38	30436.33
573.55	30064.18
573.71	30712.51
573.87	30778.04
574.03	30745.28
574.20	30319.30
574.36	30331.00
574.52	30448.03
574.68	30443.35
574.84	30307.60
575.01	30661.02
575.17	30654.00
575.33	30256.11
575.49	30298.23
575.65	30459.73
575.82	30235.04
575.98	30244.40
576.14	30415.26
576.30	30670.38
576.46	30668.04
576.62	30813.15
576.79	30595.48
576.95	30429.30
577.11	30686.76
577.27	30663.36
577.43	30595.48
577.59	30300.58
577.75	30754.64
577.92	30295.89
578.08	30476.12
578.24	30497.18
578.40	30370.79
578.56	30834.22
578.72	30703.15
578.88	30588.46
579.04	30764.00
579.21	30181.21
579.37	30600.16
579.53	30511.22
579.69	30651.66
579.85	30494.84
580.01	30602.50
580.17	30228.02
580.33	30314.62
580.49	30831.88
580.65	30829.54
580.82	30576.76
580.98	30782.73
581.14	30792.09
581.30	30452.71
581.46	30651.66
581.62	30735.92
581.78	30558.03
581.94	30639.95
582.10	30511.22
582.26	30778.04
582.42	30478.46
582.58	30869.33
582.74	30487.82
582.90	30452.71
583.06	30609.53
583.22	30600.16
583.38	30441.01
583.54	30518.25
583.70	30560.37
583.86	30700.81
584.02	30551.01
584.18	30899.75
584.34	30822.51
584.50	30665.70
584.66	30410.58
584.82	30558.03
584.98	30782.73
585.14	30724.21
585.30	30415.26
585.46	30672.72
585.62	30749.96
585.78	30707.83
585.94	30288.87
586.10	30904.43
586.26	31157.21
586.42	30850.60
586.58	31133.81
586.74	30801.45
586.90	30609.53
587.06	30345.05
587.22	30623.57
587.38	30712.51
587.54	31248.49
587.70	31189.98
587.86	30923.16
588.02	30756.98
588.18	31637.02
588.34	30916.14
588.49	30478.46
588.65	30759.32
588.81	30565.06
588.97	31229.77
589.13	30719.53
589.29	30707.83
589.45	31250.83
589.61	31112.74
589.77	31309.35
589.93	30962.95
590.08	31318.71
590.24	30953.58
590.40	30976.99
590.56	31428.71
590.72	30845.92
590.88	30604.84
591.04	30962.95
591.20	31323.39
591.35	31421.69
591.51	31510.63
591.67	30934.86
591.83	31459.14
591.99	31204.02
592.15	31283.60
592.31	31236.79
592.46	31094.02
592.62	30841.24
592.78	30794.43
592.94	31292.96
593.10	30972.31
593.26	31356.16
593.41	31711.92
593.57	31290.62
593.73	31288.28
593.89	31194.66
594.05	31049.55
594.20	31124.44
594.36	31056.57
594.52	30717.19
594.68	31178.28
594.84	31049.55
594.99	31391.26
595.15	31438.08
595.31	31742.35
595.47	31157.21
595.62	31517.65
595.78	31342.11
595.94	30862.30
596.10	30902.09
596.25	31243.81
596.41	31250.83
596.57	31321.05
596.73	31487.23
596.88	31194.66
597.04	31091.68
597.20	31351.48
597.36	31243.81
597.51	31735.32
597.67	31372.54
597.83	31402.97
597.99	31442.76
598.14	30920.82
598.30	31227.43
598.46	31299.98
598.61	31323.39
598.77	31363.18
598.93	31740.00
599.09	31269.56
599.24	31604.25
599.40	31505.95
599.56	31412.33
599.71	31487.23
599.87	31283.60
600.03	31613.62
600.18	30939.54
600.34	31136.15
600.50	31379.56
600.65	31089.34
600.81	31335.09
600.97	31145.51
601.12	31325.73
601.28	31583.19
601.44	31597.23
601.59	31187.64
601.75	31154.87
601.91	31337.43
602.06	31697.88
602.22	31548.08
602.37	31278.92
602.53	31236.79
602.69	31445.10
602.84	31164.23
603.00	31522.34
603.16	31707.24
603.31	31405.31
603.47	31644.04
603.62	31732.98
603.78	31274.24
603.94	31395.95
604.09	31466.16
604.25	31040.18
604.40	31267.22
604.56	31346.79
604.71	31559.78
604.87	31344.45
605.03	31442.76
605.18	31559.78
605.34	31517.65
605.49	31197.00
605.65	31445.10
605.80	31267.22
605.96	31103.38
606.12	31211.04
606.27	31470.84
606.43	31185.30
606.58	31302.32
606.74	31337.43
606.89	31557.44
607.05	31241.47
607.20	31257.85
607.36	31419.35
607.51	31133.81
607.67	30864.64
607.82	31016.78
607.98	31505.95
608.13	31229.77
608.29	31037.84
608.44	31220.41
608.60	31456.80
608.75	31529.36
608.91	31101.04
609.06	30834.22
609.22	31211.04
609.37	30560.37
609.53	31243.81
609.68	31213.38
609.84	30904.43
609.99	31206.36
610.15	30668.04
610.30	31098.70
610.46	31124.44
610.61	31166.57
610.76	31398.29
610.92	31192.32
611.07	31264.88
611.23	30892.73
611.38	30953.58
611.54	30731.23
611.69	30904.43
611.84	30965.29
612.00	30801.45
612.15	30771.02
612.31	30972.31
612.46	30878.69
612.62	30941.88
612.77	30962.95
612.92	31054.23
613.08	30501.86
613.23	31112.74
613.39	31054.23
613.54	30569.74
613.69	30546.33
613.85	30677.40
614.00	30866.98
614.15	30682.08
614.31	30923.16
614.46	30876.35
614.62	31101.04
614.77	30682.08
614.92	30834.22
615.08	30684.42
615.23	30532.29
615.38	30590.80
615.54	30401.22
615.69	30656.34
615.84	30829.54
616.00	30525.27
616.15	30452.71
616.30	30520.59
616.46	30712.51
616.61	30588.46
616.76	30684.42
616.92	30244.40
617.07	30754.64
617.22	30532.29
617.37	30370.79
617.53	30405.90
617.68	30230.36
617.83	30040.78
617.99	30110.99
618.14	30551.01
618.29	30415.26
618.45	30218.66
618.60	30132.06
618.75	30700.81
618.90	30370.79
619.06	30333.34
619.21	30244.40
619.36	30476.12
619.51	29858.21
619.67	29837.15
619.82	30134.40
619.97	30103.97
620.12	30003.33
620.28	30038.44
620.43	30120.35
620.58	30609.53
620.73	30382.49
620.89	30073.54
621.04	30473.78
621.19	30349.73
621.34	30136.74
621.49	29692.04
621.65	29872.26
621.80	30127.38
621.95	29860.55
622.10	30029.07
622.25	29867.58
622.41	29755.23
622.56	29963.54
622.71	29895.66
622.86	30122.69
623.01	30146.10
623.16	30204.61
623.32	29696.72
623.47	30071.20
623.62	29560.97
623.77	29935.45
623.92	29830.13
624.07	29469.69
624.23	29582.03
624.38	29689.70
624.53	29717.78
624.68	29720.12
624.83	30148.44
624.98	29790.34
625.13	29542.24
625.29	29722.46
625.44	29607.78
625.59	29411.17
625.74	29659.27
625.89	29546.92
626.04	29575.01
626.19	29488.41
626.34	29399.47
626.49	29516.50
626.65	29460.32
626.80	29598.41
626.95	29329.25
627.10	29575.01
627.25	29359.68
627.40	29209.89
627.55	29235.63
627.70	29017.96
627.85	29041.37
628.00	29205.20
628.15	29703.74
628.30	29163.08
628.45	29207.55
628.60	28999.24
628.76	29502.45
628.91	29441.60
629.06	28980.51
629.21	29359.68
629.36	29212.23
629.51	29221.59
629.66	28606.03
629.81	29132.65
629.96	28788.59
630.11	28987.53
630.26	28912.64
630.41	28711.35
630.56	29003.92
630.71	29076.48
630.86	28678.58
631.01	29151.37
631.16	29074.13
631.31	29078.82
631.46	28694.97
631.61	28542.83
631.76	28802.63
631.91	28994.56
632.06	28430.49
632.21	28678.58
632.36	28596.67
632.51	28608.37
632.66	28797.95
632.81	28386.02
632.96	28821.36
633.10	28877.53
633.25	28685.61
633.40	28748.80
633.55	29212.23
633.70	28435.17
633.85	28290.06
634.00	28339.21
634.15	28261.97
634.30	28629.43
634.45	28650.50
634.60	28343.89
634.75	28671.56
634.90	28577.94
635.05	28842.42
635.19	28449.21
635.34	28767.52
635.49	28556.88
635.64	28390.70
635.79	28446.87
635.94	28336.87
636.09	28477.30
636.24	28053.66
636.39	28023.23
636.53	28224.52
636.68	27805.56
636.83	28166.01
636.98	27983.44
637.13	28060.68
637.28	28421.13
637.43	28397.72
637.57	28456.23
637.72	27859.40
637.87	28079.41
638.02	27693.22
638.17	28435.17
638.32	28144.94
638.46	27754.07
638.61	28240.90
638.76	27644.07
638.91	27831.31
639.06	28264.31
639.20	28229.20
639.35	27896.85
639.50	28109.83
639.65	28039.62
639.80	28369.63
639.94	28112.17
640.09	28034.94
640.24	28264.31
640.39	27938.97
640.54	27899.19
640.68	27559.81
640.83	27637.05
640.98	27466.19
641.13	27620.66
641.27	27674.49
641.42	27424.06
641.57	27957.70
641.72	27786.84
641.86	27695.56
642.01	27524.70
642.16	27417.04
642.31	27709.60
642.45	27475.55
642.60	27119.79
642.75	27599.60
642.90	27346.82
643.04	27545.76
643.19	26700.83
643.34	27445.12
643.48	27417.04
643.63	27704.92
643.78	27496.61
643.93	27440.44
644.07	27454.48
644.22	27688.54
644.37	27583.21
644.51	27515.34
644.66	26864.67
644.81	27213.41
644.95	27094.04
645.10	27309.37
645.25	27400.65
645.39	27143.19
645.54	27288.31
645.69	27206.39
645.83	27473.21
645.98	27211.07
646.13	27463.85
646.27	27082.34
646.42	27285.97
646.57	27304.69
646.71	27054.25
646.86	27180.64
647.00	26906.80
647.15	27262.56
647.30	27136.17
647.44	27087.02
647.59	27082.34
647.74	26775.73
647.88	26799.13
648.03	27269.58
648.17	27227.45
648.32	26890.41
648.47	27023.83
648.61	27094.04
648.76	27068.30
648.90	26899.78
649.05	27002.76
649.20	27054.25
649.34	26735.94
649.49	26431.67
649.63	26707.85
649.78	26614.23
649.92	26621.25
650.07	26773.39
650.21	26927.86
650.36	26813.18
650.51	26555.72
650.65	26553.38
650.80	26829.56
650.94	26757.00
651.09	26426.99
651.23	26473.80
651.38	26614.23
651.52	26855.31
651.67	26445.71
651.81	26532.31
651.96	26218.68
652.10	26593.17
652.25	26471.46
652.39	26281.88
652.54	26675.09
652.68	26595.51
652.83	26471.46
652.97	26869.35
653.12	26569.76
653.26	26506.57
653.41	26293.58
653.55	26408.26
653.70	26036.12
653.84	26422.31
653.99	26326.35
654.13	26541.68
654.27	25963.56
654.42	26129.74
654.56	26232.72
654.71	26143.78
654.85	26204.64
655.00	26342.73
655.14	26419.97
655.29	26230.38
655.43	26368.48
655.57	26249.11
655.72	26150.81
655.86	25942.50
656.01	25926.11
656.15	25853.56
656.30	25874.62
656.44	26225.70
656.58	26064.21
656.73	25731.85
656.87	26111.02
657.01	25907.39
657.16	26003.35
657.30	26225.70
657.45	25811.43
657.59	26050.16
657.73	25685.04
657.88	26080.59
658.02	25776.32
658.16	25558.65
658.31	25757.60
658.45	25708.44
658.60	25465.03
658.74	25656.95
658.88	25635.89
659.03	25502.48
659.17	25759.94
659.31	25661.63
659.46	25818.45
659.60	25661.63
659.74	25394.81
659.89	25472.05
660.03	25450.99
660.17	25397.15
660.32	25209.91
660.46	25132.67
660.60	24936.07
660.74	25179.48
660.89	24741.80
661.03	24886.92
661.17	25193.53
661.32	25387.79
661.46	24940.75
661.60	25235.66
661.74	25345.66
661.89	25160.76
662.03	25406.52
662.17	25060.12
662.31	25006.28
662.46	24685.63
662.60	25170.12
662.74	24863.51
662.88	24788.61
663.03	24439.87
663.17	24659.88
663.31	24500.73
663.45	24542.86
663.60	24535.84
663.74	24587.33
663.88	24498.39
664.02	24517.11
664.17	24669.25
664.31	24620.10
664.45	24545.20
664.59	24329.87
664.73	24364.98
664.88	24603.71
665.02	24102.84
665.16	24168.37
665.30	24233.91
665.44	24238.59
665.59	24088.79
665.73	24135.60
665.87	23983.47
666.01	24070.07
666.15	23943.68
666.29	24240.93
666.44	24147.31
666.58	23826.65
666.72	23616.01
666.86	23726.01
667.00	24425.83
667.14	23733.03
667.28	23828.99
667.43	23601.96
667.57	23587.92
667.71	23594.94
667.85	23765.80
667.99	23618.35
668.13	23548.13
668.27	23576.22
668.41	23538.77
668.56	23487.28
668.70	23857.08
668.84	23498.98
668.98	23309.40
669.12	23695.58
669.26	23372.59
669.40	23372.59
669.54	23491.96
669.68	23276.63
669.82	22963.00
669.96	23183.01
670.10	22991.08
670.25	22845.97
670.39	23260.24
670.53	22963.00
670.67	23124.49
670.81	23065.98
670.95	22955.97
671.09	22958.31
671.23	22930.23
671.37	23028.53
671.51	22895.12
671.65	22593.19
671.79	22974.70
671.93	22558.08
672.07	22632.98
672.21	22436.38
672.35	22497.23
672.49	22427.01
672.63	22272.54
672.77	22279.56
672.91	22590.85
673.05	22228.07
673.19	22352.12
673.33	22309.99
673.47	22183.60
673.61	22178.92
673.75	22157.85
673.89	22167.21
674.03	22003.38
674.17	22104.02
674.31	22017.42
674.45	22059.55
674.59	21963.59
674.73	21909.75
674.87	21713.15
675.01	21811.45
675.15	21755.28
675.29	21607.83
675.43	21507.18
675.56	21476.76
675.70	22052.53
675.84	21479.10
675.98	20872.90
676.12	21460.37
676.26	21563.36
676.40	21451.01
676.54	21277.81
676.68	21235.68
676.82	20655.23
676.96	21177.17
677.10	20952.48
677.23	20655.23
677.37	20577.99
677.51	20812.04
677.65	20552.24
677.79	20500.75
677.93	20292.44
678.07	20336.91
678.21	20772.25
678.34	20554.58
678.48	20510.11
678.62	20376.70
678.76	20212.87
678.90	20058.39
679.04	20243.29
679.18	20294.79
679.31	20091.16
679.45	19948.39
679.59	19906.26
679.73	19941.36
679.87	20006.90
680.00	19520.07
680.14	19807.95
680.28	19616.03
680.42	19454.53
680.56	19681.56
680.70	19728.38
680.83	19534.11
680.97	19180.69
681.11	19295.38
681.25	19222.82
681.39	19260.27
681.52	19337.51
681.66	19047.28
681.80	19063.66
681.94	19033.24
682.07	19117.50
682.21	18768.76
682.35	18808.54
682.49	18698.54
682.62	18611.94
682.76	18682.16
682.90	18799.18
683.04	18532.36
683.17	18911.53
683.31	18637.69
683.45	18464.49
683.59	18274.90
683.72	18298.31
683.86	18078.30
684.00	18684.50
684.13	17947.23
684.27	17891.06
684.41	18073.62
684.55	17647.64
684.68	17706.15
684.82	17752.96
684.96	17813.82
685.09	17799.77
685.23	17619.55
685.37	17612.53
685.50	17970.63
685.64	17542.32
685.78	17589.13
685.91	17572.74
686.05	17830.20
686.19	17308.26
686.32	17380.82
686.46	17078.89
686.60	17156.13
686.73	17025.06
686.87	16748.87
687.01	17139.74
687.14	16643.55
687.28	16662.27
687.42	16805.05
687.55	16514.82
687.69	16449.28
687.82	16545.25
687.96	16704.40
688.10	16510.14
688.23	16910.37
688.37	16482.05
688.50	16458.65
688.64	16060.76
688.78	16285.45
688.91	16142.67
689.05	16369.71
689.18	16114.59
689.32	15697.97
689.46	15859.47
689.59	15999.90
689.73	15669.89
689.86	15606.69
690.00	15585.63
690.13	15875.85
690.27	15662.86
690.41	15606.69
690.54	15580.95
690.68	15660.52
690.81	15241.57
690.95	15611.37
691.08	15576.27
691.22	15417.11
691.35	15267.31
691.49	15283.70
691.62	15267.31
691.76	15281.36
691.89	14745.38
692.03	14766.44
692.16	15019.22
692.30	14864.74
692.43	14743.03
692.57	14820.27
692.70	14583.88
692.84	14761.76
692.97	14766.44
693.11	14600.26
693.24	14326.42
693.38	14581.54
693.51	14295.99
693.65	14361.53
693.78	14188.33
693.92	14183.65
694.05	14253.86
694.19	13853.63
694.32	14047.90
694.45	14136.84
694.59	13818.52
694.72	13884.06
694.86	13642.98
694.99	13621.92
695.13	13460.42
695.26	13586.81
695.39	13582.13
695.53	13612.56
695.66	13465.10
695.80	13380.84
695.93	13619.58
696.07	13647.66
696.20	13390.20
696.33	13493.19
696.47	13235.73
696.60	13472.12
696.73	13387.86
696.87	13048.49
697.00	13064.87
697.14	12847.20
697.27	12655.28
697.40	12503.14
697.54	12872.95
697.67	12695.07
697.80	12648.26
697.94	12358.03
698.07	12468.03
698.21	12379.09
698.34	12568.68
698.47	12355.69
698.61	12280.79
698.74	12545.27
698.87	12400.16
699.01	12170.79
699.14	12353.35
699.27	12156.74
699.40	12116.95
699.54	12058.44
699.67	11843.11
699.80	12020.99
699.94	11768.21
700.07	11653.53
700.20	11871.20
700.34	11641.82
700.47	11665.23
700.60	11742.47
700.73	11693.32
700.87	11562.25
701.00	11564.59
701.13	11466.28
701.26	11412.45
701.40	11571.61
701.53	11583.31
701.66	11297.77
701.79	11382.03
701.93	11084.78
702.06	11091.80
702.19	11126.91
702.32	10766.46
702.46	10846.04
702.59	10993.50
702.72	10724.33
702.85	10874.13
702.99	10661.14
703.12	10785.19
703.25	10768.80
703.38	10583.90
703.51	10565.18
703.65	10609.65
703.78	10450.49
703.91	10455.17
704.04	10626.03
704.17	10436.45
704.31	10281.97
704.44	10359.21
704.57	10274.95
704.70	10129.84
704.83	10214.10
704.96	10108.77
705.10	9963.66
705.23	10043.24
>>>>>End Processed Spectral Data<<<<<
