SpectraSuite Data File
++++++++++++++++++++++++++++++++++++
Date: Fri Oct 18 13:57:57 GMT-05:00 2013
User: bianchi
Dark Spectrum Present: No
Reference Spectrum Present: No
Number of Sampled Component Spectra: 1
Spectrometers: USB2+H05261
Integration Time (usec): 50000 (USB2+H05261)
Spectra Averaged: 1 (USB2+H05261)
Boxcar Smoothing: 0 (USB2+H05261)
Correct for Electrical Dark: No (USB2+H05261)
Strobe/Lamp Enabled: No (USB2+H05261)
Correct for Detector Non-linearity: No (USB2+H05261)
Correct for Stray Light: No (USB2+H05261)
Number of Pixels in Processed Spectrum: 2048
>>>>>Begin Processed Spectral Data<<<<<
365.73	0.00
365.92	0.00
366.12	0.00
366.32	0.00
366.52	0.00
366.72	0.00
366.91	0.00
367.11	0.00
367.31	0.00
367.51	0.00
367.70	0.00
367.90	0.00
368.10	0.00
368.30	0.00
368.49	0.00
368.69	0.00
368.89	0.00
369.09	0.00
369.28	0.00
369.48	0.00
369.68	0.00
369.87	0.00
370.07	0.00
370.27	0.00
370.47	0.00
370.66	7.02
370.86	60.85
371.06	93.62
371.25	81.92
371.45	156.82
371.65	177.88
371.84	126.39
372.04	131.07
372.24	149.79
372.44	147.45
372.63	210.65
372.83	241.08
373.03	215.33
373.22	161.50
373.42	175.54
373.62	217.67
373.81	210.65
374.01	292.57
374.21	243.42
374.40	203.63
374.60	220.01
374.79	208.31
374.99	238.73
375.19	283.20
375.38	248.10
375.58	301.93
375.78	236.39
375.97	191.92
376.17	280.86
376.37	304.27
376.56	285.55
376.76	290.23
376.95	313.63
377.15	278.52
377.35	322.99
377.54	238.73
377.74	238.73
377.93	271.50
378.13	294.91
378.33	332.36
378.52	311.29
378.72	245.76
378.91	297.25
379.11	257.46
379.31	273.84
379.50	250.44
379.70	341.72
379.89	355.76
380.09	297.25
380.28	248.10
380.48	276.18
380.68	327.68
380.87	322.99
381.07	383.85
381.26	334.70
381.46	362.78
381.65	348.74
381.85	280.86
382.04	315.97
382.24	236.39
382.43	299.59
382.63	325.33
382.83	313.63
383.02	355.76
383.22	369.80
383.41	353.42
383.61	365.12
383.80	402.57
384.00	379.17
384.19	320.65
384.39	388.53
384.58	423.64
384.78	409.59
384.97	320.65
385.17	444.70
385.36	407.25
385.56	484.49
385.75	437.68
385.95	456.40
386.14	365.12
386.34	423.64
386.53	381.51
386.72	428.32
386.92	472.79
387.11	458.74
387.31	402.57
387.50	360.44
387.70	517.26
387.89	477.47
388.09	486.83
388.28	533.64
388.48	454.06
388.67	404.91
388.86	416.62
389.06	447.04
389.25	437.68
389.45	491.51
389.64	454.06
389.84	449.38
390.03	449.38
390.22	503.22
390.42	484.49
390.61	404.91
390.81	454.06
391.00	554.71
391.19	538.32
391.39	479.81
391.58	519.60
391.78	521.94
391.97	550.03
392.16	510.24
392.36	585.13
392.55	498.53
392.75	608.54
392.94	585.13
393.13	568.75
393.33	566.41
393.52	582.79
393.71	587.47
393.91	594.50
394.10	592.16
394.29	491.51
394.49	592.16
394.68	543.00
394.88	599.18
395.07	758.33
395.26	587.47
395.46	580.45
395.65	641.31
395.84	688.12
396.04	662.37
396.23	671.73
396.42	641.31
396.62	699.82
396.81	716.20
397.00	725.57
397.19	657.69
397.39	620.24
397.58	744.29
397.77	706.84
397.97	732.59
398.16	685.78
398.35	734.93
398.55	741.95
398.74	690.46
398.93	758.33
399.12	720.88
399.32	720.88
399.51	753.65
399.70	791.10
399.90	758.33
400.09	777.06
400.28	741.95
400.47	760.67
400.67	786.42
400.86	809.83
401.05	830.89
401.24	866.00
401.44	812.17
401.63	837.91
401.82	861.32
402.01	880.04
402.21	826.21
402.40	894.08
402.59	903.45
402.78	866.00
402.97	938.55
403.17	851.96
403.36	847.27
403.55	826.21
403.74	992.39
403.93	924.51
404.13	849.61
404.32	910.47
404.51	884.72
404.70	1006.43
404.89	910.47
405.09	1039.20
405.28	929.19
405.47	912.81
405.66	938.55
405.85	1069.62
406.05	947.92
406.24	973.66
406.43	1004.09
406.62	1013.45
406.81	1046.22
407.00	1046.22
407.20	1025.15
407.39	1041.54
407.58	1064.94
407.77	1060.26
407.96	1130.48
408.15	1100.05
408.34	1015.79
408.54	1114.10
408.73	1064.94
408.92	1151.54
409.11	1196.01
409.30	1167.93
409.49	1125.80
409.68	1160.91
409.87	1064.94
410.07	1214.74
410.26	1238.14
410.45	1214.74
410.64	1139.84
410.83	1348.15
411.02	1266.23
411.21	1219.42
411.40	1261.55
411.59	1296.66
411.78	1324.74
411.98	1313.04
412.17	1385.60
412.36	1399.64
412.55	1282.61
412.74	1287.29
412.93	1418.36
413.12	1357.51
413.31	1542.41
413.50	1343.47
413.69	1507.30
413.88	1462.83
414.07	1516.67
414.26	1430.07
414.45	1528.37
414.64	1540.07
414.83	1565.82
415.02	1537.73
415.22	1500.28
415.41	1565.82
415.60	1570.50
415.79	1558.80
415.98	1598.59
416.17	1626.67
416.36	1664.12
416.55	1540.07
416.74	1696.89
416.93	1694.55
417.12	1696.89
417.31	1699.23
417.50	1734.34
417.69	1771.79
417.88	1832.64
418.07	1750.72
418.26	1720.29
418.45	1837.32
418.64	1902.86
418.83	1743.70
419.02	1872.43
419.21	1799.87
419.39	1921.58
419.58	1867.75
419.77	1811.57
419.96	1799.87
420.15	1919.24
420.34	1781.15
420.53	1886.47
420.72	1900.52
420.91	1914.56
421.10	2005.84
421.29	1977.75
421.48	1937.96
421.67	1944.99
421.86	1954.35
422.05	1961.37
422.24	2001.16
422.43	2003.50
422.61	1994.14
422.80	2040.95
422.99	2038.61
423.18	1982.43
423.37	2139.25
423.56	2150.95
423.75	1916.90
423.94	2045.63
424.13	1944.99
424.32	2010.52
424.50	2040.95
424.69	2195.42
424.88	2165.00
425.07	2127.55
425.26	2071.37
425.45	2111.16
425.64	2139.25
425.83	2197.76
426.01	2024.56
426.20	2097.12
426.39	2183.72
426.58	2076.06
426.77	2160.31
426.96	2080.74
427.15	2139.25
427.33	2183.72
427.52	2073.71
427.71	2270.32
427.90	2094.78
428.09	2111.16
428.28	2146.27
428.46	2239.89
428.65	2289.04
428.84	2277.34
429.03	2207.13
429.22	2251.60
429.40	2197.76
429.59	2366.28
429.78	2249.25
429.97	2139.25
430.16	2263.30
430.34	2342.88
430.53	2417.77
430.72	2349.90
430.91	2251.60
431.10	2429.48
431.28	2495.01
431.47	2260.96
431.66	2373.30
431.85	2420.11
432.03	2567.57
432.22	2534.80
432.41	2495.01
432.60	2480.97
432.79	2476.29
432.97	2544.16
433.16	2537.14
433.35	2534.80
433.54	2595.65
433.72	2492.67
433.91	2698.64
434.10	2534.80
434.28	2576.93
434.47	2555.86
434.66	2647.15
434.85	2642.46
435.03	2740.77
435.22	2705.66
435.41	2698.64
435.59	2747.79
435.78	2789.92
435.97	2696.30
436.16	2705.66
436.34	2731.41
436.53	2799.28
436.72	2799.28
436.90	2757.15
437.09	2684.59
437.28	2635.44
437.46	2815.66
437.65	2867.16
437.84	2841.41
438.02	2895.24
438.21	2850.77
438.40	2867.16
438.58	3009.93
438.77	2963.12
438.96	3016.95
439.14	2979.50
439.33	3007.59
439.52	3075.46
439.70	3028.65
439.89	3150.36
440.08	3138.66
440.26	3243.98
440.45	3052.06
440.63	3138.66
440.82	3143.34
441.01	3187.81
441.19	3169.09
441.38	3255.69
441.57	3204.19
441.75	3258.03
441.94	3389.10
442.12	3297.81
442.31	3276.75
442.50	3234.62
442.68	3290.79
442.87	3358.67
443.05	3412.50
443.24	3417.18
443.43	3611.45
443.61	3389.10
443.80	3588.04
443.98	3459.31
444.17	3344.63
444.35	3417.18
444.54	3522.51
444.73	3566.98
444.91	3506.12
445.10	3496.76
445.28	3494.42
445.47	3520.17
445.65	3489.74
445.84	3632.51
446.02	3611.45
446.21	3389.10
446.39	3438.25
446.58	3616.13
446.77	3660.60
446.95	3496.76
447.14	3562.30
447.32	3623.15
447.51	3517.83
447.69	3681.66
447.88	3609.11
448.06	3571.66
448.25	3599.74
448.43	3662.94
448.62	3620.81
448.80	3623.15
448.99	3627.83
449.17	3768.26
449.36	3531.87
449.54	3770.60
449.73	3936.78
449.91	3763.58
450.10	3714.43
450.28	3829.12
450.46	3784.65
450.65	3812.73
450.83	3735.50
451.02	3824.44
451.20	3772.94
451.39	3768.26
451.57	3815.07
451.76	3714.43
451.94	3836.14
452.13	4070.19
452.31	3873.59
452.49	3864.22
452.68	4131.05
452.86	3868.91
453.05	3969.55
453.23	4065.51
453.42	3894.65
453.60	3784.65
453.78	4133.39
453.97	3953.16
454.15	3974.23
454.34	3822.09
454.52	3934.44
454.70	4088.92
454.89	4044.45
455.07	4084.23
455.26	4339.35
455.44	4152.11
455.62	4152.11
455.81	4060.83
455.99	4238.71
456.17	4269.14
456.36	4283.18
456.54	4196.58
456.73	4212.96
456.91	4397.87
457.09	4437.66
457.28	4418.93
457.46	4465.74
457.64	4400.21
457.83	4365.10
458.01	4428.29
458.19	4550.00
458.38	4421.27
458.56	4627.24
458.74	4491.49
458.93	4477.44
459.11	4585.11
459.29	4482.13
459.48	4734.90
459.66	4634.26
459.84	4713.84
460.03	4751.29
460.21	4709.16
460.39	4578.09
460.57	4535.96
460.76	4695.11
460.94	4856.61
461.12	4702.14
461.31	4746.61
461.49	4681.07
461.67	4746.61
461.85	4880.02
462.04	4770.01
462.22	5036.83
462.40	4828.53
462.59	5029.81
462.77	4950.23
462.95	4837.89
463.13	4849.59
463.32	4865.97
463.50	5064.92
463.68	4905.76
463.86	5083.64
464.05	4891.72
464.23	4952.57
464.41	4931.51
464.59	4938.53
464.78	4997.04
464.96	4983.00
465.14	4983.00
465.32	5018.11
465.50	5121.09
465.69	5156.20
465.87	5221.74
466.05	5191.31
466.23	5107.05
466.41	5006.41
466.60	5284.93
466.78	5114.07
466.96	5074.28
467.14	5163.22
467.32	5107.05
467.51	5217.05
467.69	5146.84
467.87	5303.65
468.05	5188.97
468.23	5095.35
468.41	5401.96
468.60	5362.17
468.78	5259.18
468.96	5315.36
469.14	5254.50
469.32	5448.77
469.50	5371.53
469.69	5530.69
469.87	5423.02
470.05	5518.98
470.23	5610.26
470.41	5568.13
470.59	5671.12
470.77	5507.28
470.95	5547.07
471.14	5689.84
471.32	5596.22
471.50	5830.27
471.68	5856.02
471.86	5692.18
472.04	5799.85
472.22	5834.96
472.40	5699.20
472.58	5844.32
472.77	5818.57
472.95	6005.81
473.13	6179.01
473.31	5907.51
473.49	5956.66
473.67	5881.77
473.85	5956.66
474.03	6038.58
474.21	6087.73
474.39	6120.50
474.57	6223.48
474.75	6293.70
474.93	6359.24
475.12	6310.08
475.30	6214.12
475.48	6424.77
475.66	6427.11
475.84	6377.96
476.02	6544.14
476.20	6434.13
476.38	6565.20
476.56	6675.21
476.74	6808.62
476.92	6738.40
477.10	6815.64
477.28	6848.41
477.46	6803.94
477.64	6946.71
477.82	6794.58
478.00	7082.46
478.18	7075.44
478.36	7052.03
478.54	7232.26
478.72	7286.09
478.90	7234.60
479.08	7150.34
479.26	7276.73
479.44	7651.21
479.62	7520.14
479.80	7740.15
479.98	7571.63
480.16	7768.24
480.34	7597.38
480.52	7686.32
480.70	7880.58
480.88	7838.45
481.06	7878.24
481.24	7871.22
481.41	7981.23
481.59	7957.82
481.77	8152.09
481.95	8030.38
482.13	8280.82
482.31	8322.94
482.49	8355.71
482.67	8613.17
482.85	8510.19
483.03	8737.22
483.21	8681.05
483.39	8741.90
483.57	8835.52
483.74	8982.98
483.92	8936.17
484.10	8851.91
484.28	9275.54
484.46	9137.45
484.64	9366.82
484.82	9287.25
485.00	9399.59
485.18	9582.15
485.35	9619.60
485.53	9757.69
485.71	9687.48
485.89	9919.19
486.07	9823.23
486.25	9879.40
486.43	9944.94
486.61	9958.98
486.78	9984.73
486.96	10174.31
487.14	10293.68
487.32	10445.81
487.50	10331.12
487.68	10342.83
487.85	10567.52
488.03	10843.70
488.21	10616.67
488.39	10920.94
488.57	10761.78
488.75	11136.27
488.92	10946.69
489.10	11328.19
489.28	11255.64
489.46	11454.58
489.64	11199.46
489.81	11637.14
489.99	11660.55
490.17	11758.85
490.35	11768.21
490.53	11754.17
490.70	11885.24
490.88	11985.88
491.06	12077.16
491.24	12006.95
491.41	12084.19
491.59	12280.79
491.77	12327.60
491.95	12437.61
492.13	12475.06
492.30	12414.20
492.48	12559.31
492.66	12566.34
492.84	12720.81
493.01	12894.01
493.19	12858.90
493.37	13067.21
493.54	13004.02
493.72	12865.92
493.90	13111.68
494.08	13132.75
494.25	13273.18
494.43	13451.06
494.61	13661.71
494.79	13621.92
494.96	13357.44
495.14	13870.01
495.32	13870.01
495.49	14052.58
495.67	14040.87
495.85	14291.31
496.02	13991.72
496.20	14143.86
496.38	14413.02
496.55	14492.60
496.73	14349.82
496.91	14513.66
497.09	14597.92
497.26	14574.52
497.44	14771.12
497.62	14834.32
497.79	14906.87
497.97	14906.87
498.14	15044.96
498.32	15300.08
498.50	15353.91
498.67	15527.11
498.85	15037.94
499.03	15412.43
499.20	15337.53
499.38	15426.47
499.56	15276.68
499.73	15861.81
499.91	15667.55
500.08	15976.50
500.26	15688.61
500.44	15758.83
500.61	15999.90
500.79	15646.48
500.97	16091.18
501.14	16065.44
501.32	16320.56
501.49	16215.23
501.67	16112.25
501.84	16217.57
502.02	16407.16
502.20	16444.60
502.37	16629.51
502.55	16599.08
502.72	16657.59
502.90	16589.72
503.07	16812.07
503.25	16849.52
503.43	16563.97
503.60	17013.35
503.78	16821.43
503.95	16926.75
504.13	16896.33
504.30	17076.55
504.48	17085.91
504.65	17156.13
504.83	17355.07
505.01	17383.16
505.18	17530.61
505.36	17731.90
505.53	17336.35
505.71	17221.66
505.88	17743.60
506.06	17584.44
506.23	17820.84
506.41	18125.11
506.58	17926.16
506.76	17668.70
506.93	17855.95
507.11	17767.01
507.28	17909.78
507.46	18024.47
507.63	18008.08
507.81	18153.20
507.98	18188.30
508.16	17991.70
508.33	18412.99
508.50	18443.42
508.68	18457.46
508.85	18565.13
509.03	18394.27
509.20	18611.94
509.38	18792.16
509.55	19044.94
509.73	18841.31
509.90	18689.18
510.08	18574.49
510.25	18911.53
510.42	18878.76
510.60	19077.71
510.77	18895.14
510.95	19445.17
511.12	18792.16
511.30	19194.73
511.47	19468.58
511.64	19321.12
511.82	19283.67
511.99	19307.08
512.17	19550.49
512.34	19562.20
512.51	19772.85
512.69	19522.41
512.86	19651.14
513.04	19974.13
513.21	19854.76
513.38	19927.32
513.56	20065.41
513.73	20058.39
513.90	19866.47
514.08	19899.23
514.25	19864.13
514.43	20198.82
514.60	20098.18
514.77	20262.02
514.95	20512.46
515.12	20269.04
515.29	20418.83
515.47	20826.09
515.64	20540.54
515.81	20805.02
515.99	20816.72
516.16	20954.82
516.33	20577.99
516.51	20807.36
516.68	20673.95
516.85	20992.26
517.03	21074.18
517.20	21170.15
517.37	21310.58
517.54	21303.56
517.72	21577.40
517.89	20908.01
518.06	20877.58
518.24	21460.37
518.41	20975.88
518.58	21256.75
518.75	20987.58
518.93	21738.90
519.10	21418.24
519.27	21631.23
519.45	21191.21
519.62	21610.17
519.79	21301.22
519.96	21675.70
520.14	22223.39
520.31	21490.80
520.48	21752.94
520.65	21970.61
520.83	21642.93
521.00	22078.27
521.17	21862.94
521.34	22167.21
521.52	22253.81
521.69	21792.73
521.86	22422.33
522.03	22274.88
522.20	22382.54
522.38	22497.23
522.55	22464.46
522.72	22038.48
522.89	22483.19
523.07	22773.41
523.24	22340.41
523.41	22740.64
523.58	22464.46
523.75	22705.54
523.92	22670.43
524.10	22499.57
524.27	22979.38
524.44	22827.24
524.61	23094.07
524.78	23138.54
524.96	23084.70
525.13	23192.37
525.30	23304.71
525.47	23044.91
525.64	23049.60
525.81	23178.33
525.98	23218.11
526.16	23592.60
526.33	23351.52
526.50	23667.50
526.67	23250.88
526.84	23255.56
527.01	23470.89
527.18	23396.00
527.36	23625.37
527.53	23503.66
527.70	23803.25
527.87	24095.82
528.04	23751.76
528.21	23850.06
528.38	23821.97
528.55	23990.49
528.72	23875.80
528.89	23805.59
529.07	24095.82
529.24	23796.23
529.41	24318.17
529.58	24159.01
529.75	24065.39
529.92	24311.14
530.09	24304.12
530.26	24187.10
530.43	24086.45
530.60	24362.64
530.77	24507.75
530.94	24428.17
531.11	24269.01
531.28	24477.32
531.46	24355.61
531.63	24512.43
531.80	24437.53
531.97	24575.62
532.14	24732.44
532.31	24664.57
532.48	24657.54
532.65	24182.42
532.82	24566.26
532.99	24732.44
533.16	24884.58
533.33	24840.11
533.50	25177.14
533.67	24861.17
533.84	24627.12
534.01	24999.26
534.18	25046.07
534.35	24884.58
534.52	25179.48
534.69	25411.20
534.86	25315.23
535.03	25453.33
535.20	25455.67
535.37	25158.42
535.54	25350.34
535.71	25352.68
535.88	25479.07
536.05	25586.74
536.22	25411.20
536.38	25610.14
536.55	25778.66
536.72	25589.08
536.89	25392.47
537.06	25549.29
537.23	26094.63
537.40	25708.44
537.57	25970.58
537.74	25834.83
537.91	25951.86
538.08	26176.55
538.25	25553.97
538.42	26040.80
538.59	25979.95
538.75	25788.02
538.92	25645.25
539.09	25759.94
539.26	25972.92
539.43	25869.94
539.60	26244.43
539.77	26120.38
539.94	26136.76
540.11	25954.20
540.28	26197.62
540.44	26206.98
540.61	25940.16
540.78	26288.90
540.95	26171.87
541.12	26209.32
541.29	26361.45
541.46	26450.39
541.62	26375.50
541.79	26216.34
541.96	26146.12
542.13	26312.30
542.30	26689.13
542.47	26684.45
542.63	26869.35
542.80	27285.97
542.97	27129.15
543.14	27084.68
543.31	27061.27
543.48	26855.31
543.64	27218.09
543.81	27009.78
543.98	27187.66
544.15	27274.26
544.32	27239.15
544.48	27728.33
544.65	27171.28
544.82	27166.60
544.99	26930.20
545.16	27267.24
545.32	27173.62
545.49	27323.41
545.66	27772.80
545.83	27723.65
546.00	27618.32
546.16	27358.52
546.33	27613.64
546.50	27239.15
546.67	27651.09
546.83	27414.69
547.00	27555.13
547.17	27723.65
547.34	27931.95
547.50	27758.75
547.67	27747.05
547.84	27807.90
548.00	27838.33
548.17	27999.83
548.34	27803.22
548.51	27871.10
548.67	28119.20
548.84	27861.74
549.01	27807.90
549.18	28046.64
549.34	27768.12
549.51	28299.42
549.68	27978.76
549.84	28168.35
550.01	28224.52
550.18	28175.37
550.34	28170.69
550.51	28215.16
550.68	28184.73
550.84	28112.17
551.01	28383.68
551.18	27901.53
551.34	28123.88
551.51	28329.84
551.68	28325.16
551.84	28631.77
552.01	28442.19
552.18	28582.62
552.34	28489.00
552.51	28554.54
552.68	28306.44
552.84	28395.38
553.01	28767.52
553.18	28486.66
553.34	28652.84
553.51	28624.75
553.67	29006.26
553.84	28760.50
554.01	28744.12
554.17	28573.26
554.34	28680.92
554.51	28903.28
554.67	28631.77
554.84	29081.16
555.00	29003.92
555.17	28753.48
555.33	28788.59
555.50	29207.55
555.67	29097.54
555.83	28971.15
556.00	29039.03
556.16	29062.43
556.33	28966.47
556.50	28914.98
556.66	29294.14
556.83	29123.29
556.99	29404.15
557.16	29324.57
557.32	29230.95
557.49	29338.62
557.65	29289.46
557.82	28978.17
557.98	29256.70
558.15	29401.81
558.32	29240.31
558.48	29523.52
558.65	29500.11
558.81	29312.87
558.98	29628.84
559.14	29523.52
559.31	29120.95
559.47	29479.05
559.64	29404.15
559.80	29701.40
559.97	29495.43
560.13	29244.99
560.30	29085.84
560.46	29680.33
560.63	29294.14
560.79	29385.43
560.96	29743.53
561.12	29558.63
561.29	29343.30
561.45	29425.22
561.61	30071.20
561.78	29722.46
561.94	29743.53
562.11	29359.68
562.27	29706.08
562.44	29876.94
562.60	29605.44
562.77	29926.09
562.93	29469.69
563.10	29729.48
563.26	29923.75
563.42	30120.35
563.59	29535.22
563.75	29984.60
563.92	30132.06
564.08	29996.31
564.24	29869.92
564.41	29617.14
564.57	29729.48
564.74	29865.24
564.90	30087.59
565.07	29848.85
565.23	30015.03
565.39	29972.90
565.56	30143.76
565.72	30057.16
565.88	30094.61
566.05	30017.37
566.21	29834.81
566.38	30136.74
566.54	30000.99
566.70	29937.79
566.87	30148.44
567.03	30082.91
567.19	30319.30
567.36	29926.09
567.52	29874.60
567.68	30363.77
567.85	30078.22
568.01	30059.50
568.17	29898.00
568.34	30213.98
568.50	30267.81
568.66	30286.53
568.83	30059.50
568.99	30120.35
569.15	30452.71
569.32	29961.20
569.48	30286.53
569.64	30405.90
569.81	30242.06
569.97	30443.35
570.13	30389.52
570.30	30246.74
570.46	30539.31
570.62	30274.83
570.78	30115.67
570.95	30258.45
571.11	30576.76
571.27	30143.76
571.43	30209.29
571.60	30396.54
571.76	30253.76
571.92	30361.43
572.09	30340.36
572.25	30426.96
572.41	30396.54
572.57	30335.68
572.74	30356.75
572.90	30221.00
573.06	30483.14
573.22	30754.64
573.38	30389.52
573.55	30728.89
573.71	30756.98
573.87	30316.96
574.03	30396.54
574.20	30384.83
574.36	30522.93
574.52	30455.05
574.68	29998.65
574.84	30558.03
575.01	30494.84
575.17	30843.58
575.33	30293.55
575.49	30562.72
575.65	30801.45
575.82	30541.65
575.98	30480.80
576.14	30815.49
576.30	30658.68
576.46	30581.44
576.62	30162.48
576.79	30541.65
576.95	29993.97
577.11	30747.62
577.27	30799.11
577.43	30677.40
577.59	30778.04
577.75	30532.29
577.92	30689.10
578.08	30363.77
578.24	30431.65
578.40	30476.12
578.56	30574.42
578.72	30948.90
578.88	30953.58
579.04	31173.60
579.21	30817.83
579.37	30551.01
579.53	30661.02
579.69	30471.43
579.85	30796.77
580.01	31035.50
580.17	30787.41
580.33	30813.15
580.49	30567.40
580.65	31007.42
580.82	31058.91
580.98	30562.72
581.14	30881.03
581.30	30789.75
581.46	30569.74
581.62	30405.90
581.78	30368.45
581.94	30534.63
582.10	30691.44
582.26	30731.23
582.42	30738.26
582.58	30668.04
582.74	30700.81
582.90	31262.54
583.06	30859.96
583.22	30639.95
583.38	30553.35
583.54	30445.69
583.70	30787.41
583.86	30677.40
584.02	30642.29
584.18	30651.66
584.34	30934.86
584.50	30764.00
584.66	30995.71
584.82	30115.67
584.98	31084.65
585.14	30686.76
585.30	30464.41
585.46	30663.36
585.62	30665.70
585.78	30654.00
585.94	30583.78
586.10	30384.83
586.26	30925.50
586.42	31016.78
586.58	31257.85
586.74	30630.59
586.90	30712.51
587.06	30548.67
587.22	30939.54
587.38	30328.66
587.54	30756.98
587.70	31105.72
587.86	31147.85
588.02	31040.18
588.18	31182.96
588.34	31304.67
588.49	30876.35
588.65	30670.38
588.81	30906.77
588.97	30890.39
589.13	31005.08
589.29	30904.43
589.45	31426.37
589.61	31026.14
589.77	31370.20
589.93	31274.24
590.08	30941.88
590.24	31222.75
590.40	30946.56
590.56	31346.79
590.72	31302.32
590.88	31199.34
591.04	30827.20
591.20	31246.15
591.35	31501.27
591.51	31447.44
591.67	31449.78
591.83	31592.55
591.99	31318.71
592.15	30960.61
592.31	31278.92
592.46	31061.25
592.62	30838.90
592.78	30597.82
592.94	31295.30
593.10	31358.50
593.26	31253.17
593.41	31161.89
593.57	31255.51
593.73	31019.12
593.89	31625.32
594.05	31426.37
594.20	31260.20
594.36	31332.75
594.52	31381.90
594.68	31117.42
594.84	30824.86
594.99	31175.94
595.15	31384.24
595.31	31552.76
595.47	31725.96
595.62	31442.76
595.78	31367.86
595.94	31585.53
596.10	31407.65
596.25	31189.98
596.41	31030.82
596.57	30792.09
596.73	31283.60
596.88	30981.67
597.04	31487.23
597.20	31512.97
597.36	31592.55
597.51	31737.66
597.67	31487.23
597.83	31388.92
597.99	31749.37
598.14	31257.85
598.30	31484.89
598.46	31477.86
598.61	31166.57
598.77	31192.32
598.93	31578.51
599.09	31641.70
599.24	32105.13
599.40	31929.59
599.56	31803.20
599.71	31601.91
599.87	31332.75
600.03	31512.97
600.18	31442.76
600.34	31250.83
600.50	31154.87
600.65	31412.33
600.81	31491.91
600.97	31651.06
601.12	31693.19
601.28	31351.48
601.44	31445.10
601.59	31667.45
601.75	31321.05
601.91	31821.92
602.06	31728.30
602.22	31777.45
602.37	31311.69
602.53	31314.03
602.69	31578.51
602.84	31449.78
603.00	31906.18
603.16	31519.99
603.31	31337.43
603.47	31391.26
603.62	31269.56
603.78	31524.68
603.94	31328.07
604.09	31412.33
604.25	31524.68
604.40	31512.97
604.56	31517.65
604.71	31828.95
604.87	31344.45
605.03	31566.81
605.18	31377.22
605.34	31744.69
605.49	31559.78
605.65	31452.12
605.80	30927.84
605.96	31019.12
606.12	31239.13
606.27	31566.81
606.43	31438.08
606.58	31536.38
606.74	31157.21
606.89	31433.39
607.05	31470.84
607.20	31524.68
607.36	31377.22
607.51	31356.16
607.67	31161.89
607.82	30906.77
607.98	31154.87
608.13	31503.61
608.29	31365.52
608.44	31384.24
608.60	31438.08
608.75	31573.83
608.91	31522.34
609.06	31147.85
609.22	31150.19
609.37	30684.42
609.53	31405.31
609.68	31154.87
609.84	31159.55
609.99	31007.42
610.15	31096.36
610.30	30998.06
610.46	31033.16
610.61	31171.25
610.76	31173.60
610.92	31295.30
611.07	30930.18
611.23	30923.16
611.38	30874.01
611.54	30897.41
611.69	30972.31
611.84	31021.46
612.00	30845.92
612.15	30923.16
612.31	30843.58
612.46	30787.41
612.62	30995.71
612.77	31178.28
612.92	31094.02
613.08	30981.67
613.23	31290.62
613.39	30700.81
613.54	30504.20
613.69	30820.17
613.85	30696.13
614.00	30686.76
614.15	31012.10
614.31	31253.17
614.46	30700.81
614.62	31145.51
614.77	30768.68
614.92	31110.40
615.08	30829.54
615.23	31044.87
615.38	30796.77
615.54	30635.27
615.69	30438.67
615.84	30654.00
616.00	30782.73
616.15	30686.76
616.30	30740.60
616.46	30803.79
616.61	31007.42
616.76	31185.30
616.92	30448.03
617.07	30221.00
617.22	30764.00
617.37	30504.20
617.53	30693.79
617.68	30487.82
617.83	30288.87
617.99	30752.30
618.14	30714.85
618.29	30345.05
618.45	30373.13
618.60	30546.33
618.75	30583.78
618.90	30546.33
619.06	30658.68
619.21	30536.97
619.36	30803.79
619.51	30195.25
619.67	29916.73
619.82	30607.19
619.97	30387.18
620.12	30202.27
620.28	29998.65
620.43	30164.82
620.58	30382.49
620.73	30518.25
620.89	30483.14
621.04	30628.25
621.19	30221.00
621.34	29846.51
621.49	30223.34
621.65	30295.89
621.80	30092.27
621.95	29921.41
622.10	30122.69
622.25	30319.30
622.41	29694.38
622.56	30162.48
622.71	30185.89
622.86	30305.26
623.01	30244.40
623.16	29755.23
623.32	29659.27
623.47	29909.71
623.62	29778.64
623.77	29902.68
623.92	29727.14
624.07	29598.41
624.23	29986.94
624.38	29951.84
624.53	29666.29
624.68	30450.37
624.83	30302.92
624.98	29996.31
625.13	29799.70
625.29	29947.15
625.44	29872.26
625.59	29830.13
625.74	29848.85
625.89	29816.08
626.04	29294.14
626.19	29502.45
626.34	29816.08
626.49	29668.63
626.65	29717.78
626.80	29378.40
626.95	29631.18
627.10	29809.06
627.25	29443.94
627.40	29008.60
627.55	29504.79
627.70	29469.69
627.85	29303.51
628.00	29074.13
628.15	29214.57
628.30	28987.53
628.45	29439.26
628.60	29088.18
628.76	29055.41
628.91	29731.83
629.06	29525.86
629.21	29006.26
629.36	29455.64
629.51	29139.67
629.66	29371.38
629.81	29247.33
629.96	29085.84
630.11	28931.36
630.26	29116.26
630.41	29104.56
630.56	28783.91
630.71	29259.04
630.86	29017.96
631.01	29186.48
631.16	28982.85
631.31	29106.90
631.46	28690.29
631.61	29064.77
631.76	28893.91
631.91	29113.92
632.06	29219.25
632.21	28678.58
632.36	28900.94
632.51	28470.28
632.66	28397.72
632.81	28720.71
632.96	28584.96
633.10	29142.01
633.25	28697.31
633.40	28882.21
633.55	28659.86
633.70	28842.42
633.85	28329.84
634.00	28414.10
634.15	28489.00
634.30	28699.65
634.45	28573.26
634.60	28840.08
634.75	28407.08
634.90	28627.09
635.05	28898.59
635.19	28521.77
635.34	28629.43
635.49	28758.16
635.64	28973.49
635.79	28701.99
635.94	28500.70
636.09	28645.82
636.24	28439.85
636.39	28123.88
636.53	28643.48
636.68	27927.27
636.83	28109.83
636.98	28617.73
637.13	28147.28
637.28	28620.07
637.43	28313.46
637.57	28601.35
637.72	28659.86
637.87	28238.56
638.02	27740.03
638.17	28130.90
638.32	27974.08
638.46	28257.29
638.61	28154.30
638.76	27999.83
638.91	27763.43
639.06	27681.52
639.20	28177.71
639.35	28048.98
639.50	27927.27
639.65	28357.93
639.80	28116.86
639.94	27969.40
640.09	27957.70
640.24	28018.55
640.39	27899.19
640.54	27922.59
640.68	28196.43
640.83	27625.34
640.98	28107.49
641.13	27859.40
641.27	27995.15
641.42	28367.29
641.57	27690.88
641.72	27946.00
641.86	27721.30
642.01	27599.60
642.16	27660.45
642.31	27419.38
642.45	27583.21
642.60	27550.45
642.75	27580.87
642.90	27597.26
643.04	27632.36
643.19	27225.11
643.34	27690.88
643.48	27545.76
643.63	27527.04
643.78	27751.73
643.93	27534.06
644.07	27686.20
644.22	27592.58
644.37	27463.85
644.51	27597.26
644.66	27756.41
644.81	27384.27
644.95	27515.34
645.10	27290.65
645.25	26902.12
645.39	27344.48
645.54	27304.69
645.69	27513.00
645.83	27009.78
645.98	26904.46
646.13	27304.69
646.27	27271.92
646.42	27253.20
646.57	27424.06
646.71	27187.66
646.86	27084.68
647.00	27225.11
647.15	27197.02
647.30	27353.84
647.44	26766.37
647.59	27087.02
647.74	27023.83
647.88	27211.07
648.03	27285.97
648.17	27232.13
648.32	26955.95
648.47	27112.77
648.61	27152.55
648.76	27122.13
648.90	27321.07
649.05	26859.99
649.20	26529.97
649.34	27023.83
649.49	26707.85
649.63	26513.59
649.78	27061.27
649.92	26387.20
650.07	26703.17
650.21	26820.20
650.36	26773.39
650.51	26665.72
650.65	26768.71
650.80	26670.40
650.94	26611.89
651.09	26675.09
651.23	26719.56
651.38	26441.03
651.52	26394.22
651.67	26700.83
651.81	26787.43
651.96	26590.83
652.10	26497.20
652.25	26799.13
652.39	26944.25
652.54	26918.50
652.68	26799.13
652.83	26810.84
652.97	27023.83
653.12	26382.52
653.26	26345.07
653.41	26890.41
653.55	26654.02
653.70	26487.84
653.84	26066.55
653.99	26192.94
654.13	26183.57
654.27	26616.57
654.42	26288.90
654.56	26029.10
654.71	26754.66
654.85	26632.96
655.00	26515.93
655.14	26270.17
655.29	25923.77
655.43	26441.03
655.57	26176.55
655.72	26054.84
655.86	26331.03
656.01	26373.16
656.15	25783.34
656.30	26146.12
656.44	26338.05
656.58	25804.41
656.73	26099.31
656.87	26080.59
657.01	26111.02
657.16	25963.56
657.30	26466.78
657.45	26277.19
657.59	25963.56
657.73	25495.46
657.88	25837.17
658.02	25844.20
658.16	25750.57
658.31	25872.28
658.45	25720.15
658.60	25603.12
658.74	25549.29
658.88	25914.41
659.03	25706.10
659.17	25734.19
659.31	25914.41
659.46	25577.37
659.60	25785.68
659.74	25369.07
659.89	25369.07
660.03	25521.20
660.17	25715.47
660.32	25603.12
660.46	25364.39
660.60	25029.69
660.74	25348.00
660.89	25340.98
661.03	25055.43
661.17	25158.42
661.32	25207.57
661.46	25146.72
661.60	25333.96
661.74	25500.14
661.89	25214.59
662.03	25193.53
662.17	25212.25
662.31	25195.87
662.46	25050.75
662.60	24940.75
662.74	24961.81
662.88	24816.70
663.03	24521.79
663.17	24758.19
663.31	24716.06
663.45	24872.87
663.60	24664.57
663.74	24765.21
663.88	24561.58
664.02	24332.21
664.17	24725.42
664.31	24847.13
664.45	24716.06
664.59	24561.58
664.73	24505.41
664.88	24273.70
665.02	24313.48
665.16	24453.92
665.30	24425.83
665.44	24109.86
665.59	23924.96
665.73	24315.83
665.87	23814.95
666.01	24657.54
666.15	24049.00
666.29	24329.87
666.44	24018.58
666.58	24039.64
666.72	23833.68
666.86	24023.26
667.00	24182.42
667.14	23974.11
667.28	24039.64
667.43	23534.09
667.57	23639.41
667.71	23840.70
667.85	23630.05
667.99	23681.54
668.13	23630.05
668.27	23527.06
668.41	23899.21
668.56	23302.37
668.70	23555.15
668.84	23873.46
668.98	23463.87
669.12	23365.57
669.26	23763.46
669.40	23314.08
669.54	23321.10
669.68	23358.55
669.82	23278.97
669.96	22993.42
670.10	22963.00
670.25	23192.37
670.39	23197.05
670.53	22946.61
670.67	23084.70
670.81	22852.99
670.95	23232.16
671.09	23033.21
671.23	22843.63
671.37	23222.80
671.51	22803.84
671.65	23094.07
671.79	22590.85
671.93	22450.42
672.07	22738.30
672.21	22700.86
672.35	22457.44
672.49	22513.61
672.63	22647.02
672.77	22520.63
672.91	22455.10
673.05	22469.14
673.19	22368.50
673.33	22452.76
673.47	22286.58
673.61	22654.05
673.75	22436.38
673.89	21972.95
674.03	22546.38
674.17	22031.46
674.31	22001.04
674.45	21893.37
674.59	21963.59
674.73	21666.34
674.87	21715.49
675.01	22157.85
675.15	21509.52
675.29	21664.00
675.43	21631.23
675.56	21465.05
675.70	21467.39
675.84	21729.53
675.98	21029.71
676.12	21720.17
676.26	21582.08
676.40	21385.47
676.54	21406.54
676.68	21277.81
676.82	21095.25
676.96	21188.87
677.10	20926.73
677.23	21118.65
677.37	20673.95
677.51	20683.31
677.65	20622.46
677.79	20453.94
677.93	20769.91
678.07	20741.83
678.21	20306.49
678.34	20709.06
678.48	20561.61
678.62	20566.29
678.76	20184.78
678.90	20119.24
679.04	20425.86
679.18	20542.88
679.31	19995.20
679.45	19920.30
679.59	19768.16
679.73	19810.29
679.87	19779.87
680.00	19552.84
680.14	19805.61
680.28	19580.92
680.42	19784.55
680.56	19723.69
680.70	19571.56
680.83	19686.25
680.97	19580.92
681.11	19087.07
681.25	19475.60
681.39	19192.39
681.52	18995.79
681.66	19335.17
681.80	18707.90
681.94	18902.17
682.07	18902.17
682.21	18771.10
682.35	18848.33
682.49	18604.92
682.62	18665.77
682.76	18492.57
682.90	18853.02
683.04	18581.51
683.17	18743.01
683.31	18831.95
683.45	18738.33
683.59	18326.39
683.72	18523.00
683.86	18314.69
684.00	18092.34
684.13	18169.58
684.27	18228.09
684.41	17975.31
684.55	17933.18
684.68	17837.22
684.82	17720.20
684.96	17898.08
685.09	17556.36
685.23	17774.03
685.37	17736.58
685.50	17851.27
685.64	17865.31
685.78	17598.49
685.91	17715.51
686.05	17661.68
686.19	17614.87
686.32	17366.78
686.46	17097.61
686.60	16989.95
686.73	16819.09
686.87	16980.59
687.01	16870.58
687.14	17032.08
687.28	16980.59
687.42	16779.30
687.55	16704.40
687.69	16945.48
687.82	16503.12
687.96	16681.00
688.10	16629.51
688.23	16690.36
688.37	16685.68
688.50	16301.83
688.64	16294.81
688.78	16308.85
688.91	16037.35
689.05	16269.06
689.18	15920.32
689.32	15819.68
689.46	15896.92
689.59	15815.00
689.73	15854.79
689.86	15990.54
690.00	15819.68
690.13	15887.56
690.27	15520.09
690.41	15728.40
690.54	15517.75
690.68	15515.41
690.81	15726.06
690.95	15737.76
691.08	15583.29
691.22	15468.60
691.35	15370.30
691.49	15833.72
691.62	15309.44
691.76	15171.35
691.89	15140.93
692.03	14773.46
692.16	14757.08
692.30	14752.40
692.43	14621.33
692.57	15016.88
692.70	14670.48
692.84	14782.82
692.97	14490.26
693.11	14504.30
693.24	14427.06
693.38	14483.24
693.51	14153.22
693.65	14532.39
693.78	14249.18
693.92	14284.29
694.05	14338.12
694.19	14331.10
694.32	14115.77
694.45	13942.57
694.59	13848.95
694.72	13848.95
694.86	13891.08
694.99	13483.83
695.13	13788.10
695.26	13591.49
695.39	13509.57
695.53	13659.37
695.66	13631.28
695.80	13315.31
695.93	13724.90
696.07	13572.77
696.20	13659.37
696.33	13322.33
696.47	13041.46
696.60	13177.22
696.73	13109.34
696.87	13057.85
697.00	13305.95
697.14	12996.99
697.27	12669.32
697.40	12657.62
697.54	12685.70
697.67	12702.09
697.80	12791.03
697.94	12535.91
698.07	12524.21
698.21	12255.04
698.34	12458.67
698.47	12627.19
698.61	12411.86
698.74	12456.33
698.87	12290.15
699.01	12248.02
699.14	12219.94
699.27	12114.61
699.40	12138.02
699.54	12049.08
699.67	12025.67
699.80	12028.01
699.94	11566.93
700.07	11775.24
700.20	11679.27
700.34	11723.74
700.47	11562.25
700.60	11716.72
700.73	11688.64
700.87	11611.40
701.00	11508.41
701.13	11456.92
701.26	11555.22
701.40	11641.82
701.53	11370.32
701.66	11309.47
701.79	11407.77
701.93	11136.27
702.06	11023.92
702.19	10925.62
702.32	11049.67
702.46	10736.04
702.59	10717.31
702.72	10761.78
702.85	10670.50
702.99	10621.35
703.12	10656.46
703.25	10700.93
703.38	10682.20
703.51	10647.10
703.65	10530.07
703.78	10548.79
703.91	10326.44
704.04	10565.18
704.17	10354.53
704.31	10436.45
704.44	10267.93
704.57	10399.00
704.70	10169.63
704.83	10111.11
704.96	9996.43
705.10	9804.50
705.23	10033.88
>>>>>End Processed Spectral Data<<<<<
