SpectraSuite Data File
++++++++++++++++++++++++++++++++++++
Date: Fri Oct 18 13:58:25 GMT-05:00 2013
User: bianchi
Dark Spectrum Present: No
Reference Spectrum Present: No
Number of Sampled Component Spectra: 1
Spectrometers: USB2+H05261
Integration Time (usec): 50000 (USB2+H05261)
Spectra Averaged: 1 (USB2+H05261)
Boxcar Smoothing: 0 (USB2+H05261)
Correct for Electrical Dark: No (USB2+H05261)
Strobe/Lamp Enabled: No (USB2+H05261)
Correct for Detector Non-linearity: No (USB2+H05261)
Correct for Stray Light: No (USB2+H05261)
Number of Pixels in Processed Spectrum: 2048
>>>>>Begin Processed Spectral Data<<<<<
365.73	0.00
365.92	0.00
366.12	0.00
366.32	0.00
366.52	0.00
366.72	0.00
366.91	0.00
367.11	0.00
367.31	0.00
367.51	0.00
367.70	0.00
367.90	0.00
368.10	0.00
368.30	0.00
368.49	0.00
368.69	0.00
368.89	0.00
369.09	0.00
369.28	0.00
369.48	0.00
369.68	0.00
369.87	0.00
370.07	0.00
370.27	0.00
370.47	0.00
370.66	159.16
370.86	105.32
371.06	126.39
371.25	124.05
371.45	110.01
371.65	184.90
371.84	182.56
372.04	145.11
372.24	194.26
372.44	156.82
372.63	131.07
372.83	175.54
373.03	187.24
373.22	210.65
373.42	210.65
373.62	210.65
373.81	271.50
374.01	248.10
374.21	264.48
374.40	290.23
374.60	234.05
374.79	266.82
374.99	191.92
375.19	238.73
375.38	234.05
375.58	262.14
375.78	278.52
375.97	210.65
376.17	285.55
376.37	271.50
376.56	332.36
376.76	227.03
376.95	278.52
377.15	327.68
377.35	191.92
377.54	269.16
377.74	154.48
377.93	222.35
378.13	304.27
378.33	299.59
378.52	273.84
378.72	187.24
378.91	308.95
379.11	283.20
379.31	278.52
379.50	262.14
379.70	283.20
379.89	306.61
380.09	280.86
380.28	325.33
380.48	337.04
380.68	322.99
380.87	320.65
381.07	334.70
381.26	315.97
381.46	334.70
381.65	271.50
381.85	325.33
382.04	292.57
382.24	358.10
382.43	306.61
382.63	301.93
382.83	290.23
383.02	400.23
383.22	337.04
383.41	332.36
383.61	266.82
383.80	451.72
384.00	294.91
384.19	348.74
384.39	425.98
384.58	442.36
384.78	330.02
384.97	358.10
385.17	367.46
385.36	390.87
385.56	348.74
385.75	390.87
385.95	411.93
386.14	425.98
386.34	397.89
386.53	322.99
386.72	404.91
386.92	447.04
387.11	425.98
387.31	440.02
387.50	383.85
387.70	337.04
387.89	367.46
388.09	447.04
388.28	510.24
388.48	404.91
388.67	477.47
388.86	465.77
389.06	456.40
389.25	461.09
389.45	498.53
389.64	493.85
389.84	500.87
390.03	503.22
390.22	510.24
390.42	475.13
390.61	440.02
390.81	470.45
391.00	519.60
391.19	559.39
391.39	468.11
391.58	517.26
391.78	496.19
391.97	524.28
392.16	545.34
392.36	479.81
392.55	486.83
392.75	491.51
392.94	545.34
393.13	472.79
393.33	517.26
393.52	557.05
393.71	566.41
393.91	627.26
394.10	545.34
394.29	610.88
394.49	538.32
394.68	589.82
394.88	561.73
395.07	648.33
395.26	608.54
395.46	641.31
395.65	564.07
395.84	645.99
396.04	571.09
396.23	561.73
396.42	610.88
396.62	585.13
396.81	671.73
397.00	685.78
397.19	580.45
397.39	751.31
397.58	683.44
397.77	650.67
397.97	674.07
398.16	643.65
398.35	753.65
398.55	718.54
398.74	765.36
398.93	748.97
399.12	767.70
399.32	709.18
399.51	706.84
399.70	758.33
399.90	685.78
400.09	727.91
400.28	741.95
400.47	830.89
400.67	767.70
400.86	763.01
401.05	791.10
401.24	751.31
401.44	849.61
401.63	826.21
401.82	840.25
402.01	793.44
402.21	814.51
402.40	763.01
402.59	821.53
402.78	851.96
402.97	830.89
403.17	784.08
403.36	854.30
403.55	763.01
403.74	863.66
403.93	898.77
404.13	922.17
404.32	940.90
404.51	915.15
404.70	833.23
404.89	912.81
405.09	961.96
405.28	961.96
405.47	929.19
405.66	990.05
405.85	957.28
406.05	1022.81
406.24	1001.75
406.43	952.60
406.62	1057.92
406.81	1034.52
407.00	1022.81
407.20	1013.45
407.39	926.85
407.58	1006.43
407.77	1039.20
407.96	1022.81
408.15	1102.39
408.34	1081.33
408.54	1053.24
408.73	1067.28
408.92	1144.52
409.11	1177.29
409.30	1062.60
409.49	1156.22
409.68	1181.97
409.87	1144.52
410.07	1135.16
410.26	1144.52
410.45	1200.69
410.64	1142.18
410.83	1036.86
411.02	1191.33
411.21	1266.23
411.40	1306.02
411.59	1327.08
411.78	1240.48
411.98	1245.16
412.17	1341.13
412.36	1170.27
412.55	1282.61
412.74	1404.32
412.93	1369.21
413.12	1313.04
413.31	1327.08
413.50	1369.21
413.69	1385.60
413.88	1404.32
414.07	1383.26
414.26	1401.98
414.45	1392.62
414.64	1329.42
414.83	1542.41
415.02	1493.26
415.22	1575.18
415.41	1547.09
415.60	1432.41
415.79	1556.46
415.98	1547.09
416.17	1472.20
416.36	1533.05
416.55	1551.78
416.74	1554.12
416.93	1607.95
417.12	1640.72
417.31	1540.07
417.50	1643.06
417.69	1715.61
417.88	1640.72
418.07	1736.68
418.26	1727.32
418.45	1748.38
418.64	1795.19
418.83	1785.83
419.02	1764.76
419.21	1853.70
419.39	1757.74
419.58	1811.57
419.77	1750.72
419.96	1776.47
420.15	1905.20
420.34	1827.96
420.53	1923.92
420.72	1844.34
420.91	1886.47
421.10	1937.96
421.29	1886.47
421.48	1846.68
421.67	1996.48
421.86	1973.07
422.05	2043.29
422.24	2017.54
422.43	1937.96
422.61	1947.33
422.80	1959.03
422.99	2047.97
423.18	2050.31
423.37	1991.80
423.56	2155.63
423.75	1952.01
423.94	1919.24
424.13	1900.52
424.32	1949.67
424.50	1975.41
424.69	2036.27
424.88	2122.87
425.07	1933.28
425.26	2104.14
425.45	1989.46
425.64	1954.35
425.83	2092.44
426.01	2204.78
426.20	2097.12
426.39	2132.23
426.58	2022.22
426.77	2094.78
426.96	2090.10
427.15	2113.50
427.33	2181.38
427.52	2193.08
427.71	2129.89
427.90	2136.91
428.09	2120.53
428.28	2167.34
428.46	2150.95
428.65	2232.87
428.84	2211.81
429.03	2267.98
429.22	2370.96
429.40	2216.49
429.59	2267.98
429.78	2139.25
429.97	2165.00
430.16	2202.44
430.34	2265.64
430.53	2225.85
430.72	2265.64
430.91	2352.24
431.10	2221.17
431.28	2277.34
431.47	2321.81
431.66	2420.11
431.85	2286.70
432.03	2366.28
432.22	2431.82
432.41	2363.94
432.60	2485.65
432.79	2265.64
432.97	2459.90
433.16	2394.37
433.35	2586.29
433.54	2567.57
433.72	2600.34
433.91	2483.31
434.10	2399.05
434.28	2518.42
434.47	2457.56
434.66	2459.90
434.85	2635.44
435.03	2436.50
435.22	2513.74
435.41	2654.17
435.59	2647.15
435.78	2712.68
435.97	2640.12
436.16	2642.46
436.34	2614.38
436.53	2649.49
436.72	2647.15
436.90	2544.16
437.09	2682.25
437.28	2635.44
437.46	2696.30
437.65	2708.00
437.84	2773.53
438.02	2729.06
438.21	2771.19
438.40	2710.34
438.58	2920.99
438.77	2902.26
438.96	2913.97
439.14	2850.77
439.33	2953.76
439.52	3000.57
439.70	3019.29
439.89	2939.71
440.08	3084.83
440.26	2909.29
440.45	2953.76
440.63	3073.12
440.82	3119.93
441.01	3124.62
441.19	3159.72
441.38	3185.47
441.57	3236.96
441.75	3269.73
441.94	3194.83
442.12	3236.96
442.31	3372.71
442.50	3253.34
442.68	3318.88
442.87	3283.77
443.05	3403.14
443.24	3365.69
443.43	3337.60
443.61	3276.75
443.80	3454.63
443.98	3272.07
444.17	3344.63
444.35	3506.12
444.54	3440.59
444.73	3377.39
444.91	3461.65
445.10	3440.59
445.28	3375.05
445.47	3330.58
445.65	3351.65
445.84	3536.55
446.02	3426.54
446.21	3452.29
446.39	3531.87
446.58	3461.65
446.77	3494.42
446.95	3391.44
447.14	3386.76
447.32	3468.67
447.51	3461.65
447.69	3426.54
447.88	3548.25
448.06	3438.25
448.25	3456.97
448.43	3569.32
448.62	3606.77
448.80	3459.31
448.99	3550.59
449.17	3428.88
449.36	3604.42
449.54	3611.45
449.73	3585.70
449.91	3510.80
450.10	3517.83
450.28	3726.13
450.46	3660.60
450.65	3733.15
450.83	3859.54
451.02	3709.75
451.20	3908.69
451.39	3840.82
451.57	3618.47
451.76	3726.13
451.94	3885.29
452.13	3852.52
452.31	3824.44
452.49	3829.12
452.68	3882.95
452.86	3915.72
453.05	3796.35
453.23	3943.80
453.42	3920.40
453.60	3756.56
453.78	3885.29
453.97	3915.72
454.15	3882.95
454.34	3960.19
454.52	4056.15
454.70	3878.27
454.89	3934.44
455.07	3843.16
455.26	4147.43
455.44	4112.32
455.62	3995.29
455.81	4196.58
455.99	4009.34
456.17	4215.30
456.36	4154.45
456.54	4196.58
456.73	4203.60
456.91	4128.70
457.09	4276.16
457.28	4315.95
457.46	4170.83
457.64	4290.20
457.83	4374.46
458.01	4269.14
458.19	4510.21
458.38	4397.87
458.56	4367.44
458.74	4390.84
458.93	4505.53
459.11	4203.60
459.29	4383.82
459.48	4472.76
459.66	4484.47
459.84	4432.97
460.03	4596.81
460.21	4592.13
460.39	4528.94
460.57	4500.85
460.76	4561.70
460.94	4571.07
461.12	4571.07
461.31	4542.98
461.49	4526.60
461.67	4702.14
461.85	4844.91
462.04	4624.90
462.22	4622.56
462.40	4748.95
462.59	4678.73
462.77	4716.18
462.95	4819.16
463.13	4648.30
463.32	4720.86
463.50	4835.55
463.68	4748.95
463.86	4791.08
464.05	4720.86
464.23	4802.78
464.41	4826.18
464.59	4791.08
464.78	4957.25
464.96	4983.00
465.14	4678.73
465.32	4861.29
465.50	4985.34
465.69	4910.44
465.87	4943.21
466.05	5013.43
466.23	5004.07
466.41	5050.88
466.60	5219.39
466.78	4985.34
466.96	5018.11
467.14	5085.98
467.32	5074.28
467.51	5296.63
467.69	5039.17
467.87	5043.85
468.05	5057.90
468.23	5104.71
468.41	5104.71
468.60	5116.41
468.78	5242.80
468.96	5011.09
469.14	5221.74
469.32	5224.08
469.50	5132.79
469.69	5511.96
469.87	5329.40
470.05	5373.87
470.23	5327.06
470.41	5556.43
470.59	5385.57
470.77	5502.60
470.95	5554.09
471.14	5518.98
471.32	5437.06
471.50	5572.82
471.68	5425.36
471.86	5474.51
472.04	5694.52
472.22	5678.14
472.40	5565.79
472.58	5731.97
472.77	5614.95
472.95	5813.89
473.13	5856.02
473.31	5916.87
473.49	5738.99
473.67	5792.83
473.85	5940.28
474.03	6008.16
474.21	5949.64
474.39	5980.07
474.57	5846.66
474.75	5954.32
474.93	6193.06
475.12	6139.23
475.30	6260.93
475.48	6232.85
475.66	6235.19
475.84	6380.30
476.02	6319.45
476.20	6167.31
476.38	6478.60
476.56	6527.75
476.74	6548.82
476.92	6504.35
477.10	6448.18
477.28	6513.71
477.46	6476.26
477.64	6693.93
477.82	6612.01
478.00	6902.24
478.18	6787.55
478.36	6906.92
478.54	6970.12
478.72	6911.60
478.90	6939.69
479.08	7166.72
479.26	7318.86
479.44	7239.28
479.62	7382.05
479.80	7360.98
479.98	7454.61
480.16	7536.52
480.34	7419.50
480.52	7723.77
480.70	7447.58
480.88	7391.41
481.06	7620.78
481.24	7485.03
481.41	7922.71
481.59	7894.63
481.77	7887.61
481.95	8145.06
482.13	7962.50
482.31	8028.04
482.49	8081.87
482.67	8339.33
482.85	8259.75
483.03	8437.63
483.21	8575.72
483.39	8592.11
483.57	8617.85
483.74	8491.46
483.92	8573.38
484.10	8638.92
484.28	8858.93
484.46	8985.32
484.64	9088.30
484.82	8952.55
485.00	8809.78
485.18	9100.00
485.35	9268.52
485.53	9158.52
485.71	9380.87
485.89	9598.54
486.07	9343.42
486.25	9530.66
486.43	9612.58
486.61	9626.62
486.78	9525.98
486.96	9933.23
487.14	10052.60
487.32	10015.15
487.50	10064.30
487.68	10270.27
487.85	10139.20
488.03	10406.02
488.21	10787.53
488.39	10633.05
488.57	10626.03
488.75	10614.33
488.92	10670.50
489.10	10813.28
489.28	10937.32
489.46	11000.52
489.64	11087.12
489.81	11066.05
489.99	11152.65
490.17	11199.46
490.35	11283.72
490.53	11372.66
490.70	11585.65
490.88	11442.88
491.06	11618.42
491.24	11709.70
491.41	11962.48
491.59	11948.43
491.77	11969.50
491.95	12109.93
492.13	12065.46
492.30	12170.79
492.48	12224.62
492.66	12095.89
492.84	12360.37
493.01	12489.10
493.19	12484.42
493.37	12805.07
493.54	12872.95
493.72	12685.70
493.90	12648.26
494.08	12894.01
494.25	13041.46
494.43	13060.19
494.61	13179.56
494.79	13362.12
494.96	12931.46
495.14	13057.85
495.32	13191.26
495.49	13221.69
495.67	13577.45
495.85	13642.98
496.02	13710.86
496.20	13589.15
496.38	13799.80
496.55	13650.00
496.73	13984.70
496.91	13809.16
497.09	14331.10
497.26	14508.98
497.44	14333.44
497.62	14157.90
497.79	14279.61
497.97	14361.53
498.14	14698.56
498.32	14766.44
498.50	14822.61
498.67	14754.74
498.85	15075.39
499.03	14724.31
499.20	14995.81
499.38	14846.02
499.56	15037.94
499.73	15229.87
499.91	15243.91
500.08	15232.21
500.26	15264.97
500.44	15412.43
500.61	15316.47
500.79	15190.08
500.97	15623.08
501.14	15637.12
501.32	15405.41
501.49	15644.14
501.67	15646.48
501.84	15866.49
502.02	15824.36
502.20	15857.13
502.37	15798.62
502.55	16107.57
502.72	16149.70
502.90	16011.60
503.07	16180.12
503.25	16114.59
503.43	16409.50
503.60	16112.25
503.78	16257.36
503.95	16343.96
504.13	16376.73
504.30	16306.51
504.48	16673.98
504.65	16769.94
504.83	16638.87
505.01	16968.88
505.18	16826.11
505.36	17041.44
505.53	16898.67
505.71	17055.48
505.88	17027.40
506.06	16968.88
506.23	17212.30
506.41	16968.88
506.58	17415.93
506.76	17036.76
506.93	17085.91
507.11	17329.33
507.28	17406.56
507.46	17326.99
507.63	17717.86
507.81	17898.08
507.98	17678.07
508.16	17631.26
508.33	17745.94
508.50	17659.34
508.68	17762.33
508.85	18202.35
509.03	18129.79
509.20	18169.58
509.38	18185.96
509.55	18113.41
509.73	18298.31
509.90	17935.53
510.08	18574.49
510.25	18136.81
510.42	18389.59
510.60	18427.04
510.77	18473.85
510.95	18712.58
511.12	18750.03
511.30	18614.28
511.47	18682.16
511.64	18735.99
511.82	18817.91
511.99	19070.68
512.17	19009.83
512.34	18967.70
512.51	19009.83
512.69	19117.50
512.86	19143.24
513.04	19304.74
513.21	19236.86
513.38	19356.23
513.56	19026.21
513.73	19386.66
513.90	19321.12
514.08	18958.34
514.25	19625.39
514.43	19719.01
514.60	19571.56
514.77	19852.42
514.95	19749.44
515.12	19623.05
515.29	19503.68
515.47	19838.38
515.64	19836.04
515.81	19873.49
515.99	19885.19
516.16	20081.80
516.33	20226.91
516.51	20247.97
516.68	20369.68
516.85	20219.89
517.03	20222.23
517.20	20308.83
517.37	20341.60
517.54	20229.25
517.72	20343.94
517.89	20119.24
518.06	20325.21
518.24	20463.30
518.41	20568.63
518.58	20809.70
518.75	20308.83
518.93	20720.76
519.10	21027.37
519.27	20908.01
519.45	20709.06
519.62	20631.82
519.79	20704.38
519.96	20957.16
520.14	20879.92
520.31	21067.16
520.48	21345.69
520.65	20950.14
520.83	20959.50
521.00	21378.45
521.17	21240.36
521.34	21188.87
521.52	21355.05
521.69	21448.67
521.86	21671.02
522.03	21366.75
522.20	21476.76
522.38	21916.78
522.55	21710.81
522.72	21441.65
522.89	21762.30
523.07	21956.57
523.24	22029.12
523.41	22155.51
523.58	21804.43
523.75	21909.75
523.92	21699.11
524.10	22153.17
524.27	22132.11
524.44	21902.73
524.61	22300.62
524.78	22405.95
524.96	21954.22
525.13	22192.96
525.30	22405.95
525.47	22305.31
525.64	22417.65
525.81	22555.74
525.98	22363.82
526.16	22698.52
526.33	22499.57
526.50	22876.40
526.67	22700.86
526.84	22485.53
527.01	22862.35
527.18	22647.02
527.36	23246.20
527.53	22691.49
527.70	23508.34
527.87	23391.31
528.04	23016.83
528.21	22984.06
528.38	22824.90
528.55	23152.58
528.72	23426.42
528.89	23484.94
529.07	23215.77
529.24	23264.92
529.41	23318.76
529.58	23316.42
529.75	23087.04
529.92	23143.22
530.09	23206.41
530.26	23194.71
530.43	23798.57
530.60	23328.12
530.77	23707.29
530.94	23391.31
531.11	23716.65
531.28	23548.13
531.46	23405.36
531.63	23964.75
531.80	23974.11
531.97	23721.33
532.14	24147.31
532.31	23817.29
532.48	24163.69
532.65	23807.93
532.82	23693.24
532.99	23885.17
533.16	23836.02
533.33	24168.37
533.50	24287.74
533.67	24212.84
533.84	24102.84
534.01	24135.60
534.18	23824.31
534.35	24259.65
534.52	24301.78
534.69	24556.90
534.86	24421.15
535.03	24505.41
535.20	24360.30
535.37	24521.79
535.54	24702.01
535.71	24390.72
535.88	24552.22
536.05	24802.66
536.22	24741.80
536.38	24952.45
536.55	24758.19
536.72	24926.71
536.89	24793.29
537.06	24833.08
537.23	24891.60
537.40	24741.80
537.57	24863.51
537.74	24713.72
537.91	25207.57
538.08	25130.33
538.25	24631.80
538.42	24797.98
538.59	24922.02
538.75	24772.23
538.92	25289.49
539.09	25046.07
539.26	25228.63
539.43	25132.67
539.60	25322.26
539.77	25296.51
539.94	25495.46
540.11	25090.54
540.28	25467.37
540.44	25450.99
540.61	25142.03
540.78	25420.56
540.95	25560.99
541.12	25509.50
541.29	25558.65
541.46	25614.82
541.62	25610.14
541.79	25614.82
541.96	25317.57
542.13	25666.31
542.30	25872.28
542.47	25926.11
542.63	26003.35
542.80	25942.50
542.97	25680.36
543.14	26094.63
543.31	25984.63
543.48	26092.29
543.64	26483.16
543.81	26061.87
543.98	26314.64
544.15	26197.62
544.32	26228.04
544.48	26361.45
544.65	26359.11
544.82	26057.18
544.99	25963.56
545.16	26242.09
545.32	26281.88
545.49	26501.89
545.66	26546.36
545.83	26925.52
546.00	26712.53
546.16	26609.55
546.33	26511.25
546.50	26096.97
546.67	26698.49
546.83	26740.62
547.00	26541.68
547.17	26279.54
547.34	26590.83
547.50	26609.55
547.67	27054.25
547.84	26927.86
548.00	27028.51
548.17	26944.25
548.34	26998.08
548.51	27285.97
548.67	26946.59
548.84	27314.05
549.01	27454.48
549.18	26998.08
549.34	27019.14
549.51	27082.34
549.68	27138.51
549.84	26815.52
550.01	27285.97
550.18	27049.57
550.34	27405.33
550.51	27227.45
550.68	27309.37
550.84	27267.24
551.01	27311.71
551.18	26820.20
551.34	27077.66
551.51	27082.34
551.68	27260.22
551.84	27690.88
552.01	27374.91
552.18	27639.39
552.34	27302.35
552.51	27531.72
552.68	27395.97
552.84	27784.50
553.01	27831.31
553.18	27613.64
553.34	27749.39
553.51	27543.42
553.67	27861.74
553.84	27775.14
554.01	27917.91
554.17	27927.27
554.34	27700.24
554.51	27931.95
554.67	27662.79
554.84	27896.85
555.00	27751.73
555.17	27854.72
555.33	27915.57
555.50	28163.67
555.67	28194.09
555.83	27672.15
556.00	27857.06
556.16	28606.03
556.33	27988.13
556.50	27889.82
556.66	28208.14
556.83	27929.61
556.99	28491.34
557.16	28077.07
557.32	28322.82
557.49	28533.47
557.65	27934.29
557.82	28173.03
557.98	28407.08
558.15	27990.47
558.32	28376.66
558.48	28081.75
558.65	28318.14
558.81	28683.27
558.98	28257.29
559.14	28528.79
559.31	28393.04
559.47	27667.47
559.64	28599.01
559.80	28259.63
559.97	28423.47
560.13	28189.41
560.30	28648.16
560.46	28914.98
560.63	28456.23
560.79	28701.99
560.96	28575.60
561.12	28421.13
561.29	28589.64
561.45	28252.61
561.61	28552.20
561.78	28322.82
561.94	28690.29
562.11	28821.36
562.27	28741.78
562.44	28870.51
562.60	28732.42
562.77	28891.57
562.93	28795.61
563.10	29008.60
563.26	28268.99
563.42	28877.53
563.59	29191.16
563.75	28554.54
563.92	29137.33
564.08	28819.02
564.24	28762.84
564.41	28769.86
564.57	28718.37
564.74	28861.15
564.90	28741.78
565.07	29088.18
565.23	28959.45
565.39	29015.62
565.56	29074.13
565.72	28575.60
565.88	28718.37
566.05	28816.68
566.21	28760.50
566.38	29259.04
566.54	28926.68
566.70	28999.24
566.87	29160.73
567.03	28879.87
567.19	29347.98
567.36	29104.56
567.52	28971.15
567.68	29167.76
567.85	28821.36
568.01	28914.98
568.17	28947.75
568.34	29230.95
568.50	29158.39
568.66	29144.35
568.83	29418.19
568.99	29268.40
569.15	29067.11
569.32	29216.91
569.48	29268.40
569.64	29544.58
569.81	29137.33
569.97	28566.24
570.13	29280.10
570.30	29099.88
570.46	28840.08
570.62	29184.14
570.78	29352.66
570.95	29118.60
571.11	29212.23
571.27	29060.09
571.43	28938.38
571.60	29099.88
571.76	29083.50
571.92	29202.86
572.09	29244.99
572.25	29329.25
572.41	29790.34
572.57	29635.86
572.74	29413.51
572.90	29188.82
573.06	29261.38
573.22	29221.59
573.38	29392.45
573.55	29029.66
573.71	29867.58
573.87	29544.58
574.03	29336.27
574.20	29729.48
574.36	29085.84
574.52	29434.58
574.68	28849.44
574.84	29378.40
575.01	29146.69
575.17	29303.51
575.33	29212.23
575.49	29191.16
575.65	29352.66
575.82	29579.69
575.98	29600.76
576.14	29844.17
576.30	29626.50
576.46	29343.30
576.62	29448.62
576.79	29427.56
576.95	29584.37
577.11	29621.82
577.27	29855.87
577.43	29455.64
577.59	29696.72
577.75	29263.72
577.92	29022.64
578.08	28922.00
578.24	29560.97
578.40	29546.92
578.56	29514.16
578.72	29696.72
578.88	29844.17
579.04	30134.40
579.21	29628.84
579.37	29434.58
579.53	29750.55
579.69	29336.27
579.85	29343.30
580.01	29486.07
580.17	29612.46
580.33	29682.67
580.49	29659.27
580.65	29771.61
580.82	29343.30
580.98	29860.55
581.14	29701.40
581.30	29738.85
581.46	29890.98
581.62	29614.80
581.78	29558.63
581.94	29626.50
582.10	29130.31
582.26	29467.34
582.42	29633.52
582.58	29610.12
582.74	29441.60
582.90	29682.67
583.06	29565.65
583.22	29654.59
583.38	29441.60
583.54	29647.57
583.70	29362.02
583.86	29450.96
584.02	29621.82
584.18	29722.46
584.34	30054.82
584.50	29872.26
584.66	29860.55
584.82	29481.39
584.98	29301.17
585.14	30153.12
585.30	29399.47
585.46	29944.81
585.62	29385.43
585.78	29404.15
585.94	29270.74
586.10	29771.61
586.26	29582.03
586.42	29626.50
586.58	29827.79
586.74	29687.36
586.90	29401.81
587.06	29685.01
587.22	29757.57
587.38	29422.87
587.54	30050.14
587.70	29890.98
587.86	30000.99
588.02	30143.76
588.18	29797.36
588.34	29979.92
588.49	29797.36
588.65	29813.74
588.81	30108.65
588.97	29769.27
589.13	29689.70
589.29	29827.79
589.45	29947.15
589.61	29792.68
589.77	30054.82
589.93	30103.97
590.08	30096.95
590.24	30546.33
590.40	30085.25
590.56	29640.54
590.72	30141.42
590.88	29830.13
591.04	29727.14
591.20	30141.42
591.35	30029.07
591.51	30087.59
591.67	30157.80
591.83	30494.84
591.99	30515.90
592.15	30096.95
592.31	30029.07
592.46	30305.26
592.62	29795.02
592.78	30239.72
592.94	29883.96
593.10	29909.71
593.26	30216.32
593.41	30012.69
593.57	30118.01
593.73	29886.30
593.89	29944.81
594.05	30242.06
594.20	30345.05
594.36	29722.46
594.52	30019.71
594.68	30003.33
594.84	29956.52
594.99	30068.86
595.15	30038.44
595.31	30291.21
595.47	30433.99
595.62	30543.99
595.78	30019.71
595.94	29858.21
596.10	29968.22
596.25	30057.16
596.41	30174.19
596.57	29661.61
596.73	30260.79
596.88	29905.02
597.04	30253.76
597.20	30202.27
597.36	30384.83
597.51	30441.01
597.67	30162.48
597.83	30272.49
597.99	30431.65
598.14	30349.73
598.30	30267.81
598.46	30073.54
598.61	30471.43
598.77	30242.06
598.93	30394.20
599.09	30478.46
599.24	30162.48
599.40	30555.69
599.56	30183.55
599.71	30265.47
599.87	30305.26
600.03	30171.85
600.18	30401.22
600.34	30279.51
600.50	30305.26
600.65	30319.30
600.81	30588.46
600.97	30471.43
601.12	30597.82
601.28	30448.03
601.44	30429.30
601.59	30305.26
601.75	30218.66
601.91	30630.59
602.06	30448.03
602.22	30141.42
602.37	29926.09
602.53	30452.71
602.69	30576.76
602.84	30480.80
603.00	30096.95
603.16	30115.67
603.31	30342.70
603.47	30295.89
603.62	30345.05
603.78	30609.53
603.94	30129.72
604.09	30209.29
604.25	29930.77
604.40	29954.18
604.56	30015.03
604.71	30494.84
604.87	30057.16
605.03	30593.14
605.18	29832.47
605.34	30394.20
605.49	30129.72
605.65	30242.06
605.80	29883.96
605.96	30195.25
606.12	30106.31
606.27	30075.88
606.43	29949.50
606.58	30698.47
606.74	30134.40
606.89	30375.47
607.05	30038.44
607.20	30389.52
607.36	30466.75
607.51	30211.64
607.67	30110.99
607.82	30314.62
607.98	29933.11
608.13	29958.86
608.29	29860.55
608.44	30258.45
608.60	30115.67
608.75	30054.82
608.91	30253.76
609.06	29963.54
609.22	30115.67
609.37	29673.31
609.53	29771.61
609.68	29830.13
609.84	29982.26
609.99	30157.80
610.15	29898.00
610.30	29731.83
610.46	29898.00
610.61	29933.11
610.76	29993.97
610.92	30118.01
611.07	29832.47
611.23	29837.15
611.38	29970.56
611.54	29928.43
611.69	29460.32
611.84	29635.86
612.00	29853.53
612.15	29614.80
612.31	29975.24
612.46	29614.80
612.62	29968.22
612.77	30113.33
612.92	30225.68
613.08	29883.96
613.23	29853.53
613.39	29731.83
613.54	29577.35
613.69	29830.13
613.85	29642.88
614.00	29764.59
614.15	29359.68
614.31	29600.76
614.46	29991.62
614.62	29734.17
614.77	29923.75
614.92	29528.20
615.08	29582.03
615.23	29830.13
615.38	29305.85
615.54	29347.98
615.69	29509.47
615.84	29373.72
616.00	29343.30
616.15	29408.83
616.30	29511.81
616.46	29418.19
616.61	29926.09
616.76	29759.91
616.92	29134.99
617.07	29413.51
617.22	29270.74
617.37	29048.39
617.53	29024.98
617.68	29046.05
617.83	28964.13
617.99	29137.33
618.14	29460.32
618.29	28943.06
618.45	28996.90
618.60	29357.34
618.75	29502.45
618.90	29490.75
619.06	29151.37
619.21	28620.07
619.36	29493.09
619.51	29315.21
619.67	28481.98
619.82	29376.06
619.97	29153.71
620.12	28936.04
620.28	28704.33
620.43	29024.98
620.58	29324.57
620.73	29312.87
620.89	29184.14
621.04	29219.25
621.19	29151.37
621.34	28835.40
621.49	28547.51
621.65	28596.67
621.80	29076.48
621.95	28496.02
622.10	28809.65
622.25	28982.85
622.41	28868.17
622.56	29001.58
622.71	29151.37
622.86	28952.43
623.01	28755.82
623.16	28893.91
623.32	28596.67
623.47	28407.08
623.62	28353.25
623.77	28505.38
623.92	28425.81
624.07	28779.23
624.23	28666.88
624.38	28807.31
624.53	28432.83
624.68	28975.83
624.83	28687.95
624.98	28491.34
625.13	28376.66
625.29	28636.45
625.44	28472.62
625.59	28723.05
625.74	28081.75
625.89	28135.58
626.04	28376.66
626.19	28128.56
626.34	28252.61
626.49	28334.53
626.65	28374.31
626.80	28325.16
626.95	28634.11
627.10	28556.88
627.25	28130.90
627.40	28158.99
627.55	27770.46
627.70	28407.08
627.85	27908.55
628.00	28009.19
628.15	28163.67
628.30	27889.82
628.45	27658.11
628.60	28397.72
628.76	27978.76
628.91	28084.09
629.06	27976.42
629.21	28212.82
629.36	28156.64
629.51	27960.04
629.66	28065.36
629.81	27777.48
629.96	27946.00
630.11	27784.50
630.26	27601.94
630.41	27618.32
630.56	27709.60
630.71	27782.16
630.86	28013.87
631.01	27786.84
631.16	27835.99
631.31	27915.57
631.46	27618.32
631.61	27672.15
631.76	27779.82
631.91	27461.51
632.06	27655.77
632.21	27541.08
632.36	27730.67
632.51	27658.11
632.66	27531.72
632.81	27182.98
632.96	27379.59
633.10	27644.07
633.25	27938.97
633.40	27716.62
633.55	27889.82
633.70	27061.27
633.85	27578.53
634.00	27510.66
634.15	27274.26
634.30	27307.03
634.45	27473.21
634.60	27187.66
634.75	27091.70
634.90	27515.34
635.05	27449.80
635.19	27419.38
635.34	27660.45
635.49	27454.48
635.64	27388.95
635.79	27143.19
635.94	27129.15
636.09	27489.59
636.24	27339.80
636.39	27456.82
636.53	27199.37
636.68	27101.06
636.83	27037.87
636.98	27484.91
637.13	26920.84
637.28	27447.46
637.43	27281.28
637.57	27379.59
637.72	27255.54
637.87	26792.11
638.02	27023.83
638.17	27033.19
638.32	26801.47
638.46	26834.24
638.61	27054.25
638.76	26459.76
638.91	26639.98
639.06	26635.30
639.20	26946.59
639.35	27295.33
639.50	26932.54
639.65	27122.13
639.80	27175.96
639.94	27077.66
640.09	26960.63
640.24	26888.07
640.39	26899.78
640.54	26635.30
640.68	26532.31
640.83	26693.81
640.98	26792.11
641.13	26373.16
641.27	26794.45
641.42	26520.61
641.57	26757.00
641.72	26909.14
641.86	26600.19
642.01	26377.84
642.16	26415.29
642.31	26625.93
642.45	26593.17
642.60	26155.49
642.75	26115.70
642.90	26335.71
643.04	26382.52
643.19	26256.13
643.34	26768.71
643.48	26298.26
643.63	26366.13
643.78	26469.12
643.93	26677.43
644.07	26408.26
644.22	26176.55
644.37	26141.44
644.51	26075.91
644.66	26305.28
644.81	26242.09
644.95	25965.90
645.10	26221.02
645.25	26188.25
645.39	26319.32
645.54	26003.35
645.69	26452.73
645.83	26003.35
645.98	25909.73
646.13	26162.51
646.27	26155.49
646.42	25818.45
646.57	25979.95
646.71	26019.74
646.86	25975.27
647.00	25717.81
647.15	25858.24
647.30	26403.58
647.44	25998.67
647.59	26155.49
647.74	26029.10
647.88	26033.78
648.03	26284.22
648.17	26169.53
648.32	26017.40
648.47	26085.27
648.61	26057.18
648.76	25991.65
648.90	25778.66
649.05	26209.32
649.20	25741.21
649.34	25635.89
649.49	25425.24
649.63	25696.74
649.78	25799.73
649.92	25411.20
650.07	25682.70
650.21	25511.84
650.36	25584.40
650.51	25422.90
650.65	26064.21
650.80	25507.16
650.94	25476.73
651.09	25490.77
651.23	25488.43
651.38	25701.42
651.52	25509.50
651.67	25458.01
651.81	25455.67
651.96	25462.69
652.10	25895.69
652.25	25781.00
652.39	25766.96
652.54	25469.71
652.68	25331.62
652.83	25450.99
652.97	25364.39
653.12	25472.05
653.26	25401.83
653.41	25078.84
653.55	25181.82
653.70	25109.27
653.84	25212.25
653.99	25116.29
654.13	25125.65
654.27	25446.30
654.42	25296.51
654.56	25385.45
654.71	25219.27
654.85	25336.30
655.00	25240.34
655.14	25397.15
655.29	25095.22
655.43	25184.16
655.57	24669.25
655.72	25064.80
655.86	25022.67
656.01	25036.71
656.15	24746.48
656.30	24830.74
656.44	24793.29
656.58	25163.10
656.73	24716.06
656.87	24830.74
657.01	24779.25
657.16	24994.58
657.30	24641.16
657.45	25207.57
657.59	24772.23
657.73	24861.17
657.88	24994.58
658.02	24716.06
658.16	25116.29
658.31	24641.16
658.45	24489.03
658.60	24009.22
658.74	24552.22
658.88	24685.63
659.03	24369.66
659.17	24407.11
659.31	24563.92
659.46	24566.26
659.60	24657.54
659.74	24830.74
659.89	24362.64
660.03	24505.41
660.17	24690.31
660.32	24292.42
660.46	24383.70
660.60	23814.95
660.74	24198.80
660.89	24283.06
661.03	24144.97
661.17	24121.56
661.32	23927.30
661.46	24240.93
661.60	24318.17
661.74	24257.31
661.89	24329.87
662.03	24243.27
662.17	23772.82
662.31	23878.15
662.46	24074.75
662.60	23995.17
662.74	23707.29
662.88	23414.72
663.03	23777.50
663.17	23482.59
663.31	23349.18
663.45	23452.17
663.60	23747.08
663.74	23449.83
663.88	23735.37
664.02	23644.09
664.17	23552.81
664.31	23393.65
664.45	23627.71
664.59	23571.54
664.73	23674.52
664.88	23358.55
665.02	23042.57
665.16	23089.38
665.30	23197.05
665.44	23414.72
665.59	22906.82
665.73	23145.56
665.87	22920.87
666.01	23281.31
666.15	23311.74
666.29	23267.27
666.44	22885.76
666.58	22946.61
666.72	22850.65
666.86	23108.11
667.00	23225.14
667.14	22845.97
667.28	22829.59
667.43	22567.45
667.57	23112.79
667.71	22867.03
667.85	22721.92
667.99	22796.82
668.13	22232.75
668.27	22562.76
668.41	22604.89
668.56	22366.16
668.70	22609.58
668.84	22963.00
668.98	22455.10
669.12	22501.91
669.26	22471.48
669.40	22391.91
669.54	22462.12
669.68	22530.00
669.82	22221.05
669.96	22256.15
670.10	21984.65
670.25	22185.94
670.39	21984.65
670.53	21970.61
670.67	22024.44
670.81	21914.44
670.95	21968.27
671.09	21759.96
671.23	21977.63
671.37	22192.96
671.51	22150.83
671.65	21811.45
671.79	21797.41
671.93	21474.42
672.07	21671.02
672.21	21708.47
672.35	21261.43
672.49	21408.88
672.63	21399.52
672.77	21181.85
672.91	21209.93
673.05	21149.08
673.19	21352.71
673.33	21439.31
673.47	21509.52
673.61	21209.93
673.75	21331.64
673.89	21158.44
674.03	21167.80
674.17	21420.58
674.31	21111.63
674.45	21095.25
674.59	21053.12
674.73	20957.16
674.87	20788.64
675.01	20966.52
675.15	20357.98
675.29	20790.98
675.43	20479.69
675.56	20613.10
675.70	20748.85
675.84	20538.20
675.98	19976.47
676.12	20978.22
676.26	20758.21
676.40	20409.47
676.54	20381.38
676.68	20423.51
676.82	19662.84
676.96	20133.29
677.10	19967.11
677.23	20058.39
677.37	19714.33
677.51	20240.95
677.65	20161.37
677.79	19857.10
677.93	19583.26
678.07	19653.48
678.21	19599.65
678.34	19623.05
678.48	19356.23
678.62	19637.09
678.76	19407.72
678.90	19463.90
679.04	19454.53
679.18	19061.32
679.31	19122.18
679.45	18953.66
679.59	18970.04
679.73	19234.52
679.87	18963.02
680.00	19063.66
680.14	18906.85
680.28	18773.44
680.42	18824.93
680.56	18640.03
680.70	18881.10
680.83	18635.35
680.97	18633.00
681.11	18693.86
681.25	18553.43
681.39	18387.25
681.52	18375.55
681.66	18115.75
681.80	18195.32
681.94	18092.34
682.07	18099.36
682.21	18256.18
682.35	17881.69
682.49	18260.86
682.62	17472.10
682.76	17792.75
682.90	18129.79
683.04	17851.27
683.17	17661.68
683.31	17680.41
683.45	17862.97
683.59	17462.74
683.72	17521.25
683.86	17369.12
684.00	17495.50
684.13	17399.54
684.27	17420.61
684.41	17081.23
684.55	16908.03
684.68	16802.71
684.82	17076.55
684.96	16877.60
685.09	16957.18
685.23	16816.75
685.37	16870.58
685.50	17055.48
685.64	16915.05
685.78	16847.18
685.91	16812.07
686.05	16945.48
686.19	16739.51
686.32	16629.51
686.46	16418.86
686.60	16283.11
686.73	16325.24
686.87	16198.85
687.01	16285.45
687.14	16212.89
687.28	16163.74
687.42	15903.94
687.55	15967.13
687.69	16027.99
687.82	15957.77
687.96	15819.68
688.10	15864.15
688.23	15665.21
688.37	15674.57
688.50	15782.23
688.64	15646.48
688.78	15665.21
688.91	15784.57
689.05	15480.30
689.18	15283.70
689.32	14998.15
689.46	15166.67
689.59	15187.74
689.73	15152.63
689.86	15012.20
690.00	15199.44
690.13	15281.36
690.27	14841.34
690.41	15035.60
690.54	14700.90
690.68	14920.92
690.81	14831.97
690.95	14813.25
691.08	14766.44
691.22	14846.02
691.35	14696.22
691.49	14728.99
691.62	14747.72
691.76	14366.21
691.89	14349.82
692.03	14104.07
692.16	14181.31
692.30	14303.01
692.43	13926.19
692.57	14108.75
692.70	13963.64
692.84	14122.79
692.97	13958.96
693.11	13900.44
693.24	13596.17
693.38	14064.28
693.51	13944.91
693.65	13771.71
693.78	13657.03
693.92	13579.79
694.05	13537.66
694.19	13607.87
694.32	13371.48
694.45	13280.20
694.59	13228.71
694.72	13109.34
694.86	13188.92
694.99	13153.81
695.13	12865.92
695.26	13139.77
695.39	12889.33
695.53	13074.23
695.66	12891.67
695.80	13142.11
695.93	12964.23
696.07	12886.99
696.20	12936.14
696.33	12758.26
696.47	12571.02
696.60	12739.54
696.73	12617.83
696.87	12393.14
697.00	12404.84
697.14	12133.34
697.27	12142.70
697.40	12262.07
697.54	12301.86
697.67	12100.57
697.80	12060.78
697.94	11707.36
698.07	11852.47
698.21	11810.34
698.34	12095.89
698.47	12093.55
698.61	11990.56
698.74	12018.65
698.87	11805.66
699.01	11833.75
699.14	11375.00
699.27	11349.26
699.40	11527.14
699.54	11613.74
699.67	11653.53
699.80	11180.74
699.94	11133.93
700.07	11232.23
700.20	11080.10
700.34	10998.18
700.47	11005.20
700.60	10939.66
700.73	11143.29
700.87	11183.08
701.00	11185.42
701.13	11126.91
701.26	11028.60
701.40	10960.73
701.53	10754.76
701.66	10736.04
701.79	10789.87
701.93	10726.68
702.06	10677.52
702.19	10546.45
702.32	10485.60
702.46	10417.72
702.59	10293.68
702.72	10200.05
702.85	10153.24
702.99	10108.77
703.12	10221.12
703.25	10054.94
703.38	10101.75
703.51	10150.90
703.65	10040.90
703.78	10054.94
703.91	10031.54
704.04	10314.74
704.17	10059.62
704.31	10031.54
704.44	9841.95
704.57	9729.61
704.70	9671.09
704.83	9420.66
704.96	9563.43
705.10	9430.02
705.23	9521.30
>>>>>End Processed Spectral Data<<<<<
