SpectraSuite Data File
++++++++++++++++++++++++++++++++++++
Date: Fri Oct 18 13:58:19 GMT-05:00 2013
User: bianchi
Dark Spectrum Present: No
Reference Spectrum Present: No
Number of Sampled Component Spectra: 1
Spectrometers: USB2+H05261
Integration Time (usec): 50000 (USB2+H05261)
Spectra Averaged: 1 (USB2+H05261)
Boxcar Smoothing: 0 (USB2+H05261)
Correct for Electrical Dark: No (USB2+H05261)
Strobe/Lamp Enabled: No (USB2+H05261)
Correct for Detector Non-linearity: No (USB2+H05261)
Correct for Stray Light: No (USB2+H05261)
Number of Pixels in Processed Spectrum: 2048
>>>>>Begin Processed Spectral Data<<<<<
365.73	0.00
365.92	0.00
366.12	0.00
366.32	0.00
366.52	0.00
366.72	0.00
366.91	0.00
367.11	0.00
367.31	0.00
367.51	0.00
367.70	0.00
367.90	0.00
368.10	0.00
368.30	0.00
368.49	0.00
368.69	0.00
368.89	0.00
369.09	0.00
369.28	0.00
369.48	0.00
369.68	0.00
369.87	0.00
370.07	0.00
370.27	0.00
370.47	0.00
370.66	102.98
370.86	124.05
371.06	135.75
371.25	124.05
371.45	208.31
371.65	145.11
371.84	121.71
372.04	86.60
372.24	180.22
372.44	159.16
372.63	217.67
372.83	222.35
373.03	220.01
373.22	236.39
373.42	177.88
373.62	187.24
373.81	252.78
374.01	229.37
374.21	269.16
374.40	217.67
374.60	248.10
374.79	271.50
374.99	262.14
375.19	276.18
375.38	264.48
375.58	285.55
375.78	320.65
375.97	287.89
376.17	194.26
376.37	262.14
376.56	283.20
376.76	266.82
376.95	285.55
377.15	362.78
377.35	315.97
377.54	236.39
377.74	313.63
377.93	322.99
378.13	250.44
378.33	201.29
378.52	297.25
378.72	276.18
378.91	280.86
379.11	322.99
379.31	330.02
379.50	301.93
379.70	304.27
379.89	285.55
380.09	334.70
380.28	273.84
380.48	264.48
380.68	306.61
380.87	313.63
381.07	271.50
381.26	369.80
381.46	351.08
381.65	299.59
381.85	337.04
382.04	341.72
382.24	280.86
382.43	351.08
382.63	325.33
382.83	369.80
383.02	383.85
383.22	404.91
383.41	306.61
383.61	360.44
383.80	397.89
384.00	374.49
384.19	386.19
384.39	397.89
384.58	397.89
384.78	395.55
384.97	414.27
385.17	348.74
385.36	376.83
385.56	416.62
385.75	362.78
385.95	381.51
386.14	430.66
386.34	496.19
386.53	365.12
386.72	414.27
386.92	484.49
387.11	360.44
387.31	409.59
387.50	514.92
387.70	482.15
387.89	489.17
388.09	458.74
388.28	376.83
388.48	454.06
388.67	433.00
388.86	444.70
389.06	444.70
389.25	475.13
389.45	472.79
389.64	433.00
389.84	514.92
390.03	484.49
390.22	461.09
390.42	514.92
390.61	505.56
390.81	465.77
391.00	543.00
391.19	407.25
391.39	486.83
391.58	545.34
391.78	505.56
391.97	524.28
392.16	507.90
392.36	634.29
392.55	540.66
392.75	543.00
392.94	596.84
393.13	526.62
393.33	519.60
393.52	566.41
393.71	608.54
393.91	498.53
394.10	543.00
394.29	592.16
394.49	566.41
394.68	561.73
394.88	587.47
395.07	674.07
395.26	638.97
395.46	622.58
395.65	566.41
395.84	587.47
396.04	730.25
396.23	636.63
396.42	645.99
396.62	704.50
396.81	650.67
397.00	620.24
397.19	667.05
397.39	645.99
397.58	669.39
397.77	655.35
397.97	711.52
398.16	674.07
398.35	739.61
398.55	713.86
398.74	713.86
398.93	763.01
399.12	655.35
399.32	695.14
399.51	662.37
399.70	781.74
399.90	709.18
400.09	755.99
400.28	741.95
400.47	739.61
400.67	716.20
400.86	795.78
401.05	802.80
401.24	800.46
401.44	821.53
401.63	793.44
401.82	798.12
402.01	798.12
402.21	786.42
402.40	889.40
402.59	905.79
402.78	763.01
402.97	866.00
403.17	840.25
403.36	786.42
403.55	891.74
403.74	816.85
403.93	854.30
404.13	961.96
404.32	842.59
404.51	870.68
404.70	922.17
404.89	915.15
405.09	1025.15
405.28	863.66
405.47	931.53
405.66	936.21
405.85	1029.84
406.05	933.87
406.24	1069.62
406.43	966.64
406.62	1074.31
406.81	1060.26
407.00	1011.11
407.20	1022.81
407.39	997.07
407.58	1043.88
407.77	1069.62
407.96	1057.92
408.15	1067.28
408.34	964.30
408.54	1025.15
408.73	1125.80
408.92	1158.57
409.11	1067.28
409.30	1109.41
409.49	1149.20
409.68	1174.95
409.87	1083.67
410.07	1214.74
410.26	1149.20
410.45	1200.69
410.64	1146.86
410.83	1284.95
411.02	1193.67
411.21	1205.38
411.40	1109.41
411.59	1254.53
411.78	1259.21
411.98	1324.74
412.17	1315.38
412.36	1345.81
412.55	1390.28
412.74	1411.34
412.93	1385.60
413.12	1369.21
413.31	1446.45
413.50	1359.85
413.69	1413.68
413.88	1502.62
414.07	1427.73
414.26	1404.32
414.45	1547.09
414.64	1437.09
414.83	1511.99
415.02	1493.26
415.22	1556.46
415.41	1568.16
415.60	1551.78
415.79	1584.54
415.98	1563.48
416.17	1675.82
416.36	1544.75
416.55	1537.73
416.74	1605.61
416.93	1593.90
417.12	1575.18
417.31	1694.55
417.50	1603.27
417.69	1795.19
417.88	1781.15
418.07	1741.36
418.26	1664.12
418.45	1739.02
418.64	1736.68
418.83	1832.64
419.02	1781.15
419.21	1820.94
419.39	1851.36
419.58	1750.72
419.77	1769.44
419.96	1767.10
420.15	1858.39
420.34	1870.09
420.53	1879.45
420.72	1900.52
420.91	2043.29
421.10	1980.09
421.29	1977.75
421.48	1952.01
421.67	2071.37
421.86	1973.07
422.05	2012.86
422.24	1863.07
422.43	1933.28
422.61	1989.46
422.80	2087.76
422.99	1926.26
423.18	2015.20
423.37	2078.40
423.56	2019.88
423.75	2113.50
423.94	1900.52
424.13	1963.71
424.32	1816.26
424.50	2029.24
424.69	2097.12
424.88	2108.82
425.07	2024.56
425.26	2066.69
425.45	2031.58
425.64	2087.76
425.83	2085.42
426.01	2122.87
426.20	2052.65
426.39	1991.80
426.58	2073.71
426.77	2059.67
426.96	2076.06
427.15	2106.48
427.33	2195.42
427.52	2087.76
427.71	2143.93
427.90	2120.53
428.09	2235.21
428.28	2127.55
428.46	2136.91
428.65	2265.64
428.84	2284.36
429.03	2251.60
429.22	2125.21
429.40	2146.27
429.59	2235.21
429.78	2214.15
429.97	2214.15
430.16	2242.23
430.34	2340.54
430.53	2385.01
430.72	2401.39
430.91	2331.17
431.10	2331.17
431.28	2207.13
431.47	2300.75
431.66	2410.75
431.85	2345.22
432.03	2377.98
432.22	2487.99
432.41	2518.42
432.60	2523.10
432.79	2408.41
432.97	2537.14
433.16	2434.16
433.35	2473.95
433.54	2548.84
433.72	2525.44
433.91	2581.61
434.10	2586.29
434.28	2480.97
434.47	2530.12
434.66	2600.34
434.85	2572.25
435.03	2562.89
435.22	2628.42
435.41	2705.66
435.59	2642.46
435.78	2698.64
435.97	2668.21
436.16	2679.91
436.34	2708.00
436.53	2675.23
436.72	2654.17
436.90	2684.59
437.09	2710.34
437.28	2661.19
437.46	2700.98
437.65	2724.38
437.84	2764.17
438.02	2860.13
438.21	2752.47
438.40	2827.37
438.58	2792.26
438.77	2815.66
438.96	2911.63
439.14	2892.90
439.33	2920.99
439.52	3009.93
439.70	2991.20
439.89	3005.25
440.08	2951.42
440.26	3063.76
440.45	3091.85
440.63	3103.55
440.82	3148.02
441.01	3108.23
441.19	3178.45
441.38	3138.66
441.57	3171.43
441.75	3286.11
441.94	3262.71
442.12	3281.43
442.31	3368.03
442.50	3274.41
442.68	3353.99
442.87	3417.18
443.05	3363.35
443.24	3442.93
443.43	3480.38
443.61	3440.59
443.80	3529.53
443.98	3363.35
444.17	3187.81
444.35	3438.25
444.54	3508.46
444.73	3482.72
444.91	3398.46
445.10	3414.84
445.28	3330.58
445.47	3452.29
445.65	3463.99
445.84	3480.38
446.02	3482.72
446.21	3534.21
446.39	3492.08
446.58	3569.32
446.77	3499.10
446.95	3473.36
447.14	3426.54
447.32	3459.31
447.51	3454.63
447.69	3431.23
447.88	3592.72
448.06	3482.72
448.25	3520.17
448.43	3492.08
448.62	3447.61
448.80	3599.74
448.99	3534.21
449.17	3716.77
449.36	3625.49
449.54	3721.45
449.73	3672.30
449.91	3723.79
450.10	3662.94
450.28	3777.62
450.46	3681.66
450.65	3744.86
450.83	3836.14
451.02	3688.68
451.20	3789.33
451.39	3969.55
451.57	3801.03
451.76	3707.41
451.94	3880.61
452.13	3911.04
452.31	3831.46
452.49	3850.18
452.68	3904.01
452.86	3918.06
453.05	3889.97
453.23	3974.23
453.42	3901.67
453.60	3892.31
453.78	3950.82
453.97	3791.67
454.15	4018.70
454.34	3948.48
454.52	4109.98
454.70	4095.94
454.89	4063.17
455.07	4067.85
455.26	4030.40
455.44	4175.52
455.62	4011.68
455.81	4079.55
455.99	4121.68
456.17	4105.30
456.36	4259.78
456.54	4294.88
456.73	4119.34
456.91	4514.89
457.09	4166.15
457.28	4334.67
457.46	4142.75
457.64	4425.95
457.83	4404.89
458.01	4205.94
458.19	4566.39
458.38	4395.53
458.56	4514.89
458.74	4493.83
458.93	4365.10
459.11	4498.51
459.29	4454.04
459.48	4557.02
459.66	4631.92
459.84	4606.17
460.03	4699.80
460.21	4575.75
460.39	4542.98
460.57	4547.66
460.76	4468.08
460.94	4610.86
461.12	4669.37
461.31	4545.32
461.49	4578.09
461.67	4674.05
461.85	4718.52
462.04	4575.75
462.22	4971.30
462.40	4814.48
462.59	4746.61
462.77	4856.61
462.95	4826.18
463.13	4828.53
463.32	4805.12
463.50	4924.49
463.68	4739.58
463.86	4940.87
464.05	4723.20
464.23	4844.91
464.41	4966.62
464.59	5039.17
464.78	4938.53
464.96	4924.49
465.14	4868.31
465.32	4973.64
465.50	5078.96
465.69	5055.56
465.87	4971.30
466.05	4971.30
466.23	4997.04
466.41	5041.51
466.60	5109.39
466.78	5100.03
466.96	5067.26
467.14	5006.41
467.32	5165.56
467.51	5177.26
467.69	5022.79
467.87	5135.14
468.05	5139.82
468.23	5214.71
468.41	5245.14
468.60	5282.59
468.78	5268.55
468.96	5254.50
469.14	5203.01
469.32	5289.61
469.50	5095.35
469.69	5437.06
469.87	5444.09
470.05	5584.52
470.23	5528.35
470.41	5364.51
470.59	5610.26
470.77	5465.15
470.95	5584.52
471.14	5614.95
471.32	5315.36
471.50	5628.99
471.68	5708.57
471.86	5628.99
472.04	5743.67
472.22	5830.27
472.40	5701.54
472.58	5717.93
472.77	5830.27
472.95	5858.36
473.13	5942.62
473.31	5767.08
473.49	5893.47
473.67	5830.27
473.85	5954.32
474.03	5825.59
474.21	5963.68
474.39	6064.33
474.57	6104.12
474.75	6218.80
474.93	6071.35
475.12	6143.91
475.30	6246.89
475.48	6108.80
475.66	6368.60
475.84	6380.30
476.02	6298.38
476.20	6296.04
476.38	6534.78
476.56	6576.91
476.74	6392.00
476.92	6504.35
477.10	6370.94
477.28	6792.23
477.46	6722.02
477.64	6729.04
477.82	6825.00
478.00	6977.14
478.18	6881.18
478.36	7213.53
478.54	7045.01
478.72	6998.20
478.90	7103.53
479.08	7143.32
479.26	7145.66
479.44	7307.15
479.62	7478.01
479.80	7276.73
479.98	7606.74
480.16	7515.46
480.34	7541.21
480.52	7728.45
480.70	7726.11
480.88	7442.90
481.06	7672.28
481.24	7676.96
481.41	7950.80
481.59	8044.42
481.77	7932.08
481.95	8023.36
482.13	8119.32
482.31	8177.83
482.49	8315.92
482.67	8329.97
482.85	8402.52
483.03	8657.64
483.21	8585.08
483.39	8554.66
483.57	8741.90
483.74	8704.45
483.92	8774.67
484.10	8669.34
484.28	8905.74
484.46	9114.05
484.64	9013.40
484.82	9011.06
485.00	9078.94
485.18	9352.78
485.35	9207.67
485.53	9280.22
485.71	9612.58
485.89	9736.63
486.07	9533.00
486.25	9610.24
486.43	9727.27
486.61	9802.16
486.78	10064.30
486.96	10078.35
487.14	10162.61
487.32	10040.90
487.50	10228.14
487.68	10242.18
487.85	10162.61
488.03	10504.32
488.21	10581.56
488.39	10621.35
488.57	10689.23
488.75	10810.93
488.92	10909.24
489.10	10780.51
489.28	10822.64
489.46	11115.20
489.64	11164.36
489.81	11342.24
489.99	11566.93
490.17	11372.66
490.35	11555.22
490.53	11660.55
490.70	11751.83
490.88	11527.14
491.06	11826.73
491.24	11955.46
491.41	11915.67
491.59	12224.62
491.77	11910.99
491.95	11964.82
492.13	12250.36
492.30	12428.24
492.48	12390.80
492.66	12351.01
492.84	12430.59
493.01	12575.70
493.19	12671.66
493.37	12496.12
493.54	12994.65
493.72	13043.81
493.90	13008.70
494.08	13097.64
494.25	13261.48
494.43	13455.74
494.61	13399.57
494.79	13392.55
494.96	13312.97
495.14	13425.31
495.32	13614.90
495.49	13635.96
495.67	13626.60
495.85	13776.39
496.02	13860.65
496.20	13951.93
496.38	13862.99
496.55	13970.66
496.73	14036.19
496.91	14001.08
497.09	14324.08
497.26	14417.70
497.44	14335.78
497.62	14207.05
497.79	14700.90
497.97	14808.57
498.14	14806.23
498.32	14920.92
498.50	15037.94
498.67	15424.13
498.85	15040.28
499.03	15122.20
499.20	15337.53
499.38	15447.54
499.56	15091.77
499.73	15538.82
499.91	15103.48
500.08	15398.38
500.26	15321.15
500.44	15616.05
500.61	15421.79
500.79	15744.78
500.97	15681.59
501.14	15885.22
501.32	15978.84
501.49	16065.44
501.67	15723.72
501.84	16299.49
502.02	15786.91
502.20	15941.39
502.37	16231.62
502.55	16444.60
502.72	16259.70
502.90	16119.27
503.07	16145.02
503.25	16339.28
503.43	16575.67
503.60	16713.77
503.78	16732.49
503.95	16346.30
504.13	17048.46
504.30	16465.67
504.48	16711.42
504.65	16985.27
504.83	16711.42
505.01	16915.05
505.18	17334.01
505.36	17102.29
505.53	16814.41
505.71	16893.99
505.88	17401.88
506.06	17296.56
506.23	17385.50
506.41	17209.96
506.58	17572.74
506.76	17582.10
506.93	17404.22
507.11	17497.84
507.28	17509.55
507.46	17539.97
507.63	17647.64
507.81	17827.86
507.98	17783.39
508.16	17937.87
508.33	17710.83
508.50	18036.17
508.68	17947.23
508.85	18272.56
509.03	18178.94
509.20	18270.22
509.38	18293.63
509.55	18384.91
509.73	18511.30
509.90	18288.95
510.08	18256.18
510.25	18427.04
510.42	18679.82
510.60	18831.95
510.77	18609.60
510.95	19161.97
511.12	18703.22
511.30	18822.59
511.47	18909.19
511.64	18937.27
511.82	19236.86
511.99	19330.48
512.17	19208.78
512.34	19080.05
512.51	19370.27
512.69	19391.34
512.86	19241.54
513.04	19445.17
513.21	19784.55
513.38	19681.56
513.56	19723.69
513.73	19662.84
513.90	19620.71
514.08	19288.35
514.25	19943.70
514.43	20051.37
514.60	19882.85
514.77	19955.41
514.95	20056.05
515.12	20016.26
515.29	19992.86
515.47	20002.22
515.64	20257.34
515.81	19894.55
515.99	20365.00
516.16	20290.10
516.33	20386.07
516.51	20577.99
516.68	20269.04
516.85	20161.37
517.03	20624.80
517.20	20418.83
517.37	20629.48
517.54	20704.38
517.72	20872.90
517.89	20622.46
518.06	20886.94
518.24	20762.89
518.41	20432.88
518.58	20772.25
518.75	20964.18
518.93	21048.44
519.10	21118.65
519.27	21219.30
519.45	21151.42
519.62	21111.63
519.79	20922.05
519.96	21151.42
520.14	21685.06
520.31	21263.77
520.48	21539.95
520.65	21317.60
520.83	21715.49
521.00	21759.96
521.17	21254.40
521.34	21591.44
521.52	21685.06
521.69	21795.07
521.86	21818.47
522.03	21755.28
522.20	22026.78
522.38	21965.93
522.55	21692.08
522.72	21949.54
522.89	22401.27
523.07	22199.98
523.24	22143.81
523.41	22209.34
523.58	22059.55
523.75	22001.04
523.92	22178.92
524.10	22134.45
524.27	22380.20
524.44	22438.72
524.61	22555.74
524.78	22494.89
524.96	22553.40
525.13	22581.49
525.30	22558.08
525.47	22883.42
525.64	22530.00
525.81	22834.27
525.98	22967.68
526.16	22848.31
526.33	22806.18
526.50	23147.90
526.67	22878.74
526.84	22927.89
527.01	22953.63
527.18	23068.32
527.36	23323.44
527.53	23393.65
527.70	23374.93
527.87	23484.94
528.04	23587.92
528.21	23339.82
528.38	23225.14
528.55	23246.20
528.72	23522.38
528.89	23566.85
529.07	23632.39
529.24	23339.82
529.41	23653.45
529.58	23543.45
529.75	23360.89
529.92	23838.36
530.09	23576.22
530.26	23716.65
530.43	23896.87
530.60	23796.23
530.77	23906.23
530.94	23733.03
531.11	23742.39
531.28	23814.95
531.46	23730.69
531.63	24379.02
531.80	24126.24
531.97	23917.93
532.14	24676.27
532.31	24084.11
532.48	24294.76
532.65	24430.51
532.82	24121.56
532.99	24151.99
533.16	24425.83
533.33	24526.47
533.50	24678.61
533.67	24861.17
533.84	24161.35
534.01	24498.39
534.18	24151.99
534.35	24802.66
534.52	24142.63
534.69	24634.14
534.86	24868.19
535.03	24634.14
535.20	24788.61
535.37	24521.79
535.54	24800.32
535.71	24566.26
535.88	24924.36
536.05	25071.82
536.22	25069.48
536.38	25294.17
536.55	24893.94
536.72	25076.50
536.89	24877.55
537.06	25120.97
537.23	24994.58
537.40	25092.88
537.57	24809.68
537.74	25296.51
537.91	25802.07
538.08	25380.77
538.25	25256.72
538.42	25549.29
538.59	25575.03
538.75	25193.53
538.92	25027.35
539.09	25823.13
539.26	25853.56
539.43	25708.44
539.60	25837.17
539.77	25504.82
539.94	25713.13
540.11	25942.50
540.28	25799.73
540.44	25823.13
540.61	25539.93
540.78	25628.87
540.95	25921.43
541.12	25570.35
541.29	25886.32
541.46	26190.59
541.62	26223.36
541.79	25570.35
541.96	25717.81
542.13	25682.70
542.30	26113.36
542.47	26384.86
542.63	25912.07
542.80	25881.64
542.97	26150.81
543.14	26284.22
543.31	26389.54
543.48	26771.05
543.64	26586.15
543.81	26934.88
543.98	26696.15
544.15	26349.75
544.32	26679.77
544.48	26810.84
544.65	26321.66
544.82	26579.12
544.99	26335.71
545.16	26834.24
545.32	26749.98
545.49	26895.10
545.66	27072.98
545.83	26862.33
546.00	26955.95
546.16	27091.70
546.33	26923.18
546.50	26717.22
546.67	26965.31
546.83	26618.91
547.00	26988.72
547.17	27297.67
547.34	26710.19
547.50	27063.61
547.67	27353.84
547.84	27278.94
548.00	27178.30
548.17	27463.85
548.34	27206.39
548.51	27524.70
548.67	27405.33
548.84	27342.14
549.01	27477.89
549.18	27379.59
549.34	27402.99
549.51	27672.15
549.68	27358.52
549.84	27220.43
550.01	27627.68
550.18	27424.06
550.34	27402.99
550.51	27669.81
550.68	27810.25
550.84	27489.59
551.01	27531.72
551.18	27487.25
551.34	27002.76
551.51	27548.11
551.68	27828.97
551.84	27784.50
552.01	27852.38
552.18	28077.07
552.34	27810.25
552.51	28004.51
552.68	27903.87
552.84	27770.46
553.01	27948.34
553.18	27735.35
553.34	28180.05
553.51	27988.13
553.67	28301.76
553.84	28599.01
554.01	28699.65
554.17	28444.53
554.34	27976.42
554.51	27931.95
554.67	28343.89
554.84	27917.91
555.00	28360.27
555.17	28201.11
555.33	28402.40
555.50	28051.32
555.67	28006.85
555.83	28336.87
556.00	28407.08
556.16	28201.11
556.33	28762.84
556.50	28379.00
556.66	28629.43
556.83	28570.92
556.99	28772.21
557.16	28690.29
557.32	28624.75
557.49	28680.92
557.65	28091.11
557.82	28641.14
557.98	28208.14
558.15	28329.84
558.32	28800.29
558.48	28379.00
558.65	29006.26
558.81	28744.12
558.98	28959.45
559.14	28837.74
559.31	28758.16
559.47	28507.72
559.64	29071.79
559.80	28500.70
559.97	28936.04
560.13	28884.55
560.30	28673.90
560.46	28924.34
560.63	28999.24
560.79	28858.81
560.96	28800.29
561.12	28961.79
561.29	28741.78
561.45	28907.96
561.61	29167.76
561.78	29062.43
561.94	28875.19
562.11	29102.22
562.27	28971.15
562.44	29186.48
562.60	29088.18
562.77	29347.98
562.93	29048.39
563.10	29298.83
563.26	29209.89
563.42	29460.32
563.59	29460.32
563.75	29032.00
563.92	29329.25
564.08	29120.95
564.24	28947.75
564.41	29017.96
564.57	29081.16
564.74	29465.00
564.90	29205.20
565.07	29130.31
565.23	29486.07
565.39	29371.38
565.56	29411.17
565.72	29752.89
565.88	29024.98
566.05	28886.89
566.21	29228.61
566.38	29710.76
566.54	29575.01
566.70	29692.04
566.87	29530.54
567.03	29509.47
567.19	29745.87
567.36	29460.32
567.52	29633.52
567.68	29415.85
567.85	29708.42
568.01	29261.38
568.17	29347.98
568.34	29579.69
568.50	29516.50
568.66	29460.32
568.83	30054.82
568.99	29579.69
569.15	29549.26
569.32	29369.04
569.48	29624.16
569.64	29928.43
569.81	29954.18
569.97	29373.72
570.13	29703.74
570.30	29701.40
570.46	29890.98
570.62	29572.67
570.78	29610.12
570.95	29446.28
571.11	29607.78
571.27	29408.83
571.43	29319.89
571.60	29736.51
571.76	29235.63
571.92	29762.25
572.09	29546.92
572.25	29872.26
572.41	29853.53
572.57	29837.15
572.74	29858.21
572.90	29331.59
573.06	29397.13
573.22	29851.19
573.38	29848.85
573.55	29565.65
573.71	29979.92
573.87	29710.76
574.03	29947.15
574.20	29872.26
574.36	29654.59
574.52	30019.71
574.68	29879.28
574.84	29734.17
575.01	29806.72
575.17	29965.88
575.33	29851.19
575.49	29560.97
575.65	30101.63
575.82	30253.76
575.98	29750.55
576.14	29673.31
576.30	30010.35
576.46	29631.18
576.62	30141.42
576.79	29649.91
576.95	29488.41
577.11	29820.77
577.27	30026.73
577.43	29937.79
577.59	30115.67
577.75	30209.29
577.92	29692.04
578.08	30012.69
578.24	30080.56
578.40	29837.15
578.56	30171.85
578.72	29989.28
578.88	30101.63
579.04	30363.77
579.21	29727.14
579.37	30029.07
579.53	30129.72
579.69	29701.40
579.85	29923.75
580.01	30085.25
580.17	29626.50
580.33	29919.07
580.49	30045.46
580.65	30110.99
580.82	29738.85
580.98	29928.43
581.14	30171.85
581.30	30103.97
581.46	30368.45
581.62	29790.34
581.78	29708.42
581.94	29694.38
582.10	29776.30
582.26	30176.53
582.42	29895.66
582.58	30075.88
582.74	30323.98
582.90	30096.95
583.06	30225.68
583.22	30396.54
583.38	29722.46
583.54	29797.36
583.70	29823.11
583.86	29811.40
584.02	29912.05
584.18	29780.98
584.34	30223.34
584.50	30024.39
584.66	30298.23
584.82	29567.99
584.98	30122.69
585.14	29933.11
585.30	29546.92
585.46	30068.86
585.62	29841.83
585.78	29993.97
585.94	29762.25
586.10	30305.26
586.26	30050.14
586.42	30171.85
586.58	30375.47
586.74	29806.72
586.90	29968.22
587.06	30101.63
587.22	29867.58
587.38	30209.29
587.54	30419.94
587.70	30204.61
587.86	30206.95
588.02	30438.67
588.18	30501.86
588.34	30345.05
588.49	30417.60
588.65	30000.99
588.81	30302.92
588.97	30054.82
589.13	30333.34
589.29	30178.87
589.45	30195.25
589.61	30567.40
589.77	30204.61
589.93	30422.28
590.08	30398.88
590.24	30450.37
590.40	30251.42
590.56	30319.30
590.72	30293.55
590.88	30284.19
591.04	30309.94
591.20	30611.87
591.35	30604.84
591.51	30967.63
591.67	30588.46
591.83	30478.46
591.99	30452.71
592.15	30309.94
592.31	30548.67
592.46	30579.10
592.62	30300.58
592.78	30426.96
592.94	30239.72
593.10	30679.74
593.26	30778.04
593.41	30876.35
593.57	30164.82
593.73	31023.80
593.89	30803.79
594.05	30817.83
594.20	30401.22
594.36	30597.82
594.52	30742.94
594.68	30225.68
594.84	30609.53
594.99	30925.50
595.15	30490.16
595.31	30874.01
595.47	31000.40
595.62	30567.40
595.78	30913.80
595.94	30522.93
596.10	30405.90
596.25	30546.33
596.41	30539.31
596.57	30394.20
596.73	30733.57
596.88	30309.94
597.04	30789.75
597.20	30726.55
597.36	30981.67
597.51	31105.72
597.67	30628.25
597.83	30581.44
597.99	31065.93
598.14	30323.98
598.30	30583.78
598.46	30483.14
598.61	30803.79
598.77	30237.38
598.93	30883.37
599.09	30876.35
599.24	31283.60
599.40	31133.81
599.56	30806.13
599.71	30927.84
599.87	30827.20
600.03	31000.40
600.18	30565.06
600.34	30785.07
600.50	30822.51
600.65	30801.45
600.81	30948.90
600.97	30944.22
601.12	30553.35
601.28	31007.42
601.44	30897.41
601.59	30829.54
601.75	30911.46
601.91	30874.01
602.06	30445.69
602.22	30906.77
602.37	30745.28
602.53	30602.50
602.69	30794.43
602.84	30471.43
603.00	30904.43
603.16	30742.94
603.31	31126.78
603.47	30616.55
603.62	30773.36
603.78	30501.86
603.94	30181.21
604.09	30595.48
604.25	30361.43
604.40	30827.20
604.56	30738.26
604.71	30593.14
604.87	30352.07
605.03	30862.30
605.18	30682.08
605.34	31098.70
605.49	30686.76
605.65	30651.66
605.80	30316.96
605.96	30639.95
606.12	30319.30
606.27	30726.55
606.43	30712.51
606.58	30618.89
606.74	30609.53
606.89	30733.57
607.05	30574.42
607.20	30735.92
607.36	30487.82
607.51	30780.39
607.67	30462.07
607.82	30735.92
607.98	30796.77
608.13	30635.27
608.29	30284.19
608.44	30616.55
608.60	30604.84
608.75	31213.38
608.91	30504.20
609.06	30560.37
609.22	30789.75
609.37	30305.26
609.53	30396.54
609.68	30239.72
609.84	30300.58
609.99	30419.94
610.15	30323.98
610.30	30522.93
610.46	30274.83
610.61	30520.59
610.76	30443.35
610.92	30466.75
611.07	30103.97
611.23	30347.39
611.38	30202.27
611.54	29935.45
611.69	30405.90
611.84	30277.17
612.00	30000.99
612.15	30284.19
612.31	30490.16
612.46	30167.16
612.62	30293.55
612.77	30464.41
612.92	30593.14
613.08	30010.35
613.23	30356.75
613.39	30160.14
613.54	30239.72
613.69	30457.39
613.85	30202.27
614.00	29881.62
614.15	30321.64
614.31	29876.94
614.46	30211.64
614.62	30043.12
614.77	30270.15
614.92	30183.55
615.08	30066.52
615.23	30022.05
615.38	30288.87
615.54	29556.28
615.69	29825.45
615.84	29951.84
616.00	29898.00
616.15	29528.20
616.30	30026.73
616.46	30178.87
616.61	29785.66
616.76	30024.39
616.92	29823.11
617.07	30017.37
617.22	29766.93
617.37	29273.08
617.53	29827.79
617.68	29874.60
617.83	29848.85
617.99	29813.74
618.14	29776.30
618.29	29780.98
618.45	29792.68
618.60	29762.25
618.75	29736.51
618.90	29996.31
619.06	29397.13
619.21	29750.55
619.36	29544.58
619.51	29315.21
619.67	29223.93
619.82	29401.81
619.97	29640.54
620.12	29259.04
620.28	29692.04
620.43	29862.90
620.58	29851.19
620.73	29750.55
620.89	29687.36
621.04	29596.07
621.19	29612.46
621.34	29378.40
621.49	29600.76
621.65	29546.92
621.80	29362.02
621.95	29106.90
622.10	29582.03
622.25	29191.16
622.41	29298.83
622.56	29244.99
622.71	29237.97
622.86	29223.93
623.01	29214.57
623.16	29350.32
623.32	28856.46
623.47	29181.80
623.62	28966.47
623.77	29146.69
623.92	29071.79
624.07	28985.19
624.23	28924.34
624.38	29427.56
624.53	29333.93
624.68	29336.27
624.83	29486.07
624.98	29462.66
625.13	29275.42
625.29	29502.45
625.44	28732.42
625.59	29010.94
625.74	28821.36
625.89	28320.48
626.04	28980.51
626.19	28835.40
626.34	28629.43
626.49	28584.96
626.65	29074.13
626.80	29006.26
626.95	28779.23
627.10	29308.19
627.25	28959.45
627.40	28421.13
627.55	29041.37
627.70	28903.28
627.85	28219.84
628.00	28489.00
628.15	29228.61
628.30	28374.31
628.45	28996.90
628.60	28437.51
628.76	28481.98
628.91	28615.39
629.06	28865.83
629.21	28517.09
629.36	28847.10
629.51	28727.74
629.66	28261.97
629.81	28449.21
629.96	28144.94
630.11	28027.92
630.26	28528.79
630.41	28299.42
630.56	27768.12
630.71	28451.55
630.86	28613.05
631.01	28510.07
631.16	28505.38
631.31	28339.21
631.46	28367.29
631.61	28350.91
631.76	28187.07
631.91	28247.93
632.06	28416.44
632.21	28025.57
632.36	28318.14
632.51	27983.44
632.66	28154.30
632.81	27931.95
632.96	28250.27
633.10	28025.57
633.25	28428.15
633.40	28023.23
633.55	27981.10
633.70	28166.01
633.85	27709.60
634.00	27873.44
634.15	27833.65
634.30	27866.42
634.45	27737.69
634.60	27845.35
634.75	27990.47
634.90	27828.97
635.05	27857.06
635.19	27950.68
635.34	28411.76
635.49	28322.82
635.64	27683.86
635.79	27917.91
635.94	27735.35
636.09	27721.30
636.24	27917.91
636.39	27505.98
636.53	27658.11
636.68	27630.02
636.83	27353.84
636.98	27693.22
637.13	27435.76
637.28	27517.68
637.43	27782.16
637.57	27814.93
637.72	27527.04
637.87	27548.11
638.02	27807.90
638.17	27733.01
638.32	27513.00
638.46	27438.10
638.61	27447.46
638.76	27225.11
638.91	27173.62
639.06	27115.11
639.20	27524.70
639.35	27482.57
639.50	27496.61
639.65	27388.95
639.80	27672.15
639.94	27410.01
640.09	27452.14
640.24	27201.71
640.39	27112.77
640.54	27197.02
640.68	27054.25
640.83	27047.23
640.98	26630.62
641.13	27091.70
641.27	27267.24
641.42	27154.90
641.57	27075.32
641.72	26939.57
641.86	26855.31
642.01	26726.58
642.16	27049.57
642.31	26991.06
642.45	27129.15
642.60	26883.39
642.75	26747.64
642.90	26918.50
643.04	26918.50
643.19	26529.97
643.34	26871.69
643.48	27009.78
643.63	26733.60
643.78	27257.88
643.93	26977.01
644.07	26932.54
644.22	26852.97
644.37	26902.12
644.51	27070.64
644.66	26696.15
644.81	26965.31
644.95	26618.91
645.10	26754.66
645.25	26506.57
645.39	26710.19
645.54	26595.51
645.69	26518.27
645.83	26710.19
645.98	26698.49
646.13	26815.52
646.27	26672.74
646.42	26553.38
646.57	26611.89
646.71	26745.30
646.86	26370.82
647.00	26237.41
647.15	26211.66
647.30	26455.08
647.44	26106.34
647.59	26450.39
647.74	26197.62
647.88	26511.25
648.03	26410.60
648.17	26918.50
648.32	26850.63
648.47	26476.14
648.61	26501.89
648.76	26230.38
648.90	26438.69
649.05	26160.17
649.20	26209.32
649.34	26223.36
649.49	25816.11
649.63	26125.06
649.78	26008.03
649.92	25734.19
650.07	26492.52
650.21	26010.37
650.36	26251.45
650.51	26167.19
650.65	26204.64
650.80	26349.75
650.94	26054.84
651.09	26012.71
651.23	26190.59
651.38	26043.14
651.52	25525.88
651.67	25951.86
651.81	26286.56
651.96	25979.95
652.10	26092.29
652.25	25982.29
652.39	26045.48
652.54	26132.08
652.68	26214.00
652.83	25942.50
652.97	26089.95
653.12	26190.59
653.26	25764.62
653.41	25972.92
653.55	25603.12
653.70	25612.48
653.84	25577.37
653.99	25909.73
654.13	25757.60
654.27	25825.47
654.42	25715.47
654.56	25816.11
654.71	25802.07
654.85	25778.66
655.00	25586.74
655.14	25659.29
655.29	26017.40
655.43	25724.83
655.57	25572.69
655.72	25062.46
655.86	25446.30
656.01	25291.83
656.15	25507.16
656.30	25577.37
656.44	25336.30
656.58	25153.74
656.73	25263.74
656.87	25221.61
657.01	25748.23
657.16	25427.58
657.30	25500.14
657.45	25387.79
657.59	25174.80
657.73	25223.95
657.88	25179.48
658.02	24875.21
658.16	24826.06
658.31	25177.14
658.45	24978.20
658.60	24568.60
658.74	25041.39
658.88	24779.25
659.03	24952.45
659.17	25289.49
659.31	25329.28
659.46	24854.15
659.60	24774.57
659.74	24903.30
659.89	25013.31
660.03	24704.35
660.17	24865.85
660.32	24737.12
660.46	24699.67
660.60	24474.98
660.74	24730.10
660.89	24554.56
661.03	24755.85
661.17	24451.58
661.32	24346.25
661.46	24877.55
661.60	24554.56
661.74	24664.57
661.89	24423.49
662.03	24568.60
662.17	24552.22
662.31	24222.20
662.46	24334.55
662.60	24191.78
662.74	24299.44
662.88	24479.66
663.03	24002.19
663.17	24159.01
663.31	23889.85
663.45	23768.14
663.60	23962.40
663.74	23885.17
663.88	23927.30
664.02	23896.87
664.17	24470.30
664.31	23735.37
664.45	23995.17
664.59	24070.07
664.73	23978.79
664.88	23716.65
665.02	23611.32
665.16	23550.47
665.30	23550.47
665.44	23391.31
665.59	23274.29
665.73	23520.04
665.87	23260.24
666.01	23522.38
666.15	23653.45
666.29	23775.16
666.44	23903.89
666.58	23627.71
666.72	23337.48
666.86	23438.12
667.00	23726.01
667.14	23564.51
667.28	23503.66
667.43	23520.04
667.57	23276.63
667.71	23225.14
667.85	23190.03
667.99	22991.08
668.13	23054.28
668.27	23314.08
668.41	23023.85
668.56	22750.01
668.70	23363.23
668.84	23103.43
668.98	22995.76
669.12	22904.48
669.26	23047.26
669.40	23037.89
669.54	22972.36
669.68	22796.82
669.82	22583.83
669.96	22401.27
670.10	22630.64
670.25	22852.99
670.39	22728.94
670.53	22471.48
670.67	22305.31
670.81	22621.28
670.95	22321.69
671.09	22562.76
671.23	22237.43
671.37	22307.65
671.51	22380.20
671.65	22256.15
671.79	22164.87
671.93	22260.84
672.07	22211.68
672.21	22169.55
672.35	21898.05
672.49	21666.34
672.63	21764.64
672.77	21518.89
672.91	21986.99
673.05	21811.45
673.19	22010.40
673.33	21694.43
673.47	21881.67
673.61	21790.39
673.75	21759.96
673.89	21516.54
674.03	21715.49
674.17	21259.09
674.31	21532.93
674.45	21310.58
674.59	21507.18
674.73	21518.89
674.87	21312.92
675.01	21298.88
675.15	20975.88
675.29	21296.53
675.43	20924.39
675.56	20847.15
675.70	21186.53
675.84	21102.27
675.98	20418.83
676.12	21406.54
676.26	21256.75
676.40	20823.75
676.54	20601.40
676.68	20898.64
676.82	20500.75
676.96	20577.99
677.10	20711.40
677.23	20182.44
677.37	20393.09
677.51	20346.28
677.65	20276.06
677.79	20002.22
677.93	20081.80
678.07	20037.33
678.21	19941.36
678.34	19999.88
678.48	20060.73
678.62	20081.80
678.76	20196.48
678.90	19779.87
679.04	19620.71
679.18	19573.90
679.31	19419.42
679.45	19398.36
679.59	19166.65
679.73	19321.12
679.87	19131.54
680.00	19094.09
680.14	19005.15
680.28	19274.31
680.42	19026.21
680.56	19197.07
680.70	19070.68
680.83	19192.39
680.97	19098.77
681.11	19150.26
681.25	18789.82
681.39	18703.22
681.52	19157.28
681.66	18593.22
681.80	18445.76
681.94	18513.64
682.07	18480.87
682.21	18541.72
682.35	18181.28
682.49	18417.68
682.62	17984.68
682.76	17982.34
682.90	18153.20
683.04	17980.00
683.17	18216.39
683.31	18260.86
683.45	18160.22
683.59	17804.46
683.72	17797.43
683.86	17642.96
684.00	17853.61
684.13	17621.89
684.27	17736.58
684.41	17383.16
684.55	17193.58
684.68	17163.15
684.82	17359.75
684.96	17280.18
685.09	17371.46
685.23	17095.27
685.37	17139.74
685.50	16886.97
685.64	17060.16
685.78	17270.81
685.91	17266.13
686.05	17458.06
686.19	16861.22
686.32	16989.95
686.46	16847.18
686.60	16645.89
686.73	16760.58
686.87	16631.85
687.01	16659.93
687.14	16444.60
687.28	16311.19
687.42	16432.90
687.55	15896.92
687.69	16348.64
687.82	16355.66
687.96	16067.78
688.10	16105.23
688.23	16145.02
688.37	15925.00
688.50	15943.73
688.64	16074.80
688.78	15761.17
688.91	15742.44
689.05	15742.44
689.18	15463.92
689.32	15349.23
689.46	15585.63
689.59	15323.49
689.73	15414.77
689.86	15246.25
690.00	15470.94
690.13	15487.32
690.27	15208.80
690.41	15234.55
690.54	15035.60
690.68	15360.94
690.81	15190.08
690.95	15227.53
691.08	15147.95
691.22	14883.47
691.35	14927.94
691.49	15269.66
691.62	14941.98
691.76	14590.90
691.89	14614.30
692.03	14471.53
692.16	14520.68
692.30	14427.06
692.43	14185.99
692.57	14537.07
692.70	14293.65
692.84	14331.10
692.97	14429.40
693.11	14249.18
693.24	14204.71
693.38	14092.37
693.51	14094.71
693.65	14022.15
693.78	14108.75
693.92	14120.45
694.05	14031.51
694.19	13640.64
694.32	13610.22
694.45	13708.52
694.59	13764.69
694.72	13642.98
694.86	13549.36
694.99	13348.08
695.13	13231.05
695.26	13198.28
695.39	12994.65
695.53	13226.37
695.66	13226.37
695.80	13263.82
695.93	12971.25
696.07	13057.85
696.20	13277.86
696.33	13083.59
696.47	13013.38
696.60	12940.82
696.73	12915.08
696.87	12606.13
697.00	12697.41
697.14	12397.82
697.27	12343.99
697.40	12351.01
697.54	12374.41
697.67	12299.52
697.80	12093.55
697.94	12362.71
698.07	12348.67
698.21	12135.68
698.34	12241.00
698.47	12271.43
698.61	12269.09
698.74	12386.12
698.87	12231.64
699.01	12039.72
699.14	12208.23
699.27	11859.49
699.40	11733.11
699.54	11655.87
699.67	11803.32
699.80	11477.99
699.94	11744.81
700.07	11653.53
700.20	11447.56
700.34	11332.87
700.47	11489.69
700.60	11173.72
700.73	11440.54
700.87	11164.36
701.00	11276.70
701.13	11166.70
701.26	11283.72
701.40	11143.29
701.53	11073.07
701.66	10963.07
701.79	10862.43
701.93	10874.13
702.06	10588.58
702.19	10920.94
702.32	10913.92
702.46	10635.39
702.59	10588.58
702.72	10394.32
702.85	10403.68
702.99	10340.49
703.12	10494.96
703.25	10298.36
703.38	10221.12
703.51	10284.31
703.65	10221.12
703.78	10420.06
703.91	10115.80
704.04	10480.92
704.17	10331.12
704.31	10462.19
704.44	9823.23
704.57	9951.96
704.70	9888.76
704.83	9816.21
704.96	9881.74
705.10	9940.26
705.23	9624.28
>>>>>End Processed Spectral Data<<<<<
