SpectraSuite Data File
++++++++++++++++++++++++++++++++++++
Date: Fri Oct 18 13:57:58 GMT-05:00 2013
User: bianchi
Dark Spectrum Present: No
Reference Spectrum Present: No
Number of Sampled Component Spectra: 1
Spectrometers: USB2+H05261
Integration Time (usec): 50000 (USB2+H05261)
Spectra Averaged: 1 (USB2+H05261)
Boxcar Smoothing: 0 (USB2+H05261)
Correct for Electrical Dark: No (USB2+H05261)
Strobe/Lamp Enabled: No (USB2+H05261)
Correct for Detector Non-linearity: No (USB2+H05261)
Correct for Stray Light: No (USB2+H05261)
Number of Pixels in Processed Spectrum: 2048
>>>>>Begin Processed Spectral Data<<<<<
365.73	0.00
365.92	0.00
366.12	0.00
366.32	0.00
366.52	0.00
366.72	0.00
366.91	0.00
367.11	0.00
367.31	0.00
367.51	0.00
367.70	0.00
367.90	0.00
368.10	0.00
368.30	0.00
368.49	0.00
368.69	0.00
368.89	0.00
369.09	0.00
369.28	0.00
369.48	0.00
369.68	0.00
369.87	0.00
370.07	0.00
370.27	0.00
370.47	23.41
370.66	58.51
370.86	105.32
371.06	114.69
371.25	154.48
371.45	114.69
371.65	135.75
371.84	187.24
372.04	187.24
372.24	166.18
372.44	79.58
372.63	217.67
372.83	264.48
373.03	182.56
373.22	154.48
373.42	175.54
373.62	252.78
373.81	290.23
374.01	224.69
374.21	250.44
374.40	234.05
374.60	320.65
374.79	236.39
374.99	177.88
375.19	241.08
375.38	294.91
375.58	241.08
375.78	311.29
375.97	182.56
376.17	322.99
376.37	248.10
376.56	322.99
376.76	212.99
376.95	269.16
377.15	301.93
377.35	283.20
377.54	283.20
377.74	215.33
377.93	222.35
378.13	283.20
378.33	266.82
378.52	243.42
378.72	325.33
378.91	280.86
379.11	292.57
379.31	255.12
379.50	264.48
379.70	325.33
379.89	299.59
380.09	318.31
380.28	355.76
380.48	259.80
380.68	325.33
380.87	330.02
381.07	294.91
381.26	322.99
381.46	292.57
381.65	374.49
381.85	266.82
382.04	355.76
382.24	348.74
382.43	362.78
382.63	379.17
382.83	348.74
383.02	374.49
383.22	409.59
383.41	369.80
383.61	330.02
383.80	409.59
384.00	327.68
384.19	351.08
384.39	425.98
384.58	395.55
384.78	379.17
384.97	393.21
385.17	259.80
385.36	435.34
385.56	458.74
385.75	325.33
385.95	433.00
386.14	414.27
386.34	379.17
386.53	339.38
386.72	341.72
386.92	454.06
387.11	425.98
387.31	414.27
387.50	379.17
387.70	433.00
387.89	414.27
388.09	447.04
388.28	451.72
388.48	409.59
388.67	428.32
388.86	514.92
389.06	437.68
389.25	447.04
389.45	479.81
389.64	451.72
389.84	498.53
390.03	451.72
390.22	447.04
390.42	477.47
390.61	468.11
390.81	456.40
391.00	484.49
391.19	566.41
391.39	580.45
391.58	472.79
391.78	489.17
391.97	543.00
392.16	505.56
392.36	514.92
392.55	617.90
392.75	575.77
392.94	514.92
393.13	596.84
393.33	533.64
393.52	503.22
393.71	606.20
393.91	578.11
394.10	566.41
394.29	636.63
394.49	545.34
394.68	594.50
394.88	624.92
395.07	667.05
395.26	615.56
395.46	589.82
395.65	655.35
395.84	596.84
396.04	702.16
396.23	716.20
396.42	620.24
396.62	596.84
396.81	690.46
397.00	638.97
397.19	727.91
397.39	709.18
397.58	697.48
397.77	685.78
397.97	653.01
398.16	704.50
398.35	648.33
398.55	758.33
398.74	795.78
398.93	814.51
399.12	615.56
399.32	720.88
399.51	711.52
399.70	669.39
399.90	718.54
400.09	734.93
400.28	784.08
400.47	805.14
400.67	770.04
400.86	716.20
401.05	870.68
401.24	795.78
401.44	854.30
401.63	770.04
401.82	809.83
402.01	851.96
402.21	751.31
402.40	823.87
402.59	798.12
402.78	873.02
402.97	823.87
403.17	840.25
403.36	875.36
403.55	929.19
403.74	959.62
403.93	891.74
404.13	866.00
404.32	908.13
404.51	856.64
404.70	985.37
404.89	968.98
405.09	952.60
405.28	985.37
405.47	1043.88
405.66	1071.97
405.85	1032.18
406.05	973.66
406.24	919.83
406.43	983.02
406.62	1055.58
406.81	1034.52
407.00	985.37
407.20	1001.75
407.39	1041.54
407.58	1081.33
407.77	1128.14
407.96	1100.05
408.15	1036.86
408.34	1123.46
408.54	1081.33
408.73	1118.78
408.92	1156.22
409.11	1062.60
409.30	1144.52
409.49	1217.08
409.68	1191.33
409.87	1256.87
410.07	1109.41
410.26	1188.99
410.45	1177.29
410.64	1284.95
410.83	1174.95
411.02	1210.06
411.21	1341.13
411.40	1277.93
411.59	1299.00
411.78	1310.70
411.98	1350.49
412.17	1306.02
412.36	1299.00
412.55	1345.81
412.74	1399.64
412.93	1341.13
413.12	1287.29
413.31	1483.90
413.50	1380.92
413.69	1448.79
413.88	1533.05
414.07	1387.94
414.26	1423.05
414.45	1586.88
414.64	1516.67
414.83	1495.60
415.02	1458.15
415.22	1507.30
415.41	1610.29
415.60	1565.82
415.79	1668.80
415.98	1699.23
416.17	1570.50
416.36	1689.87
416.55	1699.23
416.74	1687.53
416.93	1727.32
417.12	1664.12
417.31	1654.76
417.50	1710.93
417.69	1781.15
417.88	1710.93
418.07	1706.25
418.26	1762.42
418.45	1750.72
418.64	1823.28
418.83	1736.68
419.02	1823.28
419.21	1858.39
419.39	1832.64
419.58	1825.62
419.77	1891.15
419.96	1820.94
420.15	1893.49
420.34	1907.54
420.53	1874.77
420.72	2057.33
420.91	1987.11
421.10	2003.50
421.29	2122.87
421.48	1963.71
421.67	1956.69
421.86	1900.52
422.05	1987.11
422.24	2031.58
422.43	2015.20
422.61	2012.86
422.80	2092.44
422.99	1933.28
423.18	2120.53
423.37	1982.43
423.56	2094.78
423.75	1959.03
423.94	2033.93
424.13	1954.35
424.32	1926.26
424.50	2073.71
424.69	2139.25
424.88	2125.21
425.07	2104.14
425.26	2059.67
425.45	2087.76
425.64	2076.06
425.83	2113.50
426.01	2062.01
426.20	2087.76
426.39	2045.63
426.58	2113.50
426.77	2244.57
426.96	2150.95
427.15	2054.99
427.33	2132.23
427.52	2146.27
427.71	2062.01
427.90	2209.47
428.09	2195.42
428.28	2216.49
428.46	2258.62
428.65	2382.67
428.84	2249.25
429.03	2387.35
429.22	2291.38
429.40	2214.15
429.59	2338.20
429.78	2125.21
429.97	2333.51
430.16	2237.55
430.34	2251.60
430.53	2314.79
430.72	2331.17
430.91	2499.69
431.10	2335.85
431.28	2392.03
431.47	2436.50
431.66	2497.35
431.85	2394.37
432.03	2413.09
432.22	2499.69
432.41	2387.35
432.60	2377.98
432.79	2436.50
432.97	2499.69
433.16	2473.95
433.35	2567.57
433.54	2616.72
433.72	2654.17
433.91	2579.27
434.10	2633.10
434.28	2499.69
434.47	2567.57
434.66	2668.21
434.85	2740.77
435.03	2705.66
435.22	2593.31
435.41	2747.79
435.59	2658.85
435.78	2766.51
435.97	2696.30
436.16	2803.96
436.34	2597.99
436.53	2719.70
436.72	2729.06
436.90	2562.89
437.09	2740.77
437.28	2649.49
437.46	2754.81
437.65	2794.60
437.84	2803.96
438.02	2820.35
438.21	2850.77
438.40	2860.13
438.58	2963.12
438.77	2944.39
438.96	2897.58
439.14	2958.44
439.33	3056.74
439.52	3080.14
439.70	2991.20
439.89	3192.49
440.08	3082.49
440.26	3122.27
440.45	3159.72
440.63	3105.89
440.82	3276.75
441.01	3129.30
441.19	3145.68
441.38	3251.00
441.57	3260.37
441.75	3218.24
441.94	3241.64
442.12	3405.48
442.31	3389.10
442.50	3213.56
442.68	3398.46
442.87	3351.65
443.05	3548.25
443.24	3494.42
443.43	3459.31
443.61	3384.41
443.80	3478.04
443.98	3468.67
444.17	3295.47
444.35	3419.52
444.54	3653.58
444.73	3548.25
444.91	3440.59
445.10	3602.08
445.28	3527.19
445.47	3541.23
445.65	3325.90
445.84	3550.59
446.02	3536.55
446.21	3485.06
446.39	3478.04
446.58	3515.48
446.77	3515.48
446.95	3501.44
447.14	3604.42
447.32	3569.32
447.51	3590.38
447.69	3644.21
447.88	3688.68
448.06	3653.58
448.25	3611.45
448.43	3630.17
448.62	3620.81
448.80	3660.60
448.99	3728.47
449.17	3749.54
449.36	3765.92
449.54	3737.84
449.73	3747.20
449.91	3721.45
450.10	3857.20
450.28	3887.63
450.46	3801.03
450.65	3691.02
450.83	3896.99
451.02	3810.39
451.20	3803.37
451.39	3850.18
451.57	3873.59
451.76	3803.37
451.94	3878.27
452.13	3936.78
452.31	3985.93
452.49	3805.71
452.68	3878.27
452.86	3927.42
453.05	3971.89
453.23	3822.09
453.42	4016.36
453.60	3995.29
453.78	4095.94
453.97	4004.66
454.15	3925.08
454.34	4018.70
454.52	4100.62
454.70	4163.81
454.89	4173.18
455.07	4180.20
455.26	4074.87
455.44	4126.36
455.62	4222.33
455.81	4170.83
455.99	4278.50
456.17	4070.19
456.36	4273.82
456.54	4236.37
456.73	4353.40
456.91	4367.44
457.09	4423.61
457.28	4430.63
457.46	4322.97
457.64	4503.19
457.83	4341.69
458.01	4404.89
458.19	4559.36
458.38	4489.15
458.56	4542.98
458.74	4610.86
458.93	4697.46
459.11	4432.97
459.29	4533.62
459.48	4596.81
459.66	4535.96
459.84	4643.62
460.03	4718.52
460.21	4498.51
460.39	4667.03
460.57	4596.81
460.76	4685.75
460.94	4662.35
461.12	4561.70
461.31	4854.27
461.49	4660.01
461.67	4645.96
461.85	4692.77
462.04	4819.16
462.22	5029.81
462.40	4861.29
462.59	4957.25
462.77	4765.33
462.95	4957.25
463.13	4795.76
463.32	4882.36
463.50	4952.57
463.68	4997.04
463.86	4861.29
464.05	4842.57
464.23	4781.71
464.41	5015.77
464.59	4931.51
464.78	5039.17
464.96	4985.34
465.14	4978.32
465.32	5029.81
465.50	5085.98
465.69	5242.80
465.87	5125.77
466.05	5165.56
466.23	5071.94
466.41	5198.33
466.60	5364.51
466.78	5060.24
466.96	5018.11
467.14	5083.64
467.32	5109.39
467.51	5289.61
467.69	5149.18
467.87	5287.27
468.05	5350.46
468.23	5186.63
468.41	5303.65
468.60	5441.75
468.78	5411.32
468.96	5313.02
469.14	5411.32
469.32	5617.29
469.50	5261.52
469.69	5521.32
469.87	5565.79
470.05	5488.56
470.23	5441.75
470.41	5565.79
470.59	5607.92
470.77	5530.69
470.95	5483.88
471.14	5788.14
471.32	5666.44
471.50	5830.27
471.68	5820.91
471.86	5708.57
472.04	5682.82
472.22	5923.90
472.40	5720.27
472.58	5839.64
472.77	5942.62
472.95	6106.46
473.13	6139.23
473.31	5975.39
473.49	5966.03
473.67	5963.68
473.85	6022.20
474.03	6296.04
474.21	6001.13
474.39	6113.48
474.57	6246.89
474.75	6382.64
474.93	6202.42
475.12	6232.85
475.30	6193.06
475.48	6260.93
475.66	6403.71
475.84	6459.88
476.02	6399.02
476.20	6436.47
476.38	6558.18
476.56	6719.68
476.74	6682.23
476.92	6682.23
477.10	6656.48
477.28	6686.91
477.46	6780.53
477.64	7009.90
477.82	6899.90
478.00	7232.26
478.18	6888.20
478.36	7112.89
478.54	7115.23
478.72	7293.11
478.90	7349.28
479.08	7428.86
479.26	7463.97
479.44	7447.58
479.62	7522.48
479.80	7721.43
479.98	7599.72
480.16	7784.62
480.34	7770.58
480.52	7903.99
480.70	7815.05
480.88	7730.79
481.06	7751.85
481.24	7730.79
481.41	8152.09
481.59	8133.36
481.77	8189.53
481.95	8236.35
482.13	8098.25
482.31	8259.75
482.49	8542.96
482.67	8407.20
482.85	8664.66
483.03	8657.64
483.21	8564.02
483.39	8854.25
483.57	8858.93
483.74	8865.95
483.92	8933.82
484.10	8919.78
484.28	9013.40
484.46	9034.47
484.64	9334.06
484.82	9266.18
485.00	9561.09
485.18	9376.19
485.35	9624.28
485.53	9565.77
485.71	9556.41
485.89	9895.78
486.07	9919.19
486.25	9701.52
486.43	9729.61
486.61	10071.33
486.78	10087.71
486.96	10197.71
487.14	10256.23
487.32	10129.84
487.50	10410.70
487.68	10464.54
487.85	10670.50
488.03	10848.38
488.21	10855.40
488.39	10960.73
488.57	10757.10
488.75	10949.03
488.92	11194.78
489.10	11162.01
489.28	11073.07
489.46	11342.24
489.64	11236.91
489.81	11396.07
489.99	11506.07
490.17	11669.91
490.35	11791.62
490.53	11810.34
490.70	11910.99
490.88	11854.81
491.06	12159.08
491.24	11988.22
491.41	12255.04
491.59	12109.93
491.77	12322.92
491.95	12411.86
492.13	12484.42
492.30	12706.77
492.48	12697.41
492.66	12807.41
492.84	12428.24
493.01	12730.17
493.19	12865.92
493.37	13041.46
493.54	13057.85
493.72	13121.04
493.90	13245.09
494.08	13329.35
494.25	13488.51
494.43	13547.02
494.61	13530.64
494.79	13570.43
494.96	13671.07
495.14	13748.31
495.32	13973.00
495.49	13961.30
495.67	14148.54
495.85	13961.30
496.02	14225.78
496.20	14040.87
496.38	14174.28
496.55	14527.71
496.73	14403.66
496.91	14752.40
497.09	14789.85
497.26	14600.26
497.44	14815.59
497.62	14675.16
497.79	14939.64
497.97	14862.40
498.14	15176.03
498.32	15096.46
498.50	15311.78
498.67	15073.05
498.85	15129.22
499.03	15475.62
499.20	15421.79
499.38	15517.75
499.56	15461.58
499.73	15613.71
499.91	15873.51
500.08	15866.49
500.26	15501.37
500.44	15754.15
500.61	15697.97
500.79	16154.38
500.97	16020.97
501.14	16215.23
501.32	16191.83
501.49	16311.19
501.67	16088.84
501.84	16238.64
502.02	16105.23
502.20	16236.30
502.37	16533.54
502.55	16662.27
502.72	16496.10
502.90	16512.48
503.07	16533.54
503.25	16484.39
503.43	16629.51
503.60	16844.84
503.78	16734.83
503.95	17020.38
504.13	16924.41
504.30	17046.12
504.48	16812.07
504.65	17441.67
504.83	17345.71
505.01	17614.87
505.18	17605.51
505.36	17547.00
505.53	17561.04
505.71	17539.97
505.88	17575.08
506.06	17436.99
506.23	17848.93
506.41	17834.88
506.58	17783.39
506.76	17713.17
506.93	17692.11
507.11	17717.86
507.28	17958.93
507.46	18106.38
507.63	18031.49
507.81	18300.65
507.98	18001.06
508.16	18108.72
508.33	18235.11
508.50	18345.12
508.68	18473.85
508.85	18726.63
509.03	18513.64
509.20	18747.69
509.38	18789.82
509.55	18850.67
509.73	18726.63
509.90	18862.38
510.08	19112.81
510.25	18902.17
510.42	18939.62
510.60	19288.35
510.77	19236.86
510.95	18965.36
511.12	19241.54
511.30	19325.80
511.47	19447.51
511.64	19403.04
511.82	19747.10
511.99	19470.92
512.17	19566.88
512.34	19711.99
512.51	19831.36
512.69	20049.03
512.86	19655.82
513.04	19957.75
513.21	20147.33
513.38	19875.83
513.56	20046.69
513.73	19784.55
513.90	19946.05
514.08	19903.92
514.25	20189.46
514.43	20432.88
514.60	20372.02
514.77	20407.13
514.95	20184.78
515.12	20343.94
515.29	20421.17
515.47	20617.78
515.64	21081.21
515.81	20566.29
515.99	20645.87
516.16	20849.49
516.33	20528.84
516.51	21050.78
516.68	20367.34
516.85	21053.12
517.03	21109.29
517.20	21160.78
517.37	21039.08
517.54	20943.11
517.72	21511.86
517.89	21146.74
518.06	21003.97
518.24	21390.16
518.41	21261.43
518.58	21221.64
518.75	21191.21
518.93	21579.74
519.10	21575.06
519.27	21345.69
519.45	21238.02
519.62	21687.40
519.79	21640.59
519.96	21778.68
520.14	21642.93
520.31	21607.83
520.48	21628.89
520.65	21654.64
520.83	21977.63
521.00	21837.20
521.17	22043.17
521.34	22075.93
521.52	22127.42
521.69	22199.98
521.86	22157.85
522.03	22106.36
522.20	22190.62
522.38	22520.63
522.55	22211.68
522.72	22146.15
522.89	22405.95
523.07	22712.56
523.24	22604.89
523.41	22780.43
523.58	22394.25
523.75	22831.93
523.92	22618.94
524.10	22738.30
524.27	22792.14
524.44	22963.00
524.61	23342.16
524.78	23143.22
524.96	23550.47
525.13	23021.51
525.30	23056.62
525.47	23023.85
525.64	23007.47
525.81	23147.90
525.98	23477.91
526.16	23363.23
526.33	23232.16
526.50	23267.27
526.67	23133.86
526.84	23346.84
527.01	23349.18
527.18	23587.92
527.36	23679.20
527.53	23805.59
527.70	23742.39
527.87	23730.69
528.04	23812.61
528.21	23889.85
528.38	23843.04
528.55	23981.13
528.72	23964.75
528.89	23971.77
529.07	23917.93
529.24	24088.79
529.41	24290.08
529.58	24276.04
529.75	23875.80
529.92	23845.38
530.09	24194.12
530.26	24023.26
530.43	24247.95
530.60	24320.51
530.77	24376.68
530.94	24648.18
531.11	24189.44
531.28	24126.24
531.46	24472.64
531.63	24603.71
531.80	24741.80
531.97	24709.04
532.14	24411.79
532.31	24821.38
532.48	24496.05
532.65	24795.64
532.82	24769.89
532.99	24884.58
533.16	24907.98
533.33	24933.73
533.50	25254.38
533.67	25256.72
533.84	24751.17
534.01	25046.07
534.18	24837.76
534.35	25453.33
534.52	25156.08
534.69	25350.34
534.86	25610.14
535.03	25383.11
535.20	25294.17
535.37	25303.53
535.54	25240.34
535.71	24788.61
535.88	25729.51
536.05	25221.61
536.22	25645.25
536.38	25509.50
536.55	25504.82
536.72	25682.70
536.89	25738.87
537.06	25642.91
537.23	25586.74
537.40	25432.26
537.57	25771.64
537.74	25869.94
537.91	26169.53
538.08	25982.29
538.25	25827.81
538.42	25855.90
538.59	25823.13
538.75	25773.98
538.92	25905.05
539.09	25909.73
539.26	26045.48
539.43	25968.24
539.60	25898.03
539.77	26300.60
539.94	26111.02
540.11	26183.57
540.28	26487.84
540.44	25923.77
540.61	26377.84
540.78	26127.40
540.95	26558.06
541.12	26094.63
541.29	26508.91
541.46	26164.85
541.62	26019.74
541.79	26298.26
541.96	26080.59
542.13	26387.20
542.30	27028.51
542.47	26995.74
542.63	26597.85
542.80	27030.85
542.97	27056.59
543.14	27152.55
543.31	27054.25
543.48	27042.55
543.64	27374.91
543.81	27096.38
543.98	27513.00
544.15	27337.46
544.32	27283.62
544.48	27494.27
544.65	27302.35
544.82	27103.40
544.99	26962.97
545.16	27449.80
545.32	27171.28
545.49	27211.07
545.66	27730.67
545.83	27447.46
546.00	27468.53
546.16	27255.54
546.33	27672.15
546.50	27365.54
546.67	27962.38
546.83	27295.33
547.00	27278.94
547.17	27513.00
547.34	27735.35
547.50	27924.93
547.67	27838.33
547.84	27686.20
548.00	27758.75
548.17	27711.94
548.34	27967.06
548.51	27768.12
548.67	28102.81
548.84	28219.84
549.01	28079.41
549.18	28079.41
549.34	28095.79
549.51	27978.76
549.68	27587.89
549.84	27915.57
550.01	28121.54
550.18	28025.57
550.34	28102.81
550.51	28217.50
550.68	28425.81
550.84	27779.82
551.01	28320.48
551.18	28065.36
551.34	28063.02
551.51	27882.80
551.68	28428.15
551.84	28280.69
552.01	28320.48
552.18	28439.85
552.34	28268.99
552.51	28411.76
552.68	28451.55
552.84	28807.31
553.01	28788.59
553.18	28329.84
553.34	28793.27
553.51	28999.24
553.67	28914.98
553.84	29055.41
554.01	28608.37
554.17	29017.96
554.34	28835.40
554.51	28617.73
554.67	28837.74
554.84	28732.42
555.00	28624.75
555.17	28814.34
555.33	29340.96
555.50	28931.36
555.67	29127.97
555.83	28826.04
556.00	28765.18
556.16	28716.03
556.33	29064.77
556.50	29254.36
556.66	29453.30
556.83	28936.04
556.99	29364.36
557.16	29156.05
557.32	29305.85
557.49	29371.38
557.65	29132.65
557.82	28985.19
557.98	29244.99
558.15	28914.98
558.32	29153.71
558.48	29186.48
558.65	29134.99
558.81	29219.25
558.98	29575.01
559.14	29612.46
559.31	29399.47
559.47	29350.32
559.64	29039.03
559.80	29579.69
559.97	29612.46
560.13	29259.04
560.30	29219.25
560.46	29610.12
560.63	29703.74
560.79	29434.58
560.96	29619.48
561.12	29553.94
561.29	29413.51
561.45	29397.13
561.61	29729.48
561.78	29776.30
561.94	29694.38
562.11	29734.17
562.27	29872.26
562.44	29977.58
562.60	29556.28
562.77	29661.61
562.93	29731.83
563.10	29951.84
563.26	29759.91
563.42	29979.92
563.59	29680.33
563.75	30045.46
563.92	30110.99
564.08	29376.06
564.24	29818.42
564.41	29862.90
564.57	30050.14
564.74	30211.64
564.90	29816.08
565.07	30417.60
565.23	29998.65
565.39	30270.15
565.56	29907.37
565.72	30019.71
565.88	30045.46
566.05	29916.73
566.21	30061.84
566.38	30422.28
566.54	29898.00
566.70	30328.66
566.87	30534.63
567.03	30518.25
567.19	30312.28
567.36	29972.90
567.52	29890.98
567.68	30536.97
567.85	30221.00
568.01	30209.29
568.17	29642.88
568.34	30321.64
568.50	30331.00
568.66	30249.08
568.83	30019.71
568.99	29993.97
569.15	30239.72
569.32	30316.96
569.48	29773.95
569.64	30174.19
569.81	30265.47
569.97	30345.05
570.13	30527.61
570.30	30513.56
570.46	30178.87
570.62	30256.11
570.78	30838.90
570.95	29998.65
571.11	30040.78
571.27	30204.61
571.43	30426.96
571.60	30396.54
571.76	30333.34
571.92	30260.79
572.09	30436.33
572.25	30843.58
572.41	30642.29
572.57	30370.79
572.74	30859.96
572.90	30363.77
573.06	30246.74
573.22	30679.74
573.38	30328.66
573.55	30160.14
573.71	30948.90
573.87	30721.87
574.03	30249.08
574.20	30441.01
574.36	30600.16
574.52	30349.73
574.68	30520.59
574.84	30691.44
575.01	30412.92
575.17	30672.72
575.33	30368.45
575.49	30541.65
575.65	30780.39
575.82	30780.39
575.98	30749.96
576.14	30883.37
576.30	30764.00
576.46	30532.29
576.62	30377.81
576.79	30511.22
576.95	30174.19
577.11	30677.40
577.27	30899.75
577.43	31370.20
577.59	30642.29
577.75	30635.27
577.92	30497.18
578.08	30436.33
578.24	30794.43
578.40	30719.53
578.56	30579.10
578.72	30789.75
578.88	30721.87
579.04	30939.54
579.21	30504.20
579.37	30998.06
579.53	30700.81
579.69	30871.67
579.85	30506.54
580.01	30799.11
580.17	30616.55
580.33	30686.76
580.49	30642.29
580.65	30703.15
580.82	30967.63
580.98	30698.47
581.14	30998.06
581.30	31126.78
581.46	30639.95
581.62	30703.15
581.78	30604.84
581.94	30848.26
582.10	30342.70
582.26	30904.43
582.42	30478.46
582.58	30815.49
582.74	30890.39
582.90	30635.27
583.06	30864.64
583.22	30499.52
583.38	30852.94
583.54	30534.63
583.70	30745.28
583.86	30707.83
584.02	30838.90
584.18	30871.67
584.34	30749.96
584.50	31070.61
584.66	30588.46
584.82	30665.70
584.98	30621.23
585.14	30855.28
585.30	30810.81
585.46	31012.10
585.62	30415.26
585.78	30756.98
585.94	30710.17
586.10	30881.03
586.26	31044.87
586.42	30976.99
586.58	30988.69
586.74	30733.57
586.90	30778.04
587.06	30731.23
587.22	30684.42
587.38	30707.83
587.54	30941.88
587.70	30775.70
587.86	30946.56
588.02	30937.20
588.18	31409.99
588.34	31129.12
588.49	31150.19
588.65	30789.75
588.81	30845.92
588.97	31028.48
589.13	30904.43
589.29	31054.23
589.45	31262.54
589.61	31262.54
589.77	31431.05
589.93	31089.34
590.08	31117.42
590.24	31225.09
590.40	31133.81
590.56	31189.98
590.72	30670.38
590.88	30803.79
591.04	31171.25
591.20	31515.31
591.35	31288.28
591.51	31608.93
591.67	31370.20
591.83	31285.94
591.99	31309.35
592.15	31138.49
592.31	31129.12
592.46	31250.83
592.62	31089.34
592.78	31192.32
592.94	31302.32
593.10	31026.14
593.26	31232.11
593.41	31318.71
593.57	31314.03
593.73	31370.20
593.89	31569.15
594.05	31211.04
594.20	31159.55
594.36	31325.73
594.52	30841.24
594.68	31152.53
594.84	31124.44
594.99	31332.75
595.15	31461.48
595.31	31529.36
595.47	31599.57
595.62	31580.85
595.78	31192.32
595.94	31260.20
596.10	31161.89
596.25	31583.19
596.41	31276.58
596.57	31379.56
596.73	31222.75
596.88	31213.38
597.04	31419.35
597.20	31159.55
597.36	31236.79
597.51	31297.64
597.67	31309.35
597.83	31768.09
597.99	31522.34
598.14	31255.51
598.30	31594.89
598.46	31339.77
598.61	31372.54
598.77	31161.89
598.93	31363.18
599.09	31166.57
599.24	31847.67
599.40	31627.66
599.56	31740.00
599.71	31463.82
599.87	31431.05
600.03	31765.75
600.18	31417.01
600.34	30979.33
600.50	31164.23
600.65	31234.45
600.81	31613.62
600.97	31646.38
601.12	32053.64
601.28	31555.10
601.44	31608.93
601.59	31660.43
601.75	31798.52
601.91	31548.08
602.06	31428.71
602.22	31592.55
602.37	31314.03
602.53	31796.18
602.69	31779.79
602.84	31770.43
603.00	31784.48
603.16	31285.94
603.31	31412.33
603.47	31594.89
603.62	31402.97
603.78	31519.99
603.94	31056.57
604.09	31346.79
604.25	31147.85
604.40	31552.76
604.56	31360.84
604.71	31662.77
604.87	31627.66
605.03	31758.73
605.18	31615.96
605.34	31552.76
605.49	31126.78
605.65	31421.69
605.80	31173.60
605.96	31143.17
606.12	30993.37
606.27	31564.46
606.43	31316.37
606.58	31871.07
606.74	31311.69
606.89	31213.38
607.05	31185.30
607.20	31459.14
607.36	31435.74
607.51	31538.72
607.67	31225.09
607.82	31440.42
607.98	31246.15
608.13	31426.37
608.29	31417.01
608.44	31098.70
608.60	31353.82
608.75	31409.99
608.91	31372.54
609.06	31309.35
609.22	31328.07
609.37	30925.50
609.53	31199.34
609.68	30848.26
609.84	31110.40
609.99	31131.47
610.15	31173.60
610.30	31091.68
610.46	31070.61
610.61	31330.41
610.76	31033.16
610.92	31337.43
611.07	31199.34
611.23	30911.46
611.38	31391.26
611.54	31051.89
611.69	30941.88
611.84	30705.49
612.00	31051.89
612.15	30890.39
612.31	30951.24
612.46	30965.29
612.62	31124.44
612.77	30808.47
612.92	31360.84
613.08	31030.82
613.23	31335.09
613.39	30895.07
613.54	30469.09
613.69	30932.52
613.85	30625.91
614.00	31075.29
614.15	30747.62
614.31	31143.17
614.46	31117.42
614.62	30866.98
614.77	30768.68
614.92	30796.77
615.08	30911.46
615.23	30995.71
615.38	30948.90
615.54	30707.83
615.69	30581.44
615.84	30508.88
616.00	30391.86
616.15	30646.97
616.30	30820.17
616.46	30902.09
616.61	30831.88
616.76	30735.92
616.92	30984.01
617.07	30686.76
617.22	30157.80
617.37	30569.74
617.53	30822.51
617.68	30611.87
617.83	30169.51
617.99	30661.02
618.14	30614.21
618.29	30216.32
618.45	30679.74
618.60	30565.06
618.75	30618.89
618.90	30658.68
619.06	30607.19
619.21	30363.77
619.36	30415.26
619.51	30429.30
619.67	30235.04
619.82	30059.50
619.97	30221.00
620.12	29993.97
620.28	30015.03
620.43	30286.53
620.58	30487.82
620.73	30529.95
620.89	30295.89
621.04	30422.28
621.19	30221.00
621.34	29961.20
621.49	30061.84
621.65	30197.59
621.80	30492.50
621.95	29961.20
622.10	30293.55
622.25	29762.25
622.41	29998.65
622.56	30087.59
622.71	30256.11
622.86	29881.62
623.01	30228.02
623.16	29937.79
623.32	30000.99
623.47	29689.70
623.62	30022.05
623.77	30284.19
623.92	29858.21
624.07	30015.03
624.23	29764.59
624.38	30029.07
624.53	29748.21
624.68	30022.05
624.83	30232.70
624.98	30103.97
625.13	29832.47
625.29	29874.60
625.44	29640.54
625.59	29862.90
625.74	29940.13
625.89	29373.72
626.04	29724.80
626.19	29617.14
626.34	29752.89
626.49	29673.31
626.65	29153.71
626.80	29404.15
626.95	29685.01
627.10	29731.83
627.25	29493.09
627.40	29469.69
627.55	29284.78
627.70	29200.52
627.85	29237.97
628.00	29427.56
628.15	29191.16
628.30	29273.08
628.45	29289.46
628.60	29193.50
628.76	29228.61
628.91	29329.25
629.06	29575.01
629.21	29584.37
629.36	29420.53
629.51	29174.78
629.66	29572.67
629.81	28999.24
629.96	29235.63
630.11	29170.10
630.26	29177.12
630.41	28992.22
630.56	28856.46
630.71	29001.58
630.86	29020.30
631.01	29319.89
631.16	29240.31
631.31	29053.07
631.46	28900.94
631.61	29249.67
631.76	29050.73
631.91	29350.32
632.06	28577.94
632.21	28716.03
632.36	28999.24
632.51	28889.23
632.66	28699.65
632.81	28856.46
632.96	29034.35
633.10	28975.83
633.25	28975.83
633.40	29106.90
633.55	28751.14
633.70	28966.47
633.85	28479.64
634.00	28226.86
634.15	28779.23
634.30	28362.61
634.45	28678.58
634.60	28613.05
634.75	28903.28
634.90	28304.10
635.05	28732.42
635.19	28467.94
635.34	28678.58
635.49	28479.64
635.64	28793.27
635.79	28807.31
635.94	28348.57
636.09	28486.66
636.24	28158.99
636.39	28175.37
636.53	28507.72
636.68	28318.14
636.83	28278.35
636.98	28638.80
637.13	28041.96
637.28	28517.09
637.43	28545.17
637.57	28421.13
637.72	28156.64
637.87	28163.67
638.02	28308.78
638.17	28053.66
638.32	28013.87
638.46	28407.08
638.61	27917.91
638.76	27969.40
638.91	28060.68
639.06	27967.06
639.20	27908.55
639.35	28013.87
639.50	28208.14
639.65	28098.13
639.80	28203.46
639.94	28053.66
640.09	27990.47
640.24	28135.58
640.39	27896.85
640.54	27833.65
640.68	27435.76
640.83	27868.76
640.98	27873.44
641.13	27733.01
641.27	27906.21
641.42	27777.48
641.57	27789.18
641.72	28025.57
641.86	27541.08
642.01	27835.99
642.16	27765.78
642.31	27529.38
642.45	27749.39
642.60	27676.83
642.75	27721.30
642.90	27356.18
643.04	27267.24
643.19	27264.90
643.34	27695.56
643.48	27323.41
643.63	28027.92
643.78	27562.15
643.93	27302.35
644.07	27756.41
644.22	27826.63
644.37	27672.15
644.51	27220.43
644.66	27824.29
644.81	27386.61
644.95	27597.26
645.10	27173.62
645.25	27316.39
645.39	27335.12
645.54	27419.38
645.69	27470.87
645.83	27262.56
645.98	27307.03
646.13	27344.48
646.27	27498.95
646.42	27290.65
646.57	27175.96
646.71	27044.89
646.86	27285.97
647.00	26988.72
647.15	27342.14
647.30	26937.23
647.44	27449.80
647.59	27175.96
647.74	27335.12
647.88	27124.47
648.03	27229.79
648.17	27143.19
648.32	26932.54
648.47	26803.82
648.61	27030.85
648.76	26977.01
648.90	27065.96
649.05	26904.46
649.20	26867.01
649.34	27005.10
649.49	26398.90
649.63	26761.69
649.78	27075.32
649.92	26707.85
650.07	27124.47
650.21	26508.91
650.36	26742.96
650.51	26628.27
650.65	27077.66
650.80	26792.11
650.94	26562.74
651.09	26539.33
651.23	26710.19
651.38	26654.02
651.52	26892.76
651.67	26923.18
651.81	26881.05
651.96	26632.96
652.10	26597.85
652.25	26946.59
652.39	26813.18
652.54	26815.52
652.68	26693.81
652.83	26647.00
652.97	26834.24
653.12	26419.97
653.26	26391.88
653.41	26525.29
653.55	26401.24
653.70	26291.24
653.84	26515.93
653.99	26733.60
654.13	26511.25
654.27	26490.18
654.42	26511.25
654.56	26644.66
654.71	26654.02
654.85	26340.39
655.00	26677.43
655.14	26253.79
655.29	26214.00
655.43	26345.07
655.57	26274.85
655.72	26052.50
655.86	26324.01
656.01	26300.60
656.15	26232.72
656.30	26185.91
656.44	26022.08
656.58	26349.75
656.73	25724.83
656.87	25993.99
657.01	26071.23
657.16	26354.43
657.30	26309.96
657.45	26171.87
657.59	26052.50
657.73	25949.52
657.88	25633.55
658.02	26038.46
658.16	25446.30
658.31	25717.81
658.45	26010.37
658.60	25781.00
658.74	25425.24
658.88	25771.64
659.03	25621.84
659.17	25458.01
659.31	26036.12
659.46	25467.37
659.60	25841.85
659.74	25521.20
659.89	25345.66
660.03	25450.99
660.17	25694.40
660.32	25528.22
660.46	25355.02
660.60	25500.14
660.74	25472.05
660.89	25357.36
661.03	25205.23
661.17	25025.01
661.32	24858.83
661.46	25373.75
661.60	25336.30
661.74	25443.96
661.89	25572.69
662.03	25291.83
662.17	25125.65
662.31	25104.59
662.46	25256.72
662.60	25324.60
662.74	24936.07
662.88	24919.68
663.03	24772.23
663.17	24821.38
663.31	24807.34
663.45	24652.86
663.60	24634.14
663.74	24243.27
663.88	24926.71
664.02	24474.98
664.17	24837.76
664.31	24669.25
664.45	24362.64
664.59	24975.86
664.73	24833.08
664.88	24697.33
665.02	24470.30
665.16	24346.25
665.30	24079.43
665.44	24226.89
665.59	24259.65
665.73	24154.33
665.87	24357.96
666.01	24444.56
666.15	24081.77
666.29	24224.54
666.44	24315.83
666.58	24095.82
666.72	24053.69
666.86	24374.34
667.00	24357.96
667.14	23864.10
667.28	23768.14
667.43	24018.58
667.57	23733.03
667.71	23791.55
667.85	23522.38
667.99	23360.89
668.13	23803.25
668.27	23665.16
668.41	23871.12
668.56	23419.40
668.70	23934.32
668.84	23623.03
668.98	23597.28
669.12	23730.69
669.26	23716.65
669.40	23686.22
669.54	23543.45
669.68	23388.97
669.82	23344.50
669.96	23192.37
670.10	23344.50
670.25	22906.82
670.39	23108.11
670.53	23152.58
670.67	22817.88
670.81	22843.63
670.95	23030.87
671.09	22801.50
671.23	22869.37
671.37	22752.35
671.51	22829.59
671.65	23129.17
671.79	22738.30
671.93	22618.94
672.07	23103.43
672.21	22515.95
672.35	22441.06
672.49	22054.87
672.63	22405.95
672.77	22377.86
672.91	22331.05
673.05	22293.60
673.19	21979.97
673.33	22616.60
673.47	22504.25
673.61	22202.32
673.75	22377.86
673.89	22183.60
674.03	22338.07
674.17	22286.58
674.31	21844.22
674.45	21881.67
674.59	21928.48
674.73	22082.95
674.87	22317.01
675.01	21673.36
675.15	21893.37
675.29	21600.80
675.43	21432.29
675.56	21757.62
675.70	21303.56
675.84	21673.36
675.98	21034.39
676.12	21788.05
676.26	21493.14
676.40	21970.61
676.54	21518.89
676.68	20978.22
676.82	21177.17
676.96	21310.58
677.10	20957.16
677.23	20950.14
677.37	20645.87
677.51	20924.39
677.65	20776.94
677.79	20697.36
677.93	20606.08
678.07	20823.75
678.21	20568.63
678.34	20517.14
678.48	20620.12
678.62	20393.09
678.76	20388.41
678.90	20301.81
679.04	20245.63
679.18	20374.36
679.31	19950.73
679.45	20058.39
679.59	19976.47
679.73	19852.42
679.87	19709.65
680.00	19779.87
680.14	19786.89
680.28	19548.15
680.42	19594.96
680.56	19711.99
680.70	19435.81
680.83	19763.48
680.97	19564.54
681.11	19541.13
681.25	19531.77
681.39	19634.75
681.52	19496.66
681.66	19180.69
681.80	19164.31
681.94	19126.86
682.07	19005.15
682.21	19000.47
682.35	18820.25
682.49	18684.50
682.62	18726.63
682.76	18853.02
682.90	18609.60
683.04	18693.86
683.17	18658.75
683.31	18595.56
683.45	18333.42
683.59	18539.38
683.72	18352.14
683.86	18553.43
684.00	18466.83
684.13	18391.93
684.27	17991.70
684.41	18136.81
684.55	17757.64
684.68	17600.83
684.82	17668.70
684.96	17678.07
685.09	17762.33
685.23	17481.46
685.37	17298.90
685.50	18134.47
685.64	17731.90
685.78	17617.21
685.91	17792.75
686.05	17844.24
686.19	17387.84
686.32	17617.21
686.46	17184.21
686.60	17128.04
686.73	17256.77
686.87	17121.02
687.01	17191.23
687.14	17039.10
687.28	16552.27
687.42	16482.05
687.55	16875.26
687.69	17071.87
687.82	16996.97
687.96	16442.26
688.10	16343.96
688.23	16533.54
688.37	16732.49
688.50	16402.47
688.64	16346.30
688.78	16346.30
688.91	16262.04
689.05	16121.61
689.18	16105.23
689.32	15765.85
689.46	15932.03
689.59	15695.63
689.73	15913.30
689.86	15712.02
690.00	15889.90
690.13	15714.36
690.27	15599.67
690.41	15793.94
690.54	15564.56
690.68	15594.99
690.81	15461.58
690.95	15590.31
691.08	15412.43
691.22	15159.65
691.35	15501.37
691.49	15550.52
691.62	15396.04
691.76	15234.55
691.89	14895.17
692.03	14892.83
692.16	14801.55
692.30	14895.17
692.43	14661.12
692.57	14839.00
692.70	14597.92
692.84	14799.21
692.97	14939.64
693.11	14738.35
693.24	14317.06
693.38	14513.66
693.51	14654.09
693.65	14420.04
693.78	14136.84
693.92	14434.08
694.05	14291.31
694.19	14036.19
694.32	14143.86
694.45	14033.85
694.59	13994.06
694.72	13853.63
694.86	13809.16
694.99	13781.07
695.13	13572.77
695.26	13881.72
695.39	13734.26
695.53	13862.99
695.66	13591.49
695.80	13238.07
695.93	13633.62
696.07	13523.62
696.20	13390.20
696.33	13205.30
696.47	13198.28
696.60	13479.15
696.73	13006.36
696.87	13128.06
697.00	12947.84
697.14	13013.38
697.27	12868.27
697.40	12837.84
697.54	12650.60
697.67	12666.98
697.80	12685.70
697.94	12858.90
698.07	12575.70
698.21	12678.68
698.34	12664.64
698.47	12512.50
698.61	12386.12
698.74	12470.37
698.87	12264.41
699.01	12294.83
699.14	12397.82
699.27	12123.98
699.40	12149.72
699.54	12327.60
699.67	12142.70
699.80	12212.92
699.94	12095.89
700.07	11899.28
700.20	11613.74
700.34	11751.83
700.47	11770.55
700.60	11653.53
700.73	11793.96
700.87	11407.77
701.00	11707.36
701.13	11585.65
701.26	11632.46
701.40	11503.73
701.53	11609.06
701.66	11623.10
701.79	11431.18
701.93	11236.91
702.06	11077.76
702.19	11176.06
702.32	11197.12
702.46	10916.26
702.59	10934.98
702.72	10803.91
702.85	10904.56
702.99	10813.28
703.12	10822.64
703.25	10773.49
703.38	10661.14
703.51	10743.06
703.65	10635.39
703.78	10642.42
703.91	10663.48
704.04	10637.73
704.17	10721.99
704.31	10628.37
704.44	10286.65
704.57	10335.81
704.70	10078.35
704.83	10214.10
704.96	10031.54
705.10	9991.75
705.23	10249.21
>>>>>End Processed Spectral Data<<<<<
