SpectraSuite Data File
++++++++++++++++++++++++++++++++++++
Date: Fri Oct 18 13:58:08 GMT-05:00 2013
User: bianchi
Dark Spectrum Present: No
Reference Spectrum Present: No
Number of Sampled Component Spectra: 1
Spectrometers: USB2+H05261
Integration Time (usec): 50000 (USB2+H05261)
Spectra Averaged: 1 (USB2+H05261)
Boxcar Smoothing: 0 (USB2+H05261)
Correct for Electrical Dark: No (USB2+H05261)
Strobe/Lamp Enabled: No (USB2+H05261)
Correct for Detector Non-linearity: No (USB2+H05261)
Correct for Stray Light: No (USB2+H05261)
Number of Pixels in Processed Spectrum: 2048
>>>>>Begin Processed Spectral Data<<<<<
365.73	0.00
365.92	0.00
366.12	0.00
366.32	0.00
366.52	0.00
366.72	0.00
366.91	0.00
367.11	0.00
367.31	0.00
367.51	0.00
367.70	0.00
367.90	0.00
368.10	0.00
368.30	0.00
368.49	0.00
368.69	0.00
368.89	0.00
369.09	0.00
369.28	0.00
369.48	0.00
369.68	0.00
369.87	0.00
370.07	0.00
370.27	0.00
370.47	0.00
370.66	107.66
370.86	105.32
371.06	91.28
371.25	91.28
371.45	147.45
371.65	163.84
371.84	198.95
372.04	121.71
372.24	177.88
372.44	234.05
372.63	184.90
372.83	236.39
373.03	259.80
373.22	229.37
373.42	173.20
373.62	222.35
373.81	173.20
374.01	231.71
374.21	250.44
374.40	259.80
374.60	252.78
374.79	285.55
374.99	154.48
375.19	313.63
375.38	248.10
375.58	273.84
375.78	259.80
375.97	273.84
376.17	210.65
376.37	205.97
376.56	203.63
376.76	189.58
376.95	203.63
377.15	259.80
377.35	294.91
377.54	269.16
377.74	327.68
377.93	248.10
378.13	315.97
378.33	287.89
378.52	297.25
378.72	283.20
378.91	283.20
379.11	234.05
379.31	227.03
379.50	280.86
379.70	297.25
379.89	257.46
380.09	271.50
380.28	297.25
380.48	334.70
380.68	294.91
380.87	264.48
381.07	339.38
381.26	351.08
381.46	266.82
381.65	285.55
381.85	353.42
382.04	276.18
382.24	313.63
382.43	290.23
382.63	243.42
382.83	290.23
383.02	383.85
383.22	435.34
383.41	414.27
383.61	383.85
383.80	362.78
384.00	346.40
384.19	393.21
384.39	355.76
384.58	367.46
384.78	358.10
384.97	346.40
385.17	397.89
385.36	372.15
385.56	327.68
385.75	428.32
385.95	435.34
386.14	428.32
386.34	402.57
386.53	374.49
386.72	404.91
386.92	465.77
387.11	505.56
387.31	383.85
387.50	475.13
387.70	372.15
387.89	447.04
388.09	414.27
388.28	477.47
388.48	386.19
388.67	524.28
388.86	444.70
389.06	428.32
389.25	456.40
389.45	402.57
389.64	472.79
389.84	547.69
390.03	533.64
390.22	484.49
390.42	528.96
390.61	514.92
390.81	416.62
391.00	507.90
391.19	545.34
391.39	545.34
391.58	571.09
391.78	533.64
391.97	517.26
392.16	503.22
392.36	692.80
392.55	554.71
392.75	578.11
392.94	540.66
393.13	524.28
393.33	573.43
393.52	566.41
393.71	571.09
393.91	557.05
394.10	669.39
394.29	603.86
394.49	594.50
394.68	566.41
394.88	648.33
395.07	589.82
395.26	535.98
395.46	596.84
395.65	624.92
395.84	629.60
396.04	702.16
396.23	660.03
396.42	594.50
396.62	627.26
396.81	608.54
397.00	645.99
397.19	683.44
397.39	716.20
397.58	653.01
397.77	737.27
397.97	763.01
398.16	716.20
398.35	755.99
398.55	730.25
398.74	716.20
398.93	772.38
399.12	755.99
399.32	643.65
399.51	681.10
399.70	669.39
399.90	795.78
400.09	699.82
400.28	784.08
400.47	826.21
400.67	772.38
400.86	819.19
401.05	760.67
401.24	812.17
401.44	821.53
401.63	842.59
401.82	861.32
402.01	779.40
402.21	851.96
402.40	807.48
402.59	826.21
402.78	929.19
402.97	873.02
403.17	851.96
403.36	812.17
403.55	926.85
403.74	971.32
403.93	910.47
404.13	877.70
404.32	980.68
404.51	870.68
404.70	919.83
404.89	873.02
405.09	905.79
405.28	917.49
405.47	863.66
405.66	1025.15
405.85	973.66
406.05	1088.35
406.24	973.66
406.43	1015.79
406.62	978.34
406.81	1111.75
407.00	1064.94
407.20	1053.24
407.39	1039.20
407.58	1015.79
407.77	1144.52
407.96	1078.99
408.15	1153.88
408.34	1086.01
408.54	1062.60
408.73	1076.65
408.92	1135.16
409.11	1163.25
409.30	1071.97
409.49	1151.54
409.68	1172.61
409.87	1191.33
410.07	1076.65
410.26	1156.22
410.45	1177.29
410.64	1203.04
410.83	1284.95
411.02	1259.21
411.21	1306.02
411.40	1249.85
411.59	1259.21
411.78	1289.64
411.98	1277.93
412.17	1317.72
412.36	1242.82
412.55	1282.61
412.74	1376.24
412.93	1383.26
413.12	1373.89
413.31	1404.32
413.50	1401.98
413.69	1406.66
413.88	1458.15
414.07	1383.26
414.26	1523.69
414.45	1495.60
414.64	1551.78
414.83	1547.09
415.02	1537.73
415.22	1561.14
415.41	1593.90
415.60	1584.54
415.79	1551.78
415.98	1575.18
416.17	1617.31
416.36	1603.27
416.55	1715.61
416.74	1605.61
416.93	1696.89
417.12	1713.27
417.31	1638.38
417.50	1706.25
417.69	1764.76
417.88	1703.91
418.07	1858.39
418.26	1755.40
418.45	1687.53
418.64	1898.17
418.83	1853.70
419.02	1809.23
419.21	1771.79
419.39	1923.92
419.58	1790.51
419.77	1842.00
419.96	1912.22
420.15	1895.83
420.34	1832.64
420.53	1933.28
420.72	1909.88
420.91	1853.70
421.10	1954.35
421.29	1935.62
421.48	1874.77
421.67	2029.24
421.86	1914.56
422.05	1970.73
422.24	2057.33
422.43	1973.07
422.61	2069.03
422.80	2005.84
422.99	2017.54
423.18	2010.52
423.37	2022.22
423.56	2090.10
423.75	1989.46
423.94	1905.20
424.13	1860.73
424.32	1987.11
424.50	1963.71
424.69	2062.01
424.88	2087.76
425.07	2017.54
425.26	2012.86
425.45	1970.73
425.64	2083.08
425.83	1942.64
426.01	2064.35
426.20	2045.63
426.39	2069.03
426.58	2125.21
426.77	2094.78
426.96	2139.25
427.15	2036.27
427.33	2148.61
427.52	2059.67
427.71	2176.70
427.90	2113.50
428.09	2211.81
428.28	2218.83
428.46	2209.47
428.65	2218.83
428.84	2270.32
429.03	2296.07
429.22	2195.42
429.40	2298.41
429.59	2326.49
429.78	2069.03
429.97	2153.29
430.16	2293.72
430.34	2363.94
430.53	2345.22
430.72	2303.09
430.91	2305.43
431.10	2209.47
431.28	2307.77
431.47	2328.83
431.66	2422.45
431.85	2356.92
432.03	2326.49
432.22	2485.65
432.41	2415.43
432.60	2539.48
432.79	2473.95
432.97	2427.14
433.16	2520.76
433.35	2471.61
433.54	2445.86
433.72	2532.46
433.91	2466.92
434.10	2661.19
434.28	2487.99
434.47	2539.48
434.66	2609.70
434.85	2605.02
435.03	2532.46
435.22	2637.78
435.41	2738.43
435.59	2700.98
435.78	2766.51
435.97	2668.21
436.16	2740.77
436.34	2834.39
436.53	2754.81
436.72	2885.88
436.90	2593.31
437.09	2864.82
437.28	2747.79
437.46	2560.55
437.65	2771.19
437.84	2822.69
438.02	2761.83
438.21	2810.98
438.40	2722.04
438.58	2920.99
438.77	2904.60
438.96	2867.16
439.14	2946.73
439.33	2949.08
439.52	3030.99
439.70	3016.95
439.89	3084.83
440.08	3014.61
440.26	3038.02
440.45	2979.50
440.63	3091.85
440.82	3290.79
441.01	3206.53
441.19	3208.87
441.38	3286.11
441.57	3321.22
441.75	3274.41
441.94	3386.76
442.12	3393.78
442.31	3445.27
442.50	3384.41
442.68	3407.82
442.87	3393.78
443.05	3442.93
443.24	3466.33
443.43	3311.86
443.61	3492.08
443.80	3616.13
443.98	3384.41
444.17	3421.86
444.35	3478.04
444.54	3595.06
444.73	3428.88
444.91	3475.70
445.10	3522.51
445.28	3440.59
445.47	3365.69
445.65	3510.80
445.84	3499.10
446.02	3534.21
446.21	3403.14
446.39	3398.46
446.58	3574.00
446.77	3620.81
446.95	3370.37
447.14	3569.32
447.32	3688.68
447.51	3517.83
447.69	3524.85
447.88	3492.08
448.06	3506.12
448.25	3527.19
448.43	3599.74
448.62	3634.85
448.80	3581.02
448.99	3707.41
449.17	3634.85
449.36	3676.98
449.54	3676.98
449.73	3737.84
449.91	3812.73
450.10	3845.50
450.28	3810.39
450.46	3826.78
450.65	3765.92
450.83	3840.82
451.02	3700.39
451.20	3906.35
451.39	3796.35
451.57	3777.62
451.76	3822.09
451.94	3978.91
452.13	3962.53
452.31	3873.59
452.49	3911.04
452.68	3941.46
452.86	3911.04
453.05	3934.44
453.23	3936.78
453.42	3812.73
453.60	3915.72
453.78	4016.36
453.97	3992.95
454.15	3915.72
454.34	4011.68
454.52	3990.61
454.70	3927.42
454.89	4077.21
455.07	4039.76
455.26	4166.15
455.44	4081.89
455.62	3967.21
455.81	4102.96
455.99	4210.62
456.17	4145.09
456.36	4203.60
456.54	4124.02
456.73	4362.76
456.91	4409.57
457.09	4367.44
457.28	4278.50
457.46	4152.11
457.64	4337.01
457.83	4435.32
458.01	4332.33
458.19	4381.48
458.38	4608.51
458.56	4660.01
458.74	4503.19
458.93	4603.83
459.11	4603.83
459.29	4435.32
459.48	4592.13
459.66	4465.74
459.84	4620.22
460.03	4578.09
460.21	4629.58
460.39	4531.28
460.57	4638.94
460.76	4547.66
460.94	4723.20
461.12	4667.03
461.31	4795.76
461.49	4631.92
461.67	4667.03
461.85	4828.53
462.04	4760.65
462.22	5032.15
462.40	4896.40
462.59	4889.38
462.77	4938.53
462.95	4894.06
463.13	4884.70
463.32	4898.74
463.50	4922.15
463.68	4865.97
463.86	4990.02
464.05	4814.48
464.23	4830.87
464.41	4858.95
464.59	4821.50
464.78	4980.66
464.96	4954.91
465.14	4924.49
465.32	5022.79
465.50	5041.51
465.69	5135.14
465.87	5088.32
466.05	4983.00
466.23	5025.13
466.41	4978.32
466.60	5205.35
466.78	5048.54
466.96	5160.88
467.14	5074.28
467.32	5177.26
467.51	5317.70
467.69	5156.20
467.87	5085.98
468.05	5268.55
468.23	5135.14
468.41	5125.77
468.60	5270.89
468.78	5268.55
468.96	5195.99
469.14	5336.42
469.32	5486.22
469.50	5207.69
469.69	5378.55
469.87	5495.58
470.05	5430.04
470.23	5687.50
470.41	5530.69
470.59	5603.24
470.77	5455.79
470.95	5687.50
471.14	5633.67
471.32	5563.45
471.50	5624.31
471.68	5762.40
471.86	5692.18
472.04	5809.21
472.22	5743.67
472.40	5738.99
472.58	5937.94
472.77	5673.46
472.95	5926.24
473.13	6083.05
473.31	5851.34
473.49	5823.25
473.67	5928.58
473.85	6047.94
474.03	6120.50
474.21	6059.65
474.39	5926.24
474.57	6246.89
474.75	6239.87
474.93	6218.80
475.12	6296.04
475.30	6392.00
475.48	6167.31
475.66	6366.26
475.84	6338.17
476.02	6406.05
476.20	6384.98
476.38	6415.41
476.56	6604.99
476.74	6614.35
476.92	6555.84
477.10	6572.22
477.28	6675.21
477.46	6761.81
477.64	6827.34
477.82	6839.05
478.00	6834.36
478.18	6813.30
478.36	7222.89
478.54	7318.86
478.72	7124.59
478.90	7080.12
479.08	7138.63
479.26	7454.61
479.44	7276.73
479.62	7164.38
479.80	7566.95
479.98	7623.12
480.16	7782.28
480.34	7681.64
480.52	7768.24
480.70	7641.85
480.88	7494.40
481.06	7801.01
481.24	7976.55
481.41	7885.26
481.59	8028.04
481.77	8138.04
481.95	8161.45
482.13	8184.85
482.31	8226.98
482.49	8454.02
482.67	8344.01
482.85	8533.59
483.03	8676.37
483.21	8671.68
483.39	8622.53
483.57	8777.01
483.74	8664.66
483.92	8774.67
484.10	8863.61
484.28	9062.55
484.46	9151.49
484.64	9198.31
484.82	9181.92
485.00	9118.73
485.18	9179.58
485.35	9664.07
485.53	9551.73
485.71	9476.83
485.89	9643.01
486.07	9652.37
486.25	9846.63
486.43	9923.87
486.61	9996.43
486.78	9930.89
486.96	10134.52
487.14	10394.32
487.32	10293.68
487.50	10274.95
487.68	10270.27
487.85	10593.26
488.03	10544.11
488.21	10637.73
488.39	10548.79
488.57	10810.93
488.75	10705.61
488.92	11169.04
489.10	11194.78
489.28	11108.18
489.46	11208.83
489.64	11257.98
489.81	11527.14
489.99	11250.96
490.17	11573.95
490.35	11796.30
490.53	11597.35
490.70	11735.45
490.88	11733.11
491.06	11894.60
491.24	11770.55
491.41	11829.07
491.59	12091.21
491.77	11969.50
491.95	12077.16
492.13	12664.64
492.30	12458.67
492.48	12418.88
492.66	12334.62
492.84	12453.99
493.01	12898.69
493.19	12734.85
493.37	12737.20
493.54	13046.15
493.72	12926.78
493.90	12957.21
494.08	12987.63
494.25	13359.78
494.43	13331.69
494.61	13554.04
494.79	13640.64
494.96	13359.78
495.14	13535.32
495.32	13652.34
495.49	13809.16
495.67	13790.44
495.85	13923.85
496.02	14176.62
496.20	14143.86
496.38	13944.91
496.55	14300.67
496.73	14478.55
496.91	14497.28
497.09	14618.99
497.26	14705.59
497.44	14546.43
497.62	14485.58
497.79	14911.55
497.97	14525.36
498.14	14920.92
498.32	15077.73
498.50	15049.64
498.67	15147.95
498.85	15087.09
499.03	15342.21
499.20	15037.94
499.38	15246.25
499.56	15197.10
499.73	15279.02
499.91	15665.21
500.08	15559.88
500.26	15552.86
500.44	15737.76
500.61	15609.03
500.79	15819.68
500.97	15892.24
501.14	16177.78
501.32	16058.42
501.49	15901.60
501.67	16079.48
501.84	16320.56
502.02	16238.64
502.20	16194.17
502.37	16123.95
502.55	16175.44
502.72	16248.00
502.90	16341.62
503.07	16336.94
503.25	16718.45
503.43	16503.12
503.60	16746.53
503.78	16739.51
503.95	16676.32
504.13	17228.68
504.30	16718.45
504.48	16849.52
504.65	17060.16
504.83	17149.11
505.01	17495.50
505.18	17287.20
505.36	17329.33
505.53	17125.70
505.71	17331.67
505.88	17390.18
506.06	17305.92
506.23	17624.23
506.41	17839.56
506.58	17710.83
506.76	17722.54
506.93	17914.46
507.11	17671.04
507.28	17834.88
507.46	18008.08
507.63	18003.40
507.81	18118.09
507.98	17827.86
508.16	18108.72
508.33	17975.31
508.50	18305.33
508.68	18286.61
508.85	18174.26
509.03	18590.88
509.20	18291.29
509.38	18644.71
509.55	18663.43
509.73	18586.19
509.90	18944.30
510.08	18471.51
510.25	18520.66
510.42	18721.95
510.60	19037.92
510.77	18806.20
510.95	19152.60
511.12	18988.77
511.30	19314.10
511.47	19115.16
511.64	19264.95
511.82	19417.08
511.99	19475.60
512.17	19105.79
512.34	19302.40
512.51	19569.22
512.69	19386.66
512.86	19477.94
513.04	19709.65
513.21	19445.17
513.38	19992.86
513.56	19704.97
513.73	19950.73
513.90	19903.92
514.08	20013.92
514.25	20063.07
514.43	20264.36
514.60	19976.47
514.77	20343.94
514.95	20044.35
515.12	20224.57
515.29	20147.33
515.47	20315.85
515.64	20568.63
515.81	20381.38
515.99	20547.56
516.16	20767.57
516.33	20868.22
516.51	20655.23
516.68	20699.70
516.85	20636.50
517.03	21003.97
517.20	20882.26
517.37	20917.37
517.54	20971.20
517.72	20985.24
517.89	20840.13
518.06	20978.22
518.24	20872.90
518.41	21092.91
518.58	21247.38
518.75	21099.93
518.93	21324.62
519.10	21083.55
519.27	21383.13
519.45	21238.02
519.62	21600.80
519.79	21380.79
519.96	21563.36
520.14	21652.30
520.31	21425.26
520.48	21802.09
520.65	21734.21
520.83	21600.80
521.00	21766.98
521.17	21790.39
521.34	21750.60
521.52	21879.33
521.69	21872.31
521.86	21816.13
522.03	21837.20
522.20	22305.31
522.38	22176.58
522.55	22265.52
522.72	22211.68
522.89	22270.20
523.07	22363.82
523.24	22532.34
523.41	22522.98
523.58	22473.82
523.75	22665.75
523.92	21991.67
524.10	22312.33
524.27	22958.31
524.44	22927.89
524.61	22586.17
524.78	23033.21
524.96	22970.02
525.13	22852.99
525.30	22766.39
525.47	22867.03
525.64	22820.22
525.81	23183.01
525.98	23461.53
526.16	23194.71
526.33	23056.62
526.50	23466.21
526.67	23002.78
526.84	23145.56
527.01	23215.77
527.18	23288.33
527.36	23407.70
527.53	23269.61
527.70	23981.13
527.87	23800.91
528.04	23695.58
528.21	23714.31
528.38	23608.98
528.55	23903.89
528.72	23943.68
528.89	23637.07
529.07	23761.12
529.24	23728.35
529.41	23962.40
529.58	23990.49
529.75	23882.83
529.92	24039.64
530.09	23854.74
530.26	24144.97
530.43	23805.59
530.60	23676.86
530.77	24034.96
530.94	24355.61
531.11	24091.13
531.28	24044.32
531.46	24226.89
531.63	24491.37
531.80	24212.84
531.97	24446.90
532.14	24783.93
532.31	24592.01
532.48	24762.87
532.65	24308.80
532.82	24297.10
532.99	24545.20
533.16	24474.98
533.33	24786.27
533.50	24917.34
533.67	24812.02
533.84	24952.45
534.01	25078.84
534.18	24465.62
534.35	25127.99
534.52	24741.80
534.69	25010.96
534.86	25074.16
535.03	24687.97
535.20	25209.91
535.37	25453.33
535.54	25106.93
535.71	25116.29
535.88	25298.85
536.05	25348.00
536.22	25266.08
536.38	25406.52
536.55	25427.58
536.72	24837.76
536.89	25495.46
537.06	25523.54
537.23	25741.21
537.40	25142.03
537.57	25308.21
537.74	25469.71
537.91	25675.68
538.08	25523.54
538.25	25783.34
538.42	25663.97
538.59	26085.27
538.75	25184.16
538.92	25628.87
539.09	25961.22
539.26	26033.78
539.43	25680.36
539.60	26082.93
539.77	25898.03
539.94	26094.63
540.11	25895.69
540.28	25834.83
540.44	25708.44
540.61	26108.68
540.78	25923.77
540.95	26089.95
541.12	26153.15
541.29	26199.96
541.46	26384.86
541.62	26178.89
541.79	26600.19
541.96	25883.98
542.13	26258.47
542.30	26548.70
542.47	26525.29
542.63	26679.77
542.80	26665.72
542.97	26752.32
543.14	26717.22
543.31	26852.97
543.48	26836.58
543.64	27075.32
543.81	27016.80
543.98	27239.15
544.15	26806.16
544.32	27122.13
544.48	27283.62
544.65	26969.99
544.82	26934.88
544.99	26759.34
545.16	26897.44
545.32	26675.09
545.49	27080.00
545.66	27229.79
545.83	27190.00
546.00	27328.10
546.16	27208.73
546.33	27140.85
546.50	27065.96
546.67	27255.54
546.83	27150.21
547.00	27295.33
547.17	27075.32
547.34	27513.00
547.50	27508.32
547.67	27608.96
547.84	27749.39
548.00	27737.69
548.17	27669.81
548.34	27793.86
548.51	28123.88
548.67	27433.42
548.84	27686.20
549.01	27676.83
549.18	27784.50
549.34	27721.30
549.51	27866.42
549.68	27859.40
549.84	27377.25
550.01	27941.32
550.18	27812.59
550.34	28091.11
550.51	28259.63
550.68	28322.82
550.84	27756.41
551.01	27875.78
551.18	27679.18
551.34	27697.90
551.51	28048.98
551.68	28170.69
551.84	28276.01
552.01	28254.95
552.18	28339.21
552.34	28240.90
552.51	28362.61
552.68	28322.82
552.84	28287.71
553.01	28500.70
553.18	28271.33
553.34	28402.40
553.51	28552.20
553.67	28437.51
553.84	28882.21
554.01	28362.61
554.17	28367.29
554.34	28615.39
554.51	28599.01
554.67	28655.18
554.84	28739.44
555.00	27955.36
555.17	28648.16
555.33	28577.94
555.50	28718.37
555.67	28390.70
555.83	28657.52
556.00	28933.70
556.16	29287.12
556.33	28776.89
556.50	29134.99
556.66	28833.06
556.83	28699.65
556.99	29062.43
557.16	29020.30
557.32	28910.30
557.49	29244.99
557.65	28779.23
557.82	28477.30
557.98	28903.28
558.15	29050.73
558.32	29034.35
558.48	29237.97
558.65	29490.75
558.81	29230.95
558.98	29179.46
559.14	29219.25
559.31	29163.08
559.47	28755.82
559.64	29132.65
559.80	29240.31
559.97	29336.27
560.13	29153.71
560.30	29628.84
560.46	29385.43
560.63	29584.37
560.79	29425.22
560.96	29116.26
561.12	29369.04
561.29	29181.80
561.45	29523.52
561.61	29628.84
561.78	29628.84
561.94	29809.06
562.11	29542.24
562.27	29488.41
562.44	29488.41
562.60	29010.94
562.77	29380.74
562.93	29118.60
563.10	29844.17
563.26	29287.12
563.42	29685.01
563.59	29694.38
563.75	29483.73
563.92	29872.26
564.08	29359.68
564.24	29380.74
564.41	29528.20
564.57	29486.07
564.74	29708.42
564.90	29542.24
565.07	30071.20
565.23	29926.09
565.39	29734.17
565.56	30019.71
565.72	29614.80
565.88	29549.26
566.05	29413.51
566.21	29902.68
566.38	29898.00
566.54	29720.12
566.70	29963.54
566.87	29696.72
567.03	30148.44
567.19	30139.08
567.36	30005.67
567.52	29586.71
567.68	30340.36
567.85	29462.66
568.01	30096.95
568.17	29567.99
568.34	30108.65
568.50	30101.63
568.66	30115.67
568.83	29963.54
568.99	29968.22
569.15	29916.73
569.32	29996.31
569.48	29762.25
569.64	30125.04
569.81	29706.08
569.97	29984.60
570.13	29926.09
570.30	29689.70
570.46	30078.22
570.62	30031.41
570.78	29755.23
570.95	29575.01
571.11	30223.34
571.27	29652.25
571.43	30312.28
571.60	29895.66
571.76	30171.85
571.92	30305.26
572.09	30478.46
572.25	30101.63
572.41	29942.47
572.57	30026.73
572.74	30012.69
572.90	29834.81
573.06	29937.79
573.22	30132.06
573.38	30022.05
573.55	30110.99
573.71	29982.26
573.87	30787.41
574.03	30143.76
574.20	30125.04
574.36	30096.95
574.52	30265.47
574.68	30228.02
574.84	30183.55
575.01	30136.74
575.17	30171.85
575.33	30108.65
575.49	30279.51
575.65	30263.13
575.82	30291.21
575.98	29949.50
576.14	30253.76
576.30	30331.00
576.46	30178.87
576.62	30288.87
576.79	30368.45
576.95	30476.12
577.11	30911.46
577.27	30300.58
577.43	30448.03
577.59	30632.93
577.75	30560.37
577.92	30188.23
578.08	30246.74
578.24	29916.73
578.40	30464.41
578.56	30171.85
578.72	30546.33
578.88	30749.96
579.04	30668.04
579.21	30436.33
579.37	30637.61
579.53	30682.08
579.69	30384.83
579.85	30340.36
580.01	30216.32
580.17	29968.22
580.33	30546.33
580.49	30478.46
580.65	30677.40
580.82	30443.35
580.98	30408.24
581.14	30501.86
581.30	30525.27
581.46	30450.37
581.62	30136.74
581.78	30431.65
581.94	30593.14
582.10	30466.75
582.26	30354.41
582.42	30597.82
582.58	30780.39
582.74	30508.88
582.90	30525.27
583.06	30415.26
583.22	30412.92
583.38	30551.01
583.54	30361.43
583.70	30441.01
583.86	30829.54
584.02	30136.74
584.18	30347.39
584.34	30581.44
584.50	30738.26
584.66	30628.25
584.82	30345.05
584.98	30768.68
585.14	30389.52
585.30	30450.37
585.46	30670.38
585.62	30457.39
585.78	30384.83
585.94	30387.18
586.10	30719.53
586.26	31058.91
586.42	30916.14
586.58	30815.49
586.74	30398.88
586.90	30305.26
587.06	30628.25
587.22	30670.38
587.38	30555.69
587.54	30536.97
587.70	31353.82
587.86	30878.69
588.02	30714.85
588.18	30927.84
588.34	30649.32
588.49	30724.21
588.65	30204.61
588.81	30487.82
588.97	30998.06
589.13	30417.60
589.29	30621.23
589.45	30775.70
589.61	30836.56
589.77	31026.14
589.93	31028.48
590.08	30869.33
590.24	31194.66
590.40	30696.13
590.56	30813.15
590.72	30871.67
590.88	30485.48
591.04	30981.67
591.20	30796.77
591.35	31063.59
591.51	31637.02
591.67	31299.98
591.83	31122.10
591.99	30682.08
592.15	30778.04
592.31	30946.56
592.46	30426.96
592.62	30890.39
592.78	30654.00
592.94	30848.26
593.10	30885.71
593.26	31180.62
593.41	31028.48
593.57	30792.09
593.73	31075.29
593.89	31442.76
594.05	31330.41
594.20	30661.02
594.36	30878.69
594.52	31040.18
594.68	31115.08
594.84	30986.35
594.99	31124.44
595.15	31112.74
595.31	31171.25
595.47	31309.35
595.62	31173.60
595.78	30745.28
595.94	31477.86
596.10	31367.86
596.25	31189.98
596.41	31049.55
596.57	30726.55
596.73	31035.50
596.88	31213.38
597.04	31346.79
597.20	31033.16
597.36	31229.77
597.51	31342.11
597.67	31302.32
597.83	31187.64
597.99	31201.68
598.14	30768.68
598.30	31271.90
598.46	30749.96
598.61	31222.75
598.77	31166.57
598.93	31218.07
599.09	31229.77
599.24	31442.76
599.40	31449.78
599.56	31332.75
599.71	31236.79
599.87	31503.61
600.03	31248.49
600.18	31180.62
600.34	30810.81
600.50	31030.82
600.65	31344.45
600.81	31578.51
600.97	31344.45
601.12	31154.87
601.28	31395.95
601.44	31243.81
601.59	31304.67
601.75	31239.13
601.91	31487.23
602.06	31094.02
602.22	30906.77
602.37	30885.71
602.53	31325.73
602.69	31033.16
602.84	31166.57
603.00	31498.93
603.16	31363.18
603.31	31683.83
603.47	31395.95
603.62	31103.38
603.78	31000.40
603.94	30710.17
604.09	31068.27
604.25	31194.66
604.40	30885.71
604.56	31686.17
604.71	31117.42
604.87	31189.98
605.03	30916.14
605.18	31218.07
605.34	31211.04
605.49	31126.78
605.65	30848.26
605.80	30780.39
605.96	30785.07
606.12	30836.56
606.27	31124.44
606.43	31204.02
606.58	31222.75
606.74	31204.02
606.89	31299.98
607.05	31622.98
607.20	31152.53
607.36	31283.60
607.51	31075.29
607.67	30871.67
607.82	30848.26
607.98	31185.30
608.13	30909.11
608.29	31187.64
608.44	31295.30
608.60	31374.88
608.75	31243.81
608.91	31091.68
609.06	31040.18
609.22	31164.23
609.37	30665.70
609.53	30958.27
609.68	30698.47
609.84	30834.22
609.99	30885.71
610.15	30855.28
610.30	31260.20
610.46	30972.31
610.61	31159.55
610.76	30930.18
610.92	30969.97
611.07	30878.69
611.23	30948.90
611.38	30764.00
611.54	30525.27
611.69	30497.18
611.84	30403.56
612.00	30588.46
612.15	30841.24
612.31	30899.75
612.46	30782.73
612.62	30794.43
612.77	30536.97
612.92	30824.86
613.08	30700.81
613.23	30525.27
613.39	30572.08
613.54	30471.43
613.69	30569.74
613.85	30431.65
614.00	30586.12
614.15	30721.87
614.31	30609.53
614.46	30541.65
614.62	30705.49
614.77	30185.89
614.92	30529.95
615.08	30581.44
615.23	30319.30
615.38	30756.98
615.54	30349.73
615.69	30288.87
615.84	30157.80
616.00	30785.07
616.15	30415.26
616.30	30621.23
616.46	30455.05
616.61	30511.22
616.76	30462.07
616.92	30654.00
617.07	30494.84
617.22	30265.47
617.37	30223.34
617.53	29855.87
617.68	30103.97
617.83	30265.47
617.99	30429.30
618.14	30256.11
618.29	30323.98
618.45	30595.48
618.60	30354.41
618.75	30314.62
618.90	29951.84
619.06	30529.95
619.21	30080.56
619.36	30190.57
619.51	29888.64
619.67	29572.67
619.82	29979.92
619.97	29869.92
620.12	30029.07
620.28	29778.64
620.43	30132.06
620.58	29928.43
620.73	30115.67
620.89	30073.54
621.04	30314.62
621.19	30223.34
621.34	29977.58
621.49	29771.61
621.65	29986.94
621.80	29886.30
621.95	29769.27
622.10	29769.27
622.25	30181.21
622.41	29790.34
622.56	29818.42
622.71	30047.80
622.86	29640.54
623.01	29909.71
623.16	29722.46
623.32	29652.25
623.47	29659.27
623.62	29649.91
623.77	29617.14
623.92	29977.58
624.07	29736.51
624.23	29469.69
624.38	29270.74
624.53	29766.93
624.68	29530.54
624.83	29832.47
624.98	29635.86
625.13	29556.28
625.29	29923.75
625.44	29551.60
625.59	29523.52
625.74	29226.27
625.89	29345.64
626.04	29406.49
626.19	29287.12
626.34	29326.91
626.49	29380.74
626.65	29163.08
626.80	29294.14
626.95	29488.41
627.10	29163.08
627.25	29050.73
627.40	29057.75
627.55	28985.19
627.70	29013.28
627.85	28772.21
628.00	28893.91
628.15	29219.25
628.30	28980.51
628.45	29397.13
628.60	29186.48
628.76	29418.19
628.91	29055.41
629.06	29043.71
629.21	29521.18
629.36	28725.39
629.51	28893.91
629.66	28781.57
629.81	28940.72
629.96	28863.49
630.11	28706.67
630.26	28535.81
630.41	28933.70
630.56	28643.48
630.71	29326.91
630.86	28922.00
631.01	28889.23
631.16	28907.96
631.31	28701.99
631.46	28800.29
631.61	28830.72
631.76	28456.23
631.91	28720.71
632.06	28573.26
632.21	28575.60
632.36	28879.87
632.51	28393.04
632.66	28369.63
632.81	28381.34
632.96	28699.65
633.10	28716.03
633.25	28659.86
633.40	28339.21
633.55	28390.70
633.70	28299.42
633.85	28086.43
634.00	28030.26
634.15	28339.21
634.30	28435.17
634.45	28407.08
634.60	28264.31
634.75	28273.67
634.90	28283.03
635.05	28554.54
635.19	28114.52
635.34	28379.00
635.49	28453.89
635.64	28320.48
635.79	28367.29
635.94	28268.99
636.09	28741.78
636.24	27906.21
636.39	27948.34
636.53	28112.17
636.68	27913.23
636.83	28158.99
636.98	28102.81
637.13	28123.88
637.28	28411.76
637.43	28126.22
637.57	28151.96
637.72	28198.77
637.87	27861.74
638.02	27651.09
638.17	28116.86
638.32	28175.37
638.46	27742.37
638.61	27644.07
638.76	27964.72
638.91	27938.97
639.06	27807.90
639.20	27852.38
639.35	27789.18
639.50	28161.33
639.65	28098.13
639.80	27651.09
639.94	27765.78
640.09	27782.16
640.24	27936.63
640.39	27754.07
640.54	27714.28
640.68	27456.82
640.83	27321.07
640.98	27204.05
641.13	27496.61
641.27	27330.44
641.42	27342.14
641.57	27255.54
641.72	27477.89
641.86	27660.45
642.01	27655.77
642.16	27447.46
642.31	27463.85
642.45	26944.25
642.60	27255.54
642.75	27049.57
642.90	27250.86
643.04	27501.29
643.19	27157.24
643.34	27433.42
643.48	27543.42
643.63	27246.18
643.78	27381.93
643.93	27665.13
644.07	27089.36
644.22	27302.35
644.37	27243.84
644.51	27302.35
644.66	27171.28
644.81	26962.97
644.95	26923.18
645.10	27098.72
645.25	27190.00
645.39	26981.70
645.54	27356.18
645.69	27077.66
645.83	27140.85
645.98	26890.41
646.13	27281.28
646.27	27250.86
646.42	26902.12
646.57	27049.57
646.71	27101.06
646.86	27290.65
647.00	27185.32
647.15	27185.32
647.30	26848.29
647.44	26684.45
647.59	26639.98
647.74	26375.50
647.88	26871.69
648.03	26824.88
648.17	27178.30
648.32	27082.34
648.47	26532.31
648.61	26342.73
648.76	27094.04
648.90	26672.74
649.05	26728.92
649.20	26527.63
649.34	26448.05
649.49	26373.16
649.63	26307.62
649.78	26799.13
649.92	26305.28
650.07	26850.63
650.21	26672.74
650.36	26513.59
650.51	26700.83
650.65	26656.36
650.80	26621.25
650.94	26342.73
651.09	26260.81
651.23	26485.50
651.38	26485.50
651.52	26401.24
651.67	26354.43
651.81	26520.61
651.96	26225.70
652.10	26125.06
652.25	26553.38
652.39	26518.27
652.54	26380.18
652.68	26218.68
652.83	26462.10
652.97	26813.18
653.12	26305.28
653.26	26366.13
653.41	26192.94
653.55	26164.85
653.70	25832.49
653.84	25905.05
653.99	26022.08
654.13	26302.94
654.27	25750.57
654.42	25912.07
654.56	26267.83
654.71	26265.49
654.85	26111.02
655.00	26038.46
655.14	26040.80
655.29	26181.23
655.43	26089.95
655.57	26118.04
655.72	26305.28
655.86	25991.65
656.01	25940.16
656.15	25603.12
656.30	25745.89
656.44	25617.16
656.58	25731.85
656.73	25862.92
656.87	25806.75
657.01	25816.11
657.16	26089.95
657.30	26017.40
657.45	25837.17
657.59	25563.33
657.73	25364.39
657.88	25862.92
658.02	25855.90
658.16	25591.42
658.31	25795.04
658.45	25338.64
658.60	25369.07
658.74	25542.27
658.88	25549.29
659.03	25420.56
659.17	25369.07
659.31	25598.44
659.46	25757.60
659.60	25469.71
659.74	25689.72
659.89	25223.95
660.03	25355.02
660.17	25235.66
660.32	24826.06
660.46	25151.40
660.60	25027.35
660.74	25008.62
660.89	24999.26
661.03	24627.12
661.17	24896.28
661.32	25268.42
661.46	25460.35
661.60	24807.34
661.74	24896.28
661.89	24968.84
662.03	25333.96
662.17	24746.48
662.31	24460.94
662.46	24772.23
662.60	24821.38
662.74	24805.00
662.88	24629.46
663.03	24865.85
663.17	24142.63
663.31	24313.48
663.45	24266.67
663.60	24364.98
663.74	24540.52
663.88	24465.62
664.02	24226.89
664.17	24753.51
664.31	24470.30
664.45	24444.56
664.59	24423.49
664.73	24292.42
664.88	24231.57
665.02	24060.71
665.16	23995.17
665.30	23931.98
665.44	24161.35
665.59	23838.36
665.73	23821.97
665.87	23845.38
666.01	23988.15
666.15	24023.26
666.29	24004.53
666.44	24041.98
666.58	23576.22
666.72	23943.68
666.86	24123.90
667.00	23726.01
667.14	23651.11
667.28	23730.69
667.43	23665.16
667.57	23634.73
667.71	23503.66
667.85	23878.15
667.99	23330.46
668.13	23520.04
668.27	23606.64
668.41	23578.56
668.56	23335.14
668.70	23489.62
668.84	23648.77
668.98	23377.27
669.12	23124.49
669.26	23009.81
669.40	23461.53
669.54	22974.70
669.68	22813.20
669.82	22934.91
669.96	23243.86
670.10	23208.75
670.25	23094.07
670.39	22766.39
670.53	22661.07
670.67	22532.34
670.81	23101.09
670.95	22717.24
671.09	22808.52
671.23	22682.13
671.37	22834.27
671.51	22822.56
671.65	23178.33
671.79	22923.21
671.93	22630.64
672.07	22422.33
672.21	22441.06
672.35	22501.91
672.49	22466.80
672.63	22183.60
672.77	22113.38
672.91	22331.05
673.05	22286.58
673.19	22160.19
673.33	22122.74
673.47	22265.52
673.61	22216.36
673.75	21816.13
673.89	21977.63
674.03	22022.10
674.17	21886.35
674.31	21617.19
674.45	21647.61
674.59	21656.98
674.73	22043.17
674.87	21682.72
675.01	21820.81
675.15	21247.38
675.29	21441.65
675.43	21266.11
675.56	21605.49
675.70	21472.07
675.84	21621.87
675.98	20634.16
676.12	21518.89
676.26	21603.14
676.40	21207.59
676.54	21193.55
676.68	21120.99
676.82	20872.90
676.96	20751.19
677.10	20819.07
677.23	20734.81
677.37	20173.08
677.51	20573.31
677.65	20421.17
677.79	20491.39
677.93	20437.56
678.07	20301.81
678.21	20255.00
678.34	20240.95
678.48	20044.35
678.62	20166.06
678.76	19988.18
678.90	19861.79
679.04	20067.75
679.18	20091.16
679.31	19892.21
679.45	19833.70
679.59	19513.05
679.73	19763.48
679.87	19920.30
680.00	19501.34
680.14	19688.59
680.28	19328.14
680.42	19538.79
680.56	19597.31
680.70	19295.38
680.83	19744.76
680.97	19484.96
681.11	19424.11
681.25	19264.95
681.39	19377.30
681.52	18948.98
681.66	19129.20
681.80	18916.21
681.94	18532.36
682.07	19051.96
682.21	18927.91
682.35	18815.57
682.49	18483.21
682.62	18298.31
682.76	18515.98
682.90	18623.64
683.04	18448.10
683.17	18513.64
683.31	18324.05
683.45	18558.11
683.59	18382.57
683.72	18052.55
683.86	18080.64
684.00	18054.89
684.13	17905.10
684.27	18040.85
684.41	17743.60
684.55	17975.31
684.68	17610.19
684.82	17736.58
684.96	17621.89
685.09	17696.79
685.23	17467.42
685.37	17486.14
685.50	17668.70
685.64	17664.02
685.78	17551.68
685.91	17273.15
686.05	17324.65
686.19	17319.96
686.32	17270.81
686.46	16999.31
686.60	16987.61
686.73	16872.92
686.87	16592.06
687.01	17011.01
687.14	16629.51
687.28	16673.98
687.42	16690.36
687.55	16629.51
687.69	16517.16
687.82	16620.14
687.96	16332.26
688.10	16346.30
688.23	16388.43
688.37	16585.04
688.50	16229.27
688.64	16184.80
688.78	16313.53
688.91	16060.76
689.05	16133.31
689.18	16149.70
689.32	15651.16
689.46	15641.80
689.59	15660.52
689.73	16123.95
689.86	15616.05
690.00	15627.76
690.13	15641.80
690.27	15391.36
690.41	15695.63
690.54	15712.02
690.68	15529.45
690.81	15669.89
690.95	15281.36
691.08	15587.97
691.22	15377.32
691.35	15164.33
691.49	15356.25
691.62	14897.51
691.76	14923.26
691.89	14923.26
692.03	14764.10
692.16	14773.46
692.30	14647.07
692.43	14548.77
692.57	14532.39
692.70	14436.42
692.84	14618.99
692.97	14218.75
693.11	14321.74
693.24	14368.55
693.38	14417.70
693.51	14225.78
693.65	14523.02
693.78	14258.54
693.92	14382.59
694.05	14064.28
694.19	13820.86
694.32	14221.10
694.45	13898.10
694.59	13584.47
694.72	13661.71
694.86	13474.46
694.99	13518.93
695.13	13621.92
695.26	13544.68
695.39	13282.54
695.53	13528.30
695.66	13291.90
695.80	13607.87
695.93	13263.82
696.07	13542.34
696.20	13406.59
696.33	13420.63
696.47	13212.32
696.60	13177.22
696.73	13177.22
696.87	12889.33
697.00	13076.57
697.14	12650.60
697.27	12578.04
697.40	12634.21
697.54	12634.21
697.67	12540.59
697.80	12491.44
697.94	12620.17
698.07	12259.73
698.21	12528.89
698.34	12461.01
698.47	12456.33
698.61	12306.54
698.74	12514.84
698.87	12449.31
699.01	12233.98
699.14	12035.03
699.27	11791.62
699.40	12147.38
699.54	12039.72
699.67	11850.13
699.80	11833.75
699.94	11639.48
700.07	11548.20
700.20	11527.14
700.34	11461.60
700.47	11686.29
700.60	11688.64
700.73	11585.65
700.87	11550.54
701.00	11342.24
701.13	11580.97
701.26	11522.46
701.40	11515.44
701.53	11257.98
701.66	11276.70
701.79	11117.54
701.93	10986.47
702.06	10869.45
702.19	10841.36
702.32	10827.32
702.46	10923.28
702.59	10874.13
702.72	10628.37
702.85	10675.18
702.99	10658.80
703.12	10663.48
703.25	10583.90
703.38	10539.43
703.51	10696.25
703.65	10424.75
703.78	10469.22
703.91	10588.58
704.04	10401.34
704.17	10441.13
704.31	10139.20
704.44	10085.37
704.57	10399.00
704.70	10029.20
704.83	10125.16
704.96	9769.40
705.10	9919.19
705.23	9823.23
>>>>>End Processed Spectral Data<<<<<
