SpectraSuite Data File
++++++++++++++++++++++++++++++++++++
Date: Fri Oct 18 13:58:12 GMT-05:00 2013
User: bianchi
Dark Spectrum Present: No
Reference Spectrum Present: No
Number of Sampled Component Spectra: 1
Spectrometers: USB2+H05261
Integration Time (usec): 50000 (USB2+H05261)
Spectra Averaged: 1 (USB2+H05261)
Boxcar Smoothing: 0 (USB2+H05261)
Correct for Electrical Dark: No (USB2+H05261)
Strobe/Lamp Enabled: No (USB2+H05261)
Correct for Detector Non-linearity: No (USB2+H05261)
Correct for Stray Light: No (USB2+H05261)
Number of Pixels in Processed Spectrum: 2048
>>>>>Begin Processed Spectral Data<<<<<
365.73	0.00
365.92	0.00
366.12	0.00
366.32	0.00
366.52	0.00
366.72	0.00
366.91	0.00
367.11	0.00
367.31	0.00
367.51	0.00
367.70	0.00
367.90	0.00
368.10	0.00
368.30	0.00
368.49	0.00
368.69	0.00
368.89	0.00
369.09	0.00
369.28	0.00
369.48	0.00
369.68	0.00
369.87	0.00
370.07	0.00
370.27	0.00
370.47	0.00
370.66	25.75
370.86	131.07
371.06	175.54
371.25	215.33
371.45	170.86
371.65	175.54
371.84	128.73
372.04	203.63
372.24	142.77
372.44	182.56
372.63	201.29
372.83	182.56
373.03	198.95
373.22	135.75
373.42	224.69
373.62	276.18
373.81	170.86
374.01	259.80
374.21	166.18
374.40	231.71
374.60	297.25
374.79	231.71
374.99	266.82
375.19	243.42
375.38	243.42
375.58	278.52
375.78	248.10
375.97	250.44
376.17	287.89
376.37	140.43
376.56	241.08
376.76	273.84
376.95	245.76
377.15	304.27
377.35	191.92
377.54	322.99
377.74	252.78
377.93	315.97
378.13	273.84
378.33	308.95
378.52	304.27
378.72	252.78
378.91	294.91
379.11	271.50
379.31	337.04
379.50	301.93
379.70	322.99
379.89	278.52
380.09	264.48
380.28	231.71
380.48	285.55
380.68	355.76
380.87	369.80
381.07	315.97
381.26	369.80
381.46	348.74
381.65	294.91
381.85	313.63
382.04	337.04
382.24	358.10
382.43	418.96
382.63	308.95
382.83	304.27
383.02	315.97
383.22	428.32
383.41	381.51
383.61	358.10
383.80	395.55
384.00	461.09
384.19	376.83
384.39	383.85
384.58	421.30
384.78	374.49
384.97	390.87
385.17	437.68
385.36	433.00
385.56	407.25
385.75	348.74
385.95	444.70
386.14	458.74
386.34	402.57
386.53	418.96
386.72	411.93
386.92	470.45
387.11	362.78
387.31	418.96
387.50	437.68
387.70	379.17
387.89	468.11
388.09	440.02
388.28	510.24
388.48	505.56
388.67	444.70
388.86	337.04
389.06	514.92
389.25	463.43
389.45	479.81
389.64	484.49
389.84	491.51
390.03	477.47
390.22	486.83
390.42	465.77
390.61	465.77
390.81	484.49
391.00	550.03
391.19	519.60
391.39	575.77
391.58	603.86
391.78	564.07
391.97	524.28
392.16	514.92
392.36	685.78
392.55	603.86
392.75	580.45
392.94	519.60
393.13	538.32
393.33	571.09
393.52	575.77
393.71	610.88
393.91	573.43
394.10	627.26
394.29	585.13
394.49	543.00
394.68	599.18
394.88	550.03
395.07	650.67
395.26	653.01
395.46	622.58
395.65	657.69
395.84	650.67
396.04	638.97
396.23	690.46
396.42	620.24
396.62	671.73
396.81	669.39
397.00	702.16
397.19	662.37
397.39	695.14
397.58	737.27
397.77	575.77
397.97	732.59
398.16	664.71
398.35	711.52
398.55	709.18
398.74	699.82
398.93	711.52
399.12	770.04
399.32	777.06
399.51	713.86
399.70	812.17
399.90	784.08
400.09	795.78
400.28	835.57
400.47	837.91
400.67	858.98
400.86	826.21
401.05	751.31
401.24	866.00
401.44	924.51
401.63	896.43
401.82	828.55
402.01	870.68
402.21	877.70
402.40	922.17
402.59	849.61
402.78	851.96
402.97	847.27
403.17	924.51
403.36	983.02
403.55	877.70
403.74	891.74
403.93	847.27
404.13	933.87
404.32	847.27
404.51	866.00
404.70	903.45
404.89	987.71
405.09	1006.43
405.28	973.66
405.47	973.66
405.66	957.28
405.85	966.64
406.05	924.51
406.24	959.62
406.43	1036.86
406.62	1011.11
406.81	1104.73
407.00	938.55
407.20	1008.77
407.39	1013.45
407.58	1090.69
407.77	1053.24
407.96	1130.48
408.15	1111.75
408.34	1048.56
408.54	1128.14
408.73	1212.40
408.92	1081.33
409.11	1219.42
409.30	1163.25
409.49	1174.95
409.68	1064.94
409.87	1137.50
410.07	1102.39
410.26	1170.27
410.45	1186.65
410.64	1245.16
410.83	1235.80
411.02	1282.61
411.21	1254.53
411.40	1287.29
411.59	1287.29
411.78	1259.21
411.98	1263.89
412.17	1362.19
412.36	1331.76
412.55	1334.11
412.74	1409.00
412.93	1385.60
413.12	1263.89
413.31	1378.58
413.50	1406.66
413.69	1338.79
413.88	1437.09
414.07	1451.13
414.26	1406.66
414.45	1561.14
414.64	1432.41
414.83	1483.90
415.02	1565.82
415.22	1586.88
415.41	1596.25
415.60	1621.99
415.79	1589.22
415.98	1654.76
416.17	1633.69
416.36	1575.18
416.55	1603.27
416.74	1687.53
416.93	1657.10
417.12	1689.87
417.31	1717.95
417.50	1748.38
417.69	1746.04
417.88	1760.08
418.07	1778.81
418.26	1792.85
418.45	1769.44
418.64	1879.45
418.83	1806.89
419.02	1921.58
419.21	1856.04
419.39	2010.52
419.58	1842.00
419.77	1825.62
419.96	1895.83
420.15	1806.89
420.34	1853.70
420.53	1916.90
420.72	1909.88
420.91	1942.64
421.10	1872.43
421.29	1954.35
421.48	1886.47
421.67	2008.18
421.86	1998.82
422.05	1919.24
422.24	1966.05
422.43	2094.78
422.61	2129.89
422.80	2045.63
422.99	2026.90
423.18	2047.97
423.37	2087.76
423.56	2043.29
423.75	2064.35
423.94	2040.95
424.13	1944.99
424.32	1973.07
424.50	2071.37
424.69	2036.27
424.88	2003.50
425.07	2087.76
425.26	2040.95
425.45	2113.50
425.64	2022.22
425.83	2026.90
426.01	2062.01
426.20	2101.80
426.39	2118.18
426.58	2052.65
426.77	2181.38
426.96	2169.68
427.15	2085.42
427.33	2179.04
427.52	2113.50
427.71	2188.40
427.90	2209.47
428.09	2106.48
428.28	2310.11
428.46	2195.42
428.65	2214.15
428.84	2359.26
429.03	2324.15
429.22	2298.41
429.40	2275.00
429.59	2385.01
429.78	2291.38
429.97	2225.85
430.16	2244.57
430.34	2324.15
430.53	2312.45
430.72	2296.07
430.91	2349.90
431.10	2239.89
431.28	2410.75
431.47	2429.48
431.66	2420.11
431.85	2382.67
432.03	2537.14
432.22	2569.91
432.41	2459.90
432.60	2490.33
432.79	2511.39
432.97	2593.31
433.16	2555.86
433.35	2523.10
433.54	2459.90
433.72	2459.90
433.91	2532.46
434.10	2558.21
434.28	2619.06
434.47	2595.65
434.66	2682.25
434.85	2698.64
435.03	2691.62
435.22	2834.39
435.41	2782.90
435.59	2848.43
435.78	2665.87
435.97	2750.13
436.16	2789.92
436.34	2717.36
436.53	2853.11
436.72	2832.05
436.90	2768.85
437.09	2782.90
437.28	2733.75
437.46	2740.77
437.65	2759.49
437.84	2850.77
438.02	2768.85
438.21	2822.69
438.40	2836.73
438.58	2965.46
438.77	2839.07
438.96	2822.69
439.14	2904.60
439.33	2972.48
439.52	2895.24
439.70	3094.19
439.89	2998.23
440.08	3098.87
440.26	3084.83
440.45	3035.67
440.63	3047.38
440.82	3297.81
441.01	3026.31
441.19	3192.49
441.38	3143.34
441.57	3136.32
441.75	3307.18
441.94	3283.77
442.12	3337.60
442.31	3407.82
442.50	3243.98
442.68	3412.50
442.87	3426.54
443.05	3337.60
443.24	3503.78
443.43	3417.18
443.61	3424.20
443.80	3566.98
443.98	3426.54
444.17	3384.41
444.35	3459.31
444.54	3616.13
444.73	3545.91
444.91	3382.07
445.10	3648.90
445.28	3449.95
445.47	3419.52
445.65	3524.85
445.84	3499.10
446.02	3632.51
446.21	3515.48
446.39	3492.08
446.58	3595.06
446.77	3550.59
446.95	3487.40
447.14	3618.47
447.32	3559.95
447.51	3545.91
447.69	3550.59
447.88	3562.30
448.06	3492.08
448.25	3499.10
448.43	3616.13
448.62	3485.06
448.80	3653.58
448.99	3597.40
449.17	3740.18
449.36	3634.85
449.54	3742.52
449.73	3709.75
449.91	3744.86
450.10	3812.73
450.28	3845.50
450.46	3822.09
450.65	3906.35
450.83	3847.84
451.02	3824.44
451.20	3913.38
451.39	3887.63
451.57	3784.65
451.76	3754.22
451.94	3875.93
452.13	3901.67
452.31	4028.06
452.49	3882.95
452.68	3983.59
452.86	3946.14
453.05	3992.95
453.23	3960.19
453.42	3880.61
453.60	3882.95
453.78	4046.79
453.97	3976.57
454.15	3911.04
454.34	3936.78
454.52	4149.77
454.70	4086.58
454.89	4098.28
455.07	4280.84
455.26	4093.60
455.44	4201.26
455.62	4290.20
455.81	4091.26
455.99	4210.62
456.17	4187.22
456.36	4187.22
456.54	4287.86
456.73	4332.33
456.91	4416.59
457.09	4283.18
457.28	4514.89
457.46	4243.39
457.64	4545.32
457.83	4407.23
458.01	4517.23
458.19	4454.04
458.38	4472.76
458.56	4564.04
458.74	4538.30
458.93	4432.97
459.11	4559.36
459.29	4578.09
459.48	4535.96
459.66	4603.83
459.84	4723.20
460.03	4732.56
460.21	4660.01
460.39	4716.18
460.57	4608.51
460.76	4545.32
460.94	4690.43
461.12	4753.63
461.31	4767.67
461.49	4580.43
461.67	4643.62
461.85	4877.68
462.04	4725.54
462.22	5102.37
462.40	4903.42
462.59	4987.68
462.77	4774.69
462.95	4924.49
463.13	4929.17
463.32	4819.16
463.50	4870.65
463.68	4954.91
463.86	4905.76
464.05	5022.79
464.23	4823.84
464.41	4940.87
464.59	4931.51
464.78	4985.34
464.96	5008.75
465.14	5048.54
465.32	5158.54
465.50	5172.58
465.69	5046.20
465.87	5240.46
466.05	5074.28
466.23	5067.26
466.41	5238.12
466.60	5322.38
466.78	5224.08
466.96	5191.31
467.14	5217.05
467.32	5085.98
467.51	5284.93
467.69	5121.09
467.87	5221.74
468.05	5324.72
468.23	5273.23
468.41	5301.31
468.60	5317.70
468.78	5439.40
468.96	5334.08
469.14	5207.69
469.32	5577.50
469.50	5249.82
469.69	5488.56
469.87	5654.73
470.05	5511.96
470.23	5544.73
470.41	5483.88
470.59	5418.34
470.77	5591.54
470.95	5600.90
471.14	5778.78
471.32	5551.75
471.50	5804.53
471.68	5729.63
471.86	5827.93
472.04	5834.96
472.22	5860.70
472.40	5804.53
472.58	5893.47
472.77	5888.79
472.95	6179.01
473.13	6097.10
473.31	5970.71
473.49	5846.66
473.67	5905.17
473.85	6080.71
474.03	6169.65
474.21	6064.33
474.39	6162.63
474.57	6298.38
474.75	6455.20
474.93	6319.45
475.12	6291.36
475.30	6335.83
475.48	6368.60
475.66	6303.06
475.84	6469.24
476.02	6715.00
476.20	6595.63
476.38	6719.68
476.56	6707.98
476.74	6712.66
476.92	6434.13
477.10	6614.35
477.28	6766.49
477.46	6832.02
477.64	6895.22
477.82	6939.69
478.00	7129.27
478.18	7059.06
478.36	7208.85
478.54	7293.11
478.72	7136.29
478.90	7286.09
479.08	7583.34
479.26	7545.89
479.44	7573.97
479.62	7527.16
479.80	7609.08
479.98	7503.76
480.16	7779.94
480.34	7761.22
480.52	7847.82
480.70	7829.09
480.88	7698.02
481.06	7903.99
481.24	7826.75
481.41	7754.19
481.59	8058.46
481.77	8397.84
481.95	8234.00
482.13	8189.53
482.31	8353.37
482.49	8315.92
482.67	8496.14
482.85	8449.33
483.03	8767.65
483.21	8896.38
483.39	8772.33
483.57	8676.37
483.74	8879.99
483.92	8903.40
484.10	8933.82
484.28	9158.52
484.46	9357.46
484.64	9432.36
484.82	9254.48
485.00	9343.42
485.18	9481.51
485.35	9500.23
485.53	9668.75
485.71	9783.44
485.89	9870.04
486.07	9643.01
486.25	9856.00
486.43	9827.91
486.61	9914.51
486.78	10274.95
486.96	10085.37
487.14	10307.72
487.32	10239.84
487.50	10457.51
487.68	10546.45
487.85	10544.11
488.03	10806.25
488.21	10820.30
488.39	10824.98
488.57	10705.61
488.75	11056.69
488.92	10988.82
489.10	11190.10
489.28	11309.47
489.46	11302.45
489.64	11339.90
489.81	11590.33
489.99	11925.03
490.17	11665.23
490.35	11847.79
490.53	11920.35
490.70	12100.57
490.88	12011.63
491.06	12051.42
491.24	12142.70
491.41	11831.41
491.59	12039.72
491.77	12273.77
491.95	12575.70
492.13	12423.56
492.30	12468.03
492.48	12418.88
492.66	12748.90
492.84	12442.29
493.01	13069.55
493.19	13092.96
493.37	13125.72
493.54	13046.15
493.72	13097.64
493.90	13132.75
494.08	13069.55
494.25	13633.62
494.43	13472.12
494.61	13561.06
494.79	13575.11
494.96	13825.54
495.14	13949.59
495.32	13987.04
495.49	13802.14
495.67	14001.08
495.85	14333.44
496.02	14235.14
496.20	14429.40
496.38	14214.07
496.55	14408.34
496.73	14406.00
496.91	14551.11
497.09	14885.81
497.26	14733.67
497.44	14504.30
497.62	14808.57
497.79	14827.29
497.97	14848.36
498.14	15169.01
498.32	15382.00
498.50	15187.74
498.67	15178.37
498.85	15227.53
499.03	15176.03
499.20	15353.91
499.38	15712.02
499.56	15669.89
499.73	15583.29
499.91	15681.59
500.08	15796.28
500.26	15508.39
500.44	15840.75
500.61	15976.50
500.79	15791.59
500.97	16002.24
501.14	16439.92
501.32	16238.64
501.49	15964.79
501.67	16486.73
501.84	16362.69
502.02	16208.21
502.20	16301.83
502.37	16643.55
502.55	16236.30
502.72	16882.28
502.90	16638.87
503.07	16636.53
503.25	16547.59
503.43	16662.27
503.60	16912.71
503.78	17165.49
503.95	17088.25
504.13	16929.09
504.30	17055.48
504.48	17043.78
504.65	17060.16
504.83	17444.01
505.01	17598.49
505.18	17462.74
505.36	17565.72
505.53	17383.16
505.71	17357.41
505.88	17862.97
506.06	17427.63
506.23	17647.64
506.41	17750.62
506.58	18075.96
506.76	17989.36
506.93	17654.66
507.11	17802.11
507.28	18019.78
507.46	18120.43
507.63	18178.94
507.81	18242.14
507.98	18061.91
508.16	18438.74
508.33	18396.61
508.50	18597.90
508.68	18405.97
508.85	18459.81
509.03	18508.96
509.20	18841.31
509.38	18876.42
509.55	18679.82
509.73	19126.86
509.90	18822.59
510.08	18822.59
510.25	18712.58
510.42	18794.50
510.60	19349.21
510.77	19183.03
510.95	19267.29
511.12	19117.50
511.30	19384.32
511.47	19630.07
511.64	19452.19
511.82	19674.54
511.99	19580.92
512.17	19847.74
512.34	19672.20
512.51	19625.39
512.69	19709.65
512.86	19709.65
513.04	20060.73
513.21	19604.33
513.38	20133.29
513.56	19941.36
513.73	20020.94
513.90	20170.74
514.08	19852.42
514.25	20018.60
514.43	20301.81
514.60	20339.26
514.77	20245.63
514.95	20638.84
515.12	20453.94
515.29	20439.90
515.47	20215.21
515.64	20620.12
515.81	20645.87
515.99	20896.30
516.16	20802.68
516.33	20919.71
516.51	21043.76
516.68	20673.95
516.85	21142.06
517.03	20999.29
517.20	20786.30
517.37	21322.28
517.54	21277.81
517.72	21139.72
517.89	21174.83
518.06	21104.61
518.24	21151.42
518.41	21451.01
518.58	21392.50
518.75	21486.12
518.93	21654.64
519.10	21692.08
519.27	21715.49
519.45	21497.82
519.62	21961.25
519.79	21628.89
519.96	21542.29
520.14	21743.58
520.31	21668.68
520.48	21886.35
520.65	21804.43
520.83	21699.11
521.00	22258.49
521.17	22029.12
521.34	22331.05
521.52	22471.48
521.69	22202.32
521.86	22508.93
522.03	22494.89
522.20	22429.35
522.38	22436.38
522.55	22459.78
522.72	22527.66
522.89	22476.16
523.07	22869.37
523.24	22644.68
523.41	22558.08
523.58	22640.00
523.75	22995.76
523.92	22590.85
524.10	22888.10
524.27	22656.39
524.44	22963.00
524.61	23098.75
524.78	23133.86
524.96	22958.31
525.13	22963.00
525.30	22981.72
525.47	23297.69
525.64	23414.72
525.81	23438.12
525.98	23470.89
526.16	23374.93
526.33	23447.49
526.50	23630.05
526.67	23520.04
526.84	23604.30
527.01	23058.96
527.18	23590.26
527.36	24081.77
527.53	23777.50
527.70	24128.58
527.87	23885.17
528.04	24250.29
528.21	24187.10
528.38	23981.13
528.55	23910.91
528.72	24037.30
528.89	23997.51
529.07	24264.33
529.24	24231.57
529.41	24222.20
529.58	24168.37
529.75	23946.02
529.92	24049.00
530.09	24224.54
530.26	24372.00
530.43	24662.22
530.60	24294.76
530.77	24254.97
530.94	24627.12
531.11	24229.23
531.28	24479.66
531.46	24809.68
531.63	24847.13
531.80	24428.17
531.97	24744.14
532.14	24519.45
532.31	24762.87
532.48	24830.74
532.65	24978.20
532.82	24940.75
532.99	25111.61
533.16	24552.22
533.33	25022.67
533.50	25289.49
533.67	25312.89
533.84	25137.35
534.01	25060.12
534.18	24992.24
534.35	24910.32
534.52	24973.52
534.69	25563.33
534.86	25502.48
535.03	25397.15
535.20	25603.12
535.37	25617.16
535.54	25542.27
535.71	25809.09
535.88	25280.13
536.05	25432.26
536.22	25867.60
536.38	25694.40
536.55	25942.50
536.72	25579.71
536.89	25680.36
537.06	25958.88
537.23	25757.60
537.40	25752.91
537.57	25750.57
537.74	25813.77
537.91	26333.37
538.08	25891.01
538.25	25970.58
538.42	25862.92
538.59	25776.32
538.75	25867.60
538.92	26214.00
539.09	26075.91
539.26	26183.57
539.43	26120.38
539.60	26225.70
539.77	26054.84
539.94	25823.13
540.11	26024.42
540.28	26176.55
540.44	26431.67
540.61	26295.92
540.78	26314.64
540.95	26766.37
541.12	26536.99
541.29	26347.41
541.46	26469.12
541.62	26438.69
541.79	26513.59
541.96	26127.40
542.13	26553.38
542.30	26604.87
542.47	26953.61
542.63	26747.64
542.80	26927.86
542.97	26892.76
543.14	26941.91
543.31	27218.09
543.48	26916.16
543.64	26932.54
543.81	27601.94
543.98	27070.64
544.15	26892.76
544.32	27524.70
544.48	27941.32
544.65	27484.91
544.82	27180.64
544.99	27288.31
545.16	27012.12
545.32	27374.91
545.49	27737.69
545.66	27826.63
545.83	27248.52
546.00	27934.29
546.16	27929.61
546.33	27491.93
546.50	27398.31
546.67	27894.50
546.83	27735.35
547.00	27484.91
547.17	27686.20
547.34	27321.07
547.50	28215.16
547.67	28219.84
547.84	27728.33
548.00	27791.52
548.17	27955.36
548.34	27768.12
548.51	27971.74
548.67	28397.72
548.84	28301.76
549.01	28039.62
549.18	28091.11
549.34	28175.37
549.51	28184.73
549.68	28126.22
549.84	28259.63
550.01	28135.58
550.18	28264.31
550.34	28084.09
550.51	28496.02
550.68	28325.16
550.84	27920.25
551.01	28533.47
551.18	28444.53
551.34	28240.90
551.51	28568.58
551.68	28137.92
551.84	28402.40
552.01	28519.43
552.18	28697.31
552.34	28528.79
552.51	28491.34
552.68	28474.96
552.84	28570.92
553.01	28840.08
553.18	28528.79
553.34	28877.53
553.51	28854.12
553.67	29263.72
553.84	29153.71
554.01	28566.24
554.17	28664.54
554.34	28835.40
554.51	28655.18
554.67	28992.22
554.84	28809.65
555.00	29041.37
555.17	28800.29
555.33	28828.38
555.50	28786.25
555.67	28816.68
555.83	28964.13
556.00	28966.47
556.16	29329.25
556.33	28713.69
556.50	28914.98
556.66	29340.96
556.83	29219.25
556.99	29567.99
557.16	29453.30
557.32	29376.06
557.49	29914.39
557.65	29275.42
557.82	29156.05
557.98	28959.45
558.15	29003.92
558.32	29755.23
558.48	29481.39
558.65	29509.47
558.81	29516.50
558.98	29832.47
559.14	29792.68
559.31	28947.75
559.47	29483.73
559.64	29331.59
559.80	29610.12
559.97	29841.83
560.13	29649.91
560.30	29425.22
560.46	29661.61
560.63	29528.20
560.79	29366.70
560.96	29930.77
561.12	29689.70
561.29	29670.97
561.45	29465.00
561.61	29708.42
561.78	29652.25
561.94	29898.00
562.11	29832.47
562.27	29888.64
562.44	29928.43
562.60	29462.66
562.77	30078.22
562.93	29631.18
563.10	30073.54
563.26	30092.27
563.42	29956.52
563.59	29935.45
563.75	29839.49
563.92	29479.05
564.08	29930.77
564.24	29858.21
564.41	29853.53
564.57	29560.97
564.74	30150.78
564.90	30586.12
565.07	29970.56
565.23	29886.30
565.39	29886.30
565.56	30295.89
565.72	29888.64
565.88	30263.13
566.05	29991.62
566.21	30033.75
566.38	30052.48
566.54	29834.81
566.70	30277.17
566.87	30480.80
567.03	30394.20
567.19	30572.08
567.36	30305.26
567.52	30108.65
567.68	30728.89
567.85	30127.38
568.01	30099.29
568.17	30366.11
568.34	30359.09
568.50	30361.43
568.66	30546.33
568.83	30483.14
568.99	30473.78
569.15	30391.86
569.32	30433.99
569.48	30057.16
569.64	29890.98
569.81	30295.89
569.97	30185.89
570.13	30471.43
570.30	30391.86
570.46	30408.24
570.62	30597.82
570.78	30047.80
570.95	30323.98
571.11	30436.33
571.27	30103.97
571.43	30183.55
571.60	30712.51
571.76	30462.07
571.92	30511.22
572.09	30092.27
572.25	30838.90
572.41	30148.44
572.57	30433.99
572.74	30925.50
572.90	30368.45
573.06	30583.78
573.22	30066.52
573.38	30911.46
573.55	30824.86
573.71	30836.56
573.87	30911.46
574.03	30920.82
574.20	30569.74
574.36	30389.52
574.52	30719.53
574.68	30326.32
574.84	30866.98
575.01	30972.31
575.17	30913.80
575.33	30733.57
575.49	30515.90
575.65	31016.78
575.82	30639.95
575.98	30656.34
576.14	30796.77
576.30	30794.43
576.46	30455.05
576.62	30593.14
576.79	31108.06
576.95	30415.26
577.11	30656.34
577.27	30726.55
577.43	30796.77
577.59	30752.30
577.75	30560.37
577.92	30403.56
578.08	30785.07
578.24	30480.80
578.40	30953.58
578.56	31005.08
578.72	30644.63
578.88	30658.68
579.04	31227.43
579.21	30504.20
579.37	30600.16
579.53	30733.57
579.69	30696.13
579.85	30738.26
580.01	30536.97
580.17	30747.62
580.33	30771.02
580.49	30934.86
580.65	30782.73
580.82	31229.77
580.98	31037.84
581.14	30707.83
581.30	30754.64
581.46	30483.14
581.62	30979.33
581.78	30579.10
581.94	31229.77
582.10	30553.35
582.26	30820.17
582.42	30941.88
582.58	30984.01
582.74	31040.18
582.90	30939.54
583.06	30960.61
583.22	30623.57
583.38	30920.82
583.54	30707.83
583.70	30614.21
583.86	30632.93
584.02	30960.61
584.18	30597.82
584.34	31236.79
584.50	31122.10
584.66	30810.81
584.82	30644.63
584.98	31047.21
585.14	30829.54
585.30	30597.82
585.46	31035.50
585.62	30665.70
585.78	30752.30
585.94	30700.81
586.10	30906.77
586.26	30855.28
586.42	30881.03
586.58	31321.05
586.74	30808.47
586.90	30824.86
587.06	30820.17
587.22	30452.71
587.38	30829.54
587.54	31175.94
587.70	31124.44
587.86	31166.57
588.02	31321.05
588.18	31379.56
588.34	31433.39
588.49	31122.10
588.65	31178.28
588.81	31014.44
588.97	30616.55
589.13	30923.16
589.29	30972.31
589.45	31456.80
589.61	31234.45
589.77	31353.82
589.93	31077.63
590.08	31225.09
590.24	31409.99
590.40	31510.63
590.56	31475.52
590.72	31115.08
590.88	30855.28
591.04	30859.96
591.20	31363.18
591.35	31201.68
591.51	31709.58
591.67	31501.27
591.83	31147.85
591.99	31515.31
592.15	31569.15
592.31	31590.21
592.46	31021.46
592.62	31281.26
592.78	31239.13
592.94	31459.14
593.10	31234.45
593.26	31246.15
593.41	31337.43
593.57	31412.33
593.73	31580.85
593.89	31372.54
594.05	31381.90
594.20	31005.08
594.36	31250.83
594.52	31365.52
594.68	31072.95
594.84	31091.68
594.99	31131.47
595.15	31161.89
595.31	31541.06
595.47	31489.57
595.62	31667.45
595.78	31662.77
595.94	31185.30
596.10	31213.38
596.25	31033.16
596.41	31557.44
596.57	31243.81
596.73	31604.25
596.88	31555.10
597.04	31332.75
597.20	31665.11
597.36	31323.39
597.51	31625.32
597.67	31810.22
597.83	31501.27
597.99	31665.11
598.14	31618.30
598.30	31391.26
598.46	31292.96
598.61	31660.43
598.77	31550.42
598.93	31339.77
599.09	31597.23
599.24	31948.31
599.40	31744.69
599.56	31819.58
599.71	31730.64
599.87	31236.79
600.03	31580.85
600.18	31541.06
600.34	31562.12
600.50	31400.63
600.65	31702.56
600.81	31765.75
600.97	31927.25
601.12	31508.29
601.28	31545.74
601.44	31927.25
601.59	31611.28
601.75	31517.65
601.91	31805.54
602.06	31185.30
602.22	31655.75
602.37	31438.08
602.53	31587.87
602.69	31512.97
602.84	31908.52
603.00	31683.83
603.16	31489.57
603.31	31592.55
603.47	31674.47
603.62	31330.41
603.78	31295.30
603.94	31576.17
604.09	31377.22
604.25	31395.95
604.40	31821.92
604.56	31393.61
604.71	31538.72
604.87	31519.99
605.03	31784.48
605.18	31791.50
605.34	31597.23
605.49	31431.05
605.65	31505.95
605.80	31484.89
605.96	31676.81
606.12	31342.11
606.27	31775.11
606.43	31372.54
606.58	31646.38
606.74	31566.81
606.89	31346.79
607.05	31402.97
607.20	31318.71
607.36	31524.68
607.51	31627.66
607.67	30979.33
607.82	31276.58
607.98	31225.09
608.13	31552.76
608.29	31391.26
608.44	31143.17
608.60	31433.39
608.75	31377.22
608.91	31566.81
609.06	31051.89
609.22	31349.14
609.37	31072.95
609.53	31049.55
609.68	31112.74
609.84	31220.41
609.99	31321.05
610.15	31206.36
610.30	31297.64
610.46	31438.08
610.61	31421.69
610.76	31314.03
610.92	31637.02
611.07	31452.12
611.23	31508.29
611.38	31391.26
611.54	31150.19
611.69	31016.78
611.84	31260.20
612.00	30944.22
612.15	31271.90
612.31	31463.82
612.46	30974.65
612.62	31180.62
612.77	30993.37
612.92	31538.72
613.08	31365.52
613.23	31342.11
613.39	31131.47
613.54	31140.83
613.69	30794.43
613.85	30857.62
614.00	30979.33
614.15	31257.85
614.31	31047.21
614.46	31115.08
614.62	31089.34
614.77	30991.03
614.92	31199.34
615.08	30906.77
615.23	31339.77
615.38	30773.36
615.54	30906.77
615.69	30661.02
615.84	30618.89
616.00	30429.30
616.15	30597.82
616.30	30661.02
616.46	30745.28
616.61	30583.78
616.76	31026.14
616.92	30590.80
617.07	30822.51
617.22	30658.68
617.37	30609.53
617.53	30822.51
617.68	30593.14
617.83	30473.78
617.99	30742.94
618.14	30363.77
618.29	31035.50
618.45	30675.06
618.60	30838.90
618.75	30616.55
618.90	30834.22
619.06	30794.43
619.21	30415.26
619.36	30843.58
619.51	30389.52
619.67	30389.52
619.82	30024.39
619.97	30448.03
620.12	30054.82
620.28	30059.50
620.43	30574.42
620.58	30450.37
620.73	30792.09
620.89	30560.37
621.04	30450.37
621.19	30314.62
621.34	30359.09
621.49	30520.59
621.65	30190.57
621.80	30368.45
621.95	29881.62
622.10	30274.83
622.25	29823.11
622.41	30312.28
622.56	30206.95
622.71	30253.76
622.86	30281.85
623.01	30441.01
623.16	29722.46
623.32	29759.91
623.47	30230.36
623.62	29778.64
623.77	30010.35
623.92	30050.14
624.07	29867.58
624.23	29813.74
624.38	30281.85
624.53	29954.18
624.68	30122.69
624.83	30115.67
624.98	30209.29
625.13	30040.78
625.29	29921.41
625.44	29846.51
625.59	29345.64
625.74	29795.02
625.89	29659.27
626.04	29619.48
626.19	29727.14
626.34	29631.18
626.49	29593.73
626.65	29481.39
626.80	30047.80
626.95	29930.77
627.10	29951.84
627.25	29422.87
627.40	29720.12
627.55	29317.55
627.70	29490.75
627.85	29046.05
628.00	29600.76
628.15	29862.90
628.30	29312.87
628.45	29153.71
628.60	29425.22
628.76	29420.53
628.91	28959.45
629.06	29371.38
629.21	29467.34
629.36	29404.15
629.51	29254.36
629.66	29479.05
629.81	29118.60
629.96	29071.79
630.11	29191.16
630.26	29317.55
630.41	29202.86
630.56	29032.00
630.71	28989.88
630.86	29064.77
631.01	29137.33
631.16	28952.43
631.31	29254.36
631.46	29010.94
631.61	29240.31
631.76	29214.57
631.91	29151.37
632.06	29127.97
632.21	28842.42
632.36	28746.46
632.51	28802.63
632.66	28723.05
632.81	28903.28
632.96	28868.17
633.10	29221.59
633.25	28959.45
633.40	29090.52
633.55	28987.53
633.70	28690.29
633.85	28334.53
634.00	28833.06
634.15	28276.01
634.30	28479.64
634.45	28353.25
634.60	28451.55
634.75	28446.87
634.90	28779.23
635.05	28690.29
635.19	28636.45
635.34	29151.37
635.49	28725.39
635.64	29177.12
635.79	28458.57
635.94	28584.96
636.09	28514.75
636.24	28395.38
636.39	28432.83
636.53	28741.78
636.68	28334.53
636.83	28673.90
636.98	28706.67
637.13	28781.57
637.28	28479.64
637.43	28589.64
637.57	28355.59
637.72	28184.73
637.87	28247.93
638.02	28624.75
638.17	28231.54
638.32	28393.04
638.46	28343.89
638.61	28034.94
638.76	27679.18
638.91	27728.33
639.06	28278.35
639.20	28102.81
639.35	28322.82
639.50	28271.33
639.65	28435.17
639.80	27955.36
639.94	28458.57
640.09	28381.34
640.24	28041.96
640.39	28121.54
640.54	28144.94
640.68	27843.01
640.83	27927.27
640.98	27793.86
641.13	27779.82
641.27	27845.35
641.42	27971.74
641.57	28016.21
641.72	28187.07
641.86	27700.24
642.01	27564.49
642.16	27651.09
642.31	27473.21
642.45	27826.63
642.60	27758.75
642.75	27711.94
642.90	27562.15
643.04	27728.33
643.19	27288.31
643.34	27866.42
643.48	27756.41
643.63	27489.59
643.78	27278.94
643.93	27992.81
644.07	27779.82
644.22	27871.10
644.37	27454.48
644.51	27826.63
644.66	27723.65
644.81	27461.51
644.95	27330.44
645.10	27283.62
645.25	27477.89
645.39	27208.73
645.54	27503.64
645.69	27075.32
645.83	27400.65
645.98	27438.10
646.13	27065.96
646.27	27281.28
646.42	27468.53
646.57	27929.61
646.71	27005.10
646.86	27300.01
647.00	27187.66
647.15	27302.35
647.30	27520.02
647.44	27190.00
647.59	27262.56
647.74	27072.98
647.88	27182.98
648.03	27658.11
648.17	27550.45
648.32	27309.37
648.47	27005.10
648.61	27112.77
648.76	27384.27
648.90	27374.91
649.05	27208.73
649.20	27248.52
649.34	26941.91
649.49	26824.88
649.63	27026.17
649.78	26782.75
649.92	27098.72
650.07	26972.33
650.21	27119.79
650.36	27051.91
650.51	26789.77
650.65	26649.34
650.80	26979.36
650.94	27084.68
651.09	26925.52
651.23	26473.80
651.38	26679.77
651.52	26565.08
651.67	26661.04
651.81	26836.58
651.96	26665.72
652.10	26686.79
652.25	26813.18
652.39	27098.72
652.54	26916.16
652.68	26817.86
652.83	26827.22
652.97	26782.75
653.12	26476.14
653.26	26647.00
653.41	26621.25
653.55	26668.06
653.70	26726.58
653.84	26728.92
653.99	26347.41
654.13	26478.48
654.27	26448.05
654.42	26441.03
654.56	26302.94
654.71	26122.72
654.85	26438.69
655.00	26405.92
655.14	26284.22
655.29	26333.37
655.43	26298.26
655.57	26352.09
655.72	26373.16
655.86	26026.76
656.01	26279.54
656.15	26265.49
656.30	26176.55
656.44	26326.35
656.58	25834.83
656.73	25898.03
656.87	26115.70
657.01	26279.54
657.16	26286.56
657.30	26232.72
657.45	26075.91
657.59	26321.66
657.73	25788.02
657.88	26031.44
658.02	25919.09
658.16	25773.98
658.31	25926.11
658.45	26045.48
658.60	25446.30
658.74	25521.20
658.88	26113.36
659.03	25680.36
659.17	25741.21
659.31	25933.14
659.46	25687.38
659.60	25993.99
659.74	25633.55
659.89	25642.91
660.03	25635.89
660.17	25544.61
660.32	25345.66
660.46	25544.61
660.60	25242.68
660.74	25355.02
660.89	25518.86
661.03	25127.99
661.17	25558.65
661.32	25465.03
661.46	25584.40
661.60	25181.82
661.74	25376.09
661.89	25322.26
662.03	25380.77
662.17	25160.76
662.31	25371.41
662.46	24865.85
662.60	25216.93
662.74	24795.64
662.88	25013.31
663.03	24776.91
663.17	24802.66
663.31	24627.12
663.45	24814.36
663.60	24975.86
663.74	24980.54
663.88	24545.20
664.02	24739.46
664.17	24884.58
664.31	24460.94
664.45	24648.18
664.59	24666.91
664.73	24573.28
664.88	24517.11
665.02	24088.79
665.16	24128.58
665.30	24568.60
665.44	24100.50
665.59	24074.75
665.73	24664.57
665.87	24217.52
666.01	24290.08
666.15	24409.45
666.29	24238.59
666.44	24306.46
666.58	24123.90
666.72	24318.17
666.86	24402.43
667.00	24318.17
667.14	23838.36
667.28	24079.43
667.43	23513.02
667.57	23747.08
667.71	24018.58
667.85	23538.77
667.99	23775.16
668.13	23552.81
668.27	23396.00
668.41	24025.60
668.56	23307.05
668.70	23927.30
668.84	23810.27
668.98	23452.17
669.12	23639.41
669.26	23346.84
669.40	23489.62
669.54	23679.20
669.68	23498.98
669.82	23161.94
669.96	23262.58
670.10	23358.55
670.25	23396.00
670.39	23187.69
670.53	23283.65
670.67	23108.11
670.81	23208.75
670.95	22841.29
671.09	22686.81
671.23	23140.88
671.37	23243.86
671.51	23091.73
671.65	23016.83
671.79	22831.93
671.93	22895.12
672.07	22738.30
672.21	22616.60
672.35	22497.23
672.49	22738.30
672.63	22436.38
672.77	22583.83
672.91	22562.76
673.05	22525.32
673.19	22642.34
673.33	22099.34
673.47	22705.54
673.61	22522.98
673.75	22293.60
673.89	22377.86
674.03	22246.79
674.17	21799.75
674.31	22099.34
674.45	21811.45
674.59	22267.86
674.73	21846.56
674.87	21968.27
675.01	21970.61
675.15	21598.46
675.29	21825.50
675.43	21816.13
675.56	21544.63
675.70	21706.13
675.84	21654.64
675.98	21160.78
676.12	21659.32
676.26	21680.38
676.40	21741.24
676.54	21420.58
676.68	21621.87
676.82	21202.91
676.96	21207.59
677.10	20994.61
677.23	20868.22
677.37	20858.85
677.51	20851.83
677.65	21008.65
677.79	20615.44
677.93	20505.43
678.07	20599.05
678.21	20278.40
678.34	20634.16
678.48	20320.53
678.62	20365.00
678.76	20585.01
678.90	20027.96
679.04	20063.07
679.18	20350.96
679.31	19983.49
679.45	20161.37
679.59	19873.49
679.73	20088.82
679.87	19871.15
680.00	19763.48
680.14	19882.85
680.28	19889.87
680.42	19463.90
680.56	19814.98
680.70	19985.83
680.83	19590.28
680.97	19480.28
681.11	19417.08
681.25	19520.07
681.39	19515.39
681.52	19501.34
681.66	19487.30
681.80	18764.07
681.94	18941.96
682.07	19147.92
682.21	19066.00
682.35	18998.13
682.49	19005.15
682.62	18740.67
682.76	18368.52
682.90	18911.53
683.04	18794.50
683.17	18932.59
683.31	18595.56
683.45	18796.84
683.59	18558.11
683.72	18534.70
683.86	18478.53
684.00	18293.63
684.13	18396.61
684.27	18525.34
684.41	18099.36
684.55	18033.83
684.68	18026.81
684.82	17914.46
684.96	17764.67
685.09	17771.69
685.23	17591.47
685.37	17905.10
685.50	17598.49
685.64	17596.15
685.78	17699.13
685.91	17689.77
686.05	17886.37
686.19	17619.55
686.32	17884.03
686.46	17380.82
686.60	17144.42
686.73	17195.92
686.87	17123.36
687.01	17099.95
687.14	17018.04
687.28	16821.43
687.42	16940.80
687.55	16737.17
687.69	17111.66
687.82	16655.25
687.96	16952.50
688.10	16753.55
688.23	16879.94
688.37	16428.22
688.50	16374.39
688.64	16435.24
688.78	16287.79
688.91	16416.52
689.05	16255.02
689.18	16105.23
689.32	15880.53
689.46	15857.13
689.59	16229.27
689.73	16112.25
689.86	15838.41
690.00	15845.43
690.13	15873.51
690.27	15618.39
690.41	15730.74
690.54	15604.35
690.68	15613.71
690.81	15592.65
690.95	15613.71
691.08	15538.82
691.22	15585.63
691.35	15386.68
691.49	15484.98
691.62	15389.02
691.76	15183.06
691.89	15236.89
692.03	14824.95
692.16	14860.06
692.30	15077.73
692.43	14862.40
692.57	14965.39
692.70	14595.58
692.84	14450.47
692.97	14719.63
693.11	14785.16
693.24	14640.05
693.38	14508.98
693.51	14274.93
693.65	14476.21
693.78	14270.25
693.92	14312.38
694.05	14310.04
694.19	14183.65
694.32	13968.32
694.45	14312.38
694.59	13867.67
694.72	13797.46
694.86	13703.84
694.99	13715.54
695.13	13785.76
695.26	13640.64
695.39	13617.24
695.53	13818.52
695.66	13631.28
695.80	13841.93
695.93	13591.49
696.07	13532.98
696.20	13483.83
696.33	13717.88
696.47	13509.57
696.60	13256.79
696.73	13085.94
696.87	13434.68
697.00	13029.76
697.14	12933.80
697.27	12952.52
697.40	12849.54
697.54	12699.75
697.67	12416.54
697.80	12800.39
697.94	12716.13
698.07	12524.21
698.21	12643.57
698.34	12606.13
698.47	12807.41
698.61	12535.91
698.74	12329.94
698.87	12421.22
699.01	12400.16
699.14	12285.47
699.27	12121.63
699.40	12217.60
699.54	12201.21
699.67	12112.27
699.80	11955.46
699.94	11864.18
700.07	11829.07
700.20	11857.15
700.34	11880.56
700.47	11552.88
700.60	11634.80
700.73	11826.73
700.87	11463.94
701.00	11536.50
701.13	11573.95
701.26	11613.74
701.40	11445.22
701.53	11707.36
701.66	11482.67
701.79	11353.94
701.93	11311.81
702.06	11061.37
702.19	11171.38
702.32	11136.27
702.46	11075.42
702.59	10960.73
702.72	10918.60
702.85	10799.23
702.99	10799.23
703.12	10780.51
703.25	10721.99
703.38	10707.95
703.51	10850.72
703.65	10623.69
703.78	10375.59
703.91	10541.77
704.04	10689.23
704.17	10417.72
704.31	10619.01
704.44	10586.24
704.57	10370.91
704.70	10146.22
704.83	10225.80
704.96	9984.73
705.10	10001.11
705.23	10059.62
>>>>>End Processed Spectral Data<<<<<
