SpectraSuite Data File
++++++++++++++++++++++++++++++++++++
Date: Fri Oct 18 13:58:13 GMT-05:00 2013
User: bianchi
Dark Spectrum Present: No
Reference Spectrum Present: No
Number of Sampled Component Spectra: 1
Spectrometers: USB2+H05261
Integration Time (usec): 50000 (USB2+H05261)
Spectra Averaged: 1 (USB2+H05261)
Boxcar Smoothing: 0 (USB2+H05261)
Correct for Electrical Dark: No (USB2+H05261)
Strobe/Lamp Enabled: No (USB2+H05261)
Correct for Detector Non-linearity: No (USB2+H05261)
Correct for Stray Light: No (USB2+H05261)
Number of Pixels in Processed Spectrum: 2048
>>>>>Begin Processed Spectral Data<<<<<
365.73	0.00
365.92	0.00
366.12	0.00
366.32	0.00
366.52	0.00
366.72	0.00
366.91	0.00
367.11	0.00
367.31	0.00
367.51	0.00
367.70	0.00
367.90	0.00
368.10	0.00
368.30	0.00
368.49	0.00
368.69	0.00
368.89	0.00
369.09	0.00
369.28	0.00
369.48	0.00
369.68	0.00
369.87	0.00
370.07	0.00
370.27	0.00
370.47	0.00
370.66	72.56
370.86	91.28
371.06	147.45
371.25	191.92
371.45	168.52
371.65	88.94
371.84	145.11
372.04	194.26
372.24	163.84
372.44	210.65
372.63	182.56
372.83	203.63
373.03	191.92
373.22	205.97
373.42	166.18
373.62	138.09
373.81	161.50
374.01	294.91
374.21	257.46
374.40	248.10
374.60	271.50
374.79	313.63
374.99	208.31
375.19	182.56
375.38	341.72
375.58	280.86
375.78	222.35
375.97	208.31
376.17	292.57
376.37	245.76
376.56	250.44
376.76	255.12
376.95	292.57
377.15	346.40
377.35	313.63
377.54	266.82
377.74	292.57
377.93	304.27
378.13	257.46
378.33	304.27
378.52	262.14
378.72	374.49
378.91	320.65
379.11	227.03
379.31	287.89
379.50	243.42
379.70	360.44
379.89	355.76
380.09	360.44
380.28	315.97
380.48	360.44
380.68	255.12
380.87	301.93
381.07	397.89
381.26	367.46
381.46	325.33
381.65	367.46
381.85	393.21
382.04	355.76
382.24	374.49
382.43	407.25
382.63	330.02
382.83	379.17
383.02	404.91
383.22	332.36
383.41	386.19
383.61	421.30
383.80	451.72
384.00	379.17
384.19	437.68
384.39	351.08
384.58	273.84
384.78	414.27
384.97	341.72
385.17	301.93
385.36	369.80
385.56	468.11
385.75	449.38
385.95	386.19
386.14	449.38
386.34	402.57
386.53	393.21
386.72	428.32
386.92	463.43
387.11	418.96
387.31	374.49
387.50	479.81
387.70	430.66
387.89	416.62
388.09	435.34
388.28	437.68
388.48	461.09
388.67	386.19
388.86	421.30
389.06	482.15
389.25	526.62
389.45	465.77
389.64	404.91
389.84	463.43
390.03	458.74
390.22	578.11
390.42	486.83
390.61	482.15
390.81	472.79
391.00	442.36
391.19	552.37
391.39	463.43
391.58	540.66
391.78	524.28
391.97	519.60
392.16	524.28
392.36	533.64
392.55	512.58
392.75	449.38
392.94	620.24
393.13	540.66
393.33	514.92
393.52	554.71
393.71	540.66
393.91	606.20
394.10	638.97
394.29	512.58
394.49	585.13
394.68	514.92
394.88	585.13
395.07	535.98
395.26	629.60
395.46	575.77
395.65	674.07
395.84	601.52
396.04	608.54
396.23	692.80
396.42	601.52
396.62	643.65
396.81	676.41
397.00	643.65
397.19	606.20
397.39	648.33
397.58	617.90
397.77	713.86
397.97	662.37
398.16	669.39
398.35	718.54
398.55	711.52
398.74	669.39
398.93	709.18
399.12	758.33
399.32	716.20
399.51	828.55
399.70	798.12
399.90	737.27
400.09	760.67
400.28	767.70
400.47	814.51
400.67	777.06
400.86	770.04
401.05	777.06
401.24	816.85
401.44	807.48
401.63	739.61
401.82	866.00
402.01	847.27
402.21	807.48
402.40	898.77
402.59	936.21
402.78	830.89
402.97	847.27
403.17	880.04
403.36	880.04
403.55	868.34
403.74	931.53
403.93	875.36
404.13	929.19
404.32	889.40
404.51	882.38
404.70	990.05
404.89	936.21
405.09	1076.65
405.28	1090.69
405.47	980.68
405.66	1011.11
405.85	980.68
406.05	924.51
406.24	936.21
406.43	1060.26
406.62	1013.45
406.81	1053.24
407.00	994.73
407.20	1048.56
407.39	1132.82
407.58	1121.12
407.77	1041.54
407.96	1146.86
408.15	1111.75
408.34	1034.52
408.54	1132.82
408.73	1053.24
408.92	1139.84
409.11	1067.28
409.30	1142.18
409.49	1172.61
409.68	1090.69
409.87	1097.71
410.07	1156.22
410.26	1203.04
410.45	1177.29
410.64	1160.91
410.83	1242.82
411.02	1231.12
411.21	1268.57
411.40	1200.69
411.59	1277.93
411.78	1336.45
411.98	1273.25
412.17	1352.83
412.36	1296.66
412.55	1341.13
412.74	1383.26
412.93	1413.68
413.12	1291.98
413.31	1483.90
413.50	1373.89
413.69	1488.58
413.88	1409.00
414.07	1437.09
414.26	1383.26
414.45	1420.71
414.64	1603.27
414.83	1507.30
415.02	1526.03
415.22	1565.82
415.41	1650.08
415.60	1565.82
415.79	1589.22
415.98	1640.72
416.17	1692.21
416.36	1533.05
416.55	1619.65
416.74	1640.72
416.93	1668.80
417.12	1710.93
417.31	1668.80
417.50	1598.59
417.69	1820.94
417.88	1706.25
418.07	1732.00
418.26	1788.17
418.45	1689.87
418.64	1909.88
418.83	1834.98
419.02	1746.04
419.21	1834.98
419.39	1987.11
419.58	1860.73
419.77	1849.02
419.96	1823.28
420.15	1839.66
420.34	1959.03
420.53	1982.43
420.72	1980.09
420.91	1886.47
421.10	1954.35
421.29	2078.40
421.48	1940.30
421.67	1989.46
421.86	1860.73
422.05	1937.96
422.24	2003.50
422.43	2033.93
422.61	1942.64
422.80	2001.16
422.99	2050.31
423.18	2120.53
423.37	2221.17
423.56	2022.22
423.75	2115.84
423.94	1949.67
424.13	1900.52
424.32	2019.88
424.50	2136.91
424.69	2120.53
424.88	1991.80
425.07	2064.35
425.26	2186.06
425.45	2064.35
425.64	2172.02
425.83	2064.35
426.01	2228.19
426.20	2054.99
426.39	2235.21
426.58	2139.25
426.77	2115.84
426.96	2143.93
427.15	2122.87
427.33	2118.18
427.52	2069.03
427.71	2108.82
427.90	2172.02
428.09	2284.36
428.28	2162.66
428.46	2275.00
428.65	2190.74
428.84	2328.83
429.03	2270.32
429.22	2134.57
429.40	2333.51
429.59	2307.77
429.78	2235.21
429.97	2134.57
430.16	2202.44
430.34	2333.51
430.53	2354.58
430.72	2310.11
430.91	2403.73
431.10	2258.62
431.28	2410.75
431.47	2324.15
431.66	2385.01
431.85	2480.97
432.03	2527.78
432.22	2436.50
432.41	2452.88
432.60	2387.35
432.79	2452.88
432.97	2520.76
433.16	2534.80
433.35	2511.39
433.54	2537.14
433.72	2431.82
433.91	2551.18
434.10	2548.84
434.28	2649.49
434.47	2640.12
434.66	2684.59
434.85	2593.31
435.03	2642.46
435.22	2621.40
435.41	2715.02
435.59	2518.42
435.78	2750.13
435.97	2700.98
436.16	2740.77
436.34	2717.36
436.53	2808.64
436.72	2715.02
436.90	2651.83
437.09	2794.60
437.28	2822.69
437.46	2815.66
437.65	2637.78
437.84	2752.47
438.02	2740.77
438.21	2745.45
438.40	2862.48
438.58	2890.56
438.77	2923.33
438.96	2920.99
439.14	2864.82
439.33	2993.55
439.52	3033.33
439.70	3054.40
439.89	3180.79
440.08	3021.63
440.26	2998.23
440.45	3007.59
440.63	3073.12
440.82	3171.43
441.01	3187.81
441.19	3349.31
441.38	3201.85
441.57	3234.62
441.75	3314.20
441.94	3286.11
442.12	3365.69
442.31	3417.18
442.50	3363.35
442.68	3246.32
442.87	3260.37
443.05	3342.28
443.24	3480.38
443.43	3489.74
443.61	3517.83
443.80	3646.55
443.98	3389.10
444.17	3377.39
444.35	3346.97
444.54	3428.88
444.73	3548.25
444.91	3424.20
445.10	3534.21
445.28	3398.46
445.47	3435.91
445.65	3501.44
445.84	3475.70
446.02	3508.46
446.21	3452.29
446.39	3307.18
446.58	3574.00
446.77	3616.13
446.95	3471.01
447.14	3503.78
447.32	3611.45
447.51	3590.38
447.69	3431.23
447.88	3613.79
448.06	3599.74
448.25	3552.93
448.43	3684.00
448.62	3667.62
448.80	3686.34
448.99	3641.87
449.17	3679.32
449.36	3592.72
449.54	3735.50
449.73	3651.24
449.91	3880.61
450.10	3653.58
450.28	3864.22
450.46	3882.95
450.65	3719.11
450.83	3873.59
451.02	3775.28
451.20	3911.04
451.39	3824.44
451.57	3810.39
451.76	3899.33
451.94	3873.59
452.13	3953.16
452.31	3882.95
452.49	3875.93
452.68	3911.04
452.86	3770.60
453.05	3845.50
453.23	3896.99
453.42	3913.38
453.60	3995.29
453.78	4014.02
453.97	3861.88
454.15	3875.93
454.34	4114.66
454.52	4140.41
454.70	4056.15
454.89	4147.43
455.07	4098.28
455.26	4156.79
455.44	4229.35
455.62	4259.78
455.81	4175.52
455.99	4234.03
456.17	4177.86
456.36	4028.06
456.54	4208.28
456.73	4227.01
456.91	4306.59
457.09	4383.82
457.28	4486.81
457.46	4379.14
457.64	4514.89
457.83	4257.43
458.01	4271.48
458.19	4369.78
458.38	4414.25
458.56	4545.32
458.74	4454.04
458.93	4564.04
459.11	4587.45
459.29	4538.30
459.48	4596.81
459.66	4447.02
459.84	4564.04
460.03	4730.22
460.21	4601.49
460.39	4636.60
460.57	4578.09
460.76	4638.94
460.94	4819.16
461.12	4662.35
461.31	4706.82
461.49	4648.30
461.67	4648.30
461.85	4660.01
462.04	4788.74
462.22	5186.63
462.40	4856.61
462.59	4877.68
462.77	4880.02
462.95	4718.52
463.13	4781.71
463.32	4779.37
463.50	4999.38
463.68	4973.64
463.86	4891.72
464.05	4945.55
464.23	5022.79
464.41	5142.16
464.59	4802.78
464.78	5078.96
464.96	4983.00
465.14	5018.11
465.32	4870.65
465.50	4983.00
465.69	5177.26
465.87	5020.45
466.05	5004.07
466.23	4985.34
466.41	5062.58
466.60	5263.86
466.78	5064.92
466.96	5004.07
467.14	5167.90
467.32	5097.69
467.51	5266.21
467.69	5076.62
467.87	5378.55
468.05	5174.92
468.23	5203.01
468.41	5308.34
468.60	5284.93
468.78	5315.36
468.96	5287.27
469.14	5320.04
469.32	5273.23
469.50	5380.89
469.69	5345.78
469.87	5425.36
470.05	5561.11
470.23	5523.66
470.41	5483.88
470.59	5591.54
470.77	5502.60
470.95	5607.92
471.14	5640.69
471.32	5572.82
471.50	5652.39
471.68	5813.89
471.86	5760.06
472.04	5605.58
472.22	5706.23
472.40	5736.65
472.58	5893.47
472.77	5818.57
472.95	6026.88
473.13	6132.20
473.31	5776.44
473.49	5877.09
473.67	5921.56
473.85	5973.05
474.03	5907.51
474.21	6113.48
474.39	6080.71
474.57	6324.13
474.75	6466.90
474.93	6392.00
475.12	6155.61
475.30	6193.06
475.48	6200.08
475.66	6494.99
475.84	6443.49
476.02	6375.62
476.20	6445.84
476.38	6548.82
476.56	6698.61
476.74	6799.26
476.92	6722.02
477.10	6513.71
477.28	6707.98
477.46	6644.78
477.64	6984.16
477.82	7000.54
478.00	6993.52
478.18	7178.42
478.36	7157.36
478.54	7070.76
478.72	7145.66
478.90	7449.93
479.08	7332.90
479.26	7396.09
479.44	7426.52
479.62	7433.54
479.80	7321.20
479.98	7503.76
480.16	7616.10
480.34	7606.74
480.52	7707.38
480.70	7880.58
480.88	7892.29
481.06	7913.35
481.24	7892.29
481.41	8131.02
481.59	8166.13
481.77	8070.17
481.95	8184.85
482.13	8177.83
482.31	8299.54
482.49	8259.75
482.67	8369.76
482.85	8498.49
483.03	8599.13
483.21	8795.73
483.39	8774.67
483.57	8823.82
483.74	8816.80
483.92	9064.89
484.10	8950.21
484.28	9048.51
484.46	9397.25
484.64	9308.31
484.82	9165.54
485.00	9301.29
485.18	9533.00
485.35	9472.15
485.53	9542.36
485.71	9460.45
485.89	9748.33
486.07	9802.16
486.25	9717.90
486.43	10036.22
486.61	9818.55
486.78	10068.98
486.96	10216.44
487.14	10122.82
487.32	10375.59
487.50	10422.41
487.68	10354.53
487.85	10480.92
488.03	10558.16
488.21	10609.65
488.39	10707.95
488.57	10810.93
488.75	10883.49
488.92	11075.42
489.10	10974.77
489.28	11281.38
489.46	11262.66
489.64	11143.29
489.81	11367.98
489.99	11384.37
490.17	11351.60
490.35	11627.78
490.53	11620.76
490.70	11969.50
490.88	11690.98
491.06	12028.01
491.24	12046.74
491.41	12058.44
491.59	12322.92
491.77	12063.12
491.95	12093.55
492.13	12238.66
492.30	12531.23
492.48	12458.67
492.66	12617.83
492.84	12507.82
493.01	12568.68
493.19	12798.05
493.37	12910.40
493.54	12954.87
493.72	13137.43
493.90	13137.43
494.08	13186.58
494.25	13263.82
494.43	13317.65
494.61	13502.55
494.79	13661.71
494.96	13516.59
495.14	13603.19
495.32	13923.85
495.49	13767.03
495.67	14134.50
495.85	14216.41
496.02	14150.88
496.20	14340.46
496.38	14185.99
496.55	14176.62
496.73	14562.81
496.91	14647.07
497.09	14686.86
497.26	14654.09
497.44	14700.90
497.62	14342.80
497.79	14782.82
497.97	14817.93
498.14	14743.03
498.32	14949.00
498.50	15145.61
498.67	15316.47
498.85	15309.44
499.03	15119.86
499.20	15082.41
499.38	15206.46
499.56	15548.18
499.73	15480.30
499.91	15407.75
500.08	15751.81
500.26	15651.16
500.44	15665.21
500.61	15655.84
500.79	15875.85
500.97	15859.47
501.14	16058.42
501.32	16154.38
501.49	16198.85
501.67	15992.88
501.84	16004.58
502.02	16400.13
502.20	16425.88
502.37	16503.12
502.55	16624.83
502.72	16704.40
502.90	16472.69
503.07	16638.87
503.25	16517.16
503.43	16594.40
503.60	16702.06
503.78	16922.07
503.95	16950.16
504.13	16968.88
504.30	16898.67
504.48	17067.19
504.65	16889.31
504.83	17317.62
505.01	17584.44
505.18	17448.69
505.36	17851.27
505.53	17322.30
505.71	17523.59
505.88	17731.90
506.06	17570.40
506.23	17476.78
506.41	17642.96
506.58	17783.39
506.76	17757.64
506.93	17743.60
507.11	17724.88
507.28	17547.00
507.46	18176.60
507.63	18097.02
507.81	18532.36
507.98	17907.44
508.16	17654.66
508.33	18237.45
508.50	18225.75
508.68	18310.01
508.85	18640.03
509.03	18272.56
509.20	18469.17
509.38	18649.39
509.55	18796.84
509.73	18553.43
509.90	18773.44
510.08	18717.26
510.25	18845.99
510.42	18827.27
510.60	18972.38
510.77	18981.74
510.95	19178.35
511.12	18813.23
511.30	19314.10
511.47	19129.20
511.64	19131.54
511.82	19400.70
511.99	19407.72
512.17	19344.53
512.34	19386.66
512.51	19573.90
512.69	19599.65
512.86	19477.94
513.04	19887.53
513.21	19868.81
513.38	20070.09
513.56	20013.92
513.73	19693.27
513.90	19843.06
514.08	20032.65
514.25	19985.83
514.43	20182.44
514.60	20437.56
514.77	20236.27
514.95	20030.30
515.12	20205.84
515.29	20163.72
515.47	20430.54
515.64	20812.04
515.81	20589.69
515.99	20402.45
516.16	20711.40
516.33	20652.89
516.51	20985.24
516.68	20617.78
516.85	20800.34
517.03	21015.67
517.20	20931.41
517.37	20821.41
517.54	21062.48
517.72	20912.69
517.89	21156.10
518.06	20849.49
518.24	21254.40
518.41	21057.80
518.58	21223.98
518.75	21287.17
518.93	21144.40
519.10	21352.71
519.27	21694.43
519.45	21092.91
519.62	21458.03
519.79	21483.78
519.96	21240.36
520.14	21816.13
520.31	21919.12
520.48	21795.07
520.65	21532.93
520.83	21818.47
521.00	21956.57
521.17	21827.84
521.34	21605.49
521.52	21947.20
521.69	22185.94
521.86	21752.94
522.03	22221.05
522.20	22237.43
522.38	22356.80
522.55	22169.55
522.72	22223.39
522.89	22541.70
523.07	22527.66
523.24	22712.56
523.41	22560.42
523.58	22445.74
523.75	22560.42
523.92	22597.87
524.10	22838.95
524.27	22843.63
524.44	22670.43
524.61	23201.73
524.78	23009.81
524.96	23014.49
525.13	23321.10
525.30	23112.79
525.47	23119.81
525.64	23021.51
525.81	23040.23
525.98	23269.61
526.16	23112.79
526.33	23335.14
526.50	23243.86
526.67	23342.16
526.84	22970.02
527.01	23087.04
527.18	23311.74
527.36	23552.81
527.53	23632.39
527.70	23620.69
527.87	23777.50
528.04	23442.81
528.21	23793.89
528.38	23821.97
528.55	23880.49
528.72	23637.07
528.89	23927.30
529.07	23894.53
529.24	23721.33
529.41	24112.20
529.58	23718.99
529.75	24081.77
529.92	24121.56
530.09	23798.57
530.26	24187.10
530.43	24416.47
530.60	23850.06
530.77	24105.18
530.94	24400.08
531.11	23957.72
531.28	24376.68
531.46	24123.90
531.63	24198.80
531.80	24720.74
531.97	24283.06
532.14	24683.29
532.31	24809.68
532.48	24542.86
532.65	24353.27
532.82	24559.24
532.99	24938.41
533.16	24521.79
533.33	24844.79
533.50	24868.19
533.67	24767.55
533.84	24826.06
534.01	24879.89
534.18	24847.13
534.35	24922.02
534.52	24814.36
534.69	25535.24
534.86	25427.58
535.03	24851.81
535.20	25305.87
535.37	25284.81
535.54	25273.10
535.71	25099.90
535.88	25542.27
536.05	25331.62
536.22	25397.15
536.38	25544.61
536.55	25600.78
536.72	25303.53
536.89	25371.41
537.06	25294.17
537.23	25628.87
537.40	25312.89
537.57	25366.73
537.74	25593.76
537.91	25891.01
538.08	25621.84
538.25	25680.36
538.42	25975.27
538.59	26064.21
538.75	25560.99
538.92	25551.63
539.09	26139.10
539.26	25752.91
539.43	25949.52
539.60	26319.32
539.77	26017.40
539.94	26316.98
540.11	26111.02
540.28	25998.67
540.44	26326.35
540.61	26333.37
540.78	26164.85
540.95	26026.76
541.12	26223.36
541.29	26157.83
541.46	26452.73
541.62	25956.54
541.79	25998.67
541.96	25893.35
542.13	26293.58
542.30	26501.89
542.47	26579.12
542.63	26911.48
542.80	26869.35
542.97	26855.31
543.14	27262.56
543.31	26757.00
543.48	26984.04
543.64	27065.96
543.81	27122.13
543.98	27133.83
544.15	26892.76
544.32	27225.11
544.48	27143.19
544.65	27082.34
544.82	26930.20
544.99	27047.23
545.16	27374.91
545.32	27014.46
545.49	27599.60
545.66	27227.45
545.83	27569.17
546.00	27688.54
546.16	27634.71
546.33	27363.20
546.50	27395.97
546.67	27316.39
546.83	26904.46
547.00	27487.25
547.17	27716.62
547.34	27222.77
547.50	27709.60
547.67	27798.54
547.84	27702.58
548.00	27262.56
548.17	27527.04
548.34	27817.27
548.51	27597.26
548.67	27742.37
548.84	28215.16
549.01	27957.70
549.18	28070.04
549.34	27679.18
549.51	27723.65
549.68	27988.13
549.84	27674.49
550.01	28056.00
550.18	28077.07
550.34	28203.46
550.51	28313.46
550.68	28004.51
550.84	27571.51
551.01	28201.11
551.18	27985.79
551.34	27517.68
551.51	28133.24
551.68	28140.26
551.84	28156.64
552.01	28144.94
552.18	28446.87
552.34	28074.73
552.51	28683.27
552.68	27953.02
552.84	28503.04
553.01	28411.76
553.18	28329.84
553.34	28507.72
553.51	28659.86
553.67	28037.28
553.84	29163.08
554.01	28584.96
554.17	28917.32
554.34	28570.92
554.51	29078.82
554.67	28840.08
554.84	28271.33
555.00	28510.07
555.17	28606.03
555.33	28552.20
555.50	28737.10
555.67	28512.41
555.83	28613.05
556.00	28744.12
556.16	29006.26
556.33	28739.44
556.50	29186.48
556.66	28999.24
556.83	28940.72
556.99	29577.35
557.16	29074.13
557.32	29064.77
557.49	29125.63
557.65	29010.94
557.82	29291.80
557.98	29111.58
558.15	28952.43
558.32	28952.43
558.48	29165.42
558.65	29357.34
558.81	29261.38
558.98	29387.77
559.14	29184.14
559.31	29074.13
559.47	28985.19
559.64	29509.47
559.80	29247.33
559.97	29689.70
560.13	29170.10
560.30	29013.28
560.46	29284.78
560.63	29422.87
560.79	29837.15
560.96	29120.95
561.12	29467.34
561.29	29205.20
561.45	29481.39
561.61	29771.61
561.78	29883.96
561.94	29434.58
562.11	29900.34
562.27	29263.72
562.44	29352.66
562.60	29577.35
562.77	29362.02
562.93	29504.79
563.10	29567.99
563.26	29626.50
563.42	29970.56
563.59	29792.68
563.75	29624.16
563.92	29895.66
564.08	29385.43
564.24	29586.71
564.41	29685.01
564.57	29633.52
564.74	29507.13
564.90	30059.50
565.07	29640.54
565.23	29727.14
565.39	30218.66
565.56	29846.51
565.72	29879.28
565.88	29890.98
566.05	29490.75
566.21	29729.48
566.38	29558.63
566.54	29785.66
566.70	30029.07
566.87	30082.91
567.03	29930.77
567.19	29998.65
567.36	30211.64
567.52	29853.53
567.68	30157.80
567.85	29640.54
568.01	29933.11
568.17	29577.35
568.34	29914.39
568.50	30075.88
568.66	29890.98
568.83	30192.91
568.99	30057.16
569.15	30169.51
569.32	30162.48
569.48	30110.99
569.64	29991.62
569.81	30143.76
569.97	30010.35
570.13	30230.36
570.30	29785.66
570.46	29933.11
570.62	30302.92
570.78	30305.26
570.95	30244.40
571.11	30178.87
571.27	29874.60
571.43	30071.20
571.60	30082.91
571.76	30113.33
571.92	30569.74
572.09	30232.70
572.25	30768.68
572.41	30059.50
572.57	30382.49
572.74	30302.92
572.90	30089.93
573.06	30029.07
573.22	30176.53
573.38	30419.94
573.55	29947.15
573.71	30242.06
573.87	30703.15
574.03	30218.66
574.20	30623.57
574.36	30099.29
574.52	30464.41
574.68	30335.68
574.84	30157.80
575.01	30340.36
575.17	30457.39
575.33	30157.80
575.49	30249.08
575.65	30539.31
575.82	30249.08
575.98	30602.50
576.14	30569.74
576.30	30176.53
576.46	30340.36
576.62	30532.29
576.79	30279.51
576.95	30274.83
577.11	30881.03
577.27	30396.54
577.43	30520.59
577.59	30801.45
577.75	30654.00
577.92	30618.89
578.08	30258.45
578.24	30279.51
578.40	30469.09
578.56	30581.44
578.72	30504.20
578.88	30766.34
579.04	30909.11
579.21	30391.86
579.37	30548.67
579.53	30654.00
579.69	30181.21
579.85	30438.67
580.01	30464.41
580.17	30073.54
580.33	30672.72
580.49	30529.95
580.65	30661.02
580.82	30838.90
580.98	30604.84
581.14	30515.90
581.30	30579.10
581.46	30522.93
581.62	30682.08
581.78	30396.54
581.94	30211.64
582.10	30333.34
582.26	31154.87
582.42	30354.41
582.58	30836.56
582.74	30876.35
582.90	30941.88
583.06	30595.48
583.22	30756.98
583.38	30352.07
583.54	30223.34
583.70	30452.71
583.86	30483.14
584.02	30106.31
584.18	30813.15
584.34	30607.19
584.50	30768.68
584.66	30522.93
584.82	30850.60
584.98	30740.60
585.14	30148.44
585.30	30705.49
585.46	30415.26
585.62	30188.23
585.78	30286.53
585.94	30576.76
586.10	30794.43
586.26	30827.20
586.42	30848.26
586.58	30651.66
586.74	30532.29
586.90	30408.24
587.06	29996.31
587.22	30586.12
587.38	30518.25
587.54	30888.05
587.70	31608.93
587.86	30747.62
588.02	30967.63
588.18	30904.43
588.34	30883.37
588.49	30881.03
588.65	30623.57
588.81	30525.27
588.97	30939.54
589.13	31000.40
589.29	31201.68
589.45	30487.82
589.61	31089.34
589.77	30843.58
589.93	30920.82
590.08	31002.74
590.24	31236.79
590.40	31260.20
590.56	31105.72
590.72	31042.53
590.88	31136.15
591.04	30944.22
591.20	31061.25
591.35	30955.93
591.51	31683.83
591.67	31398.29
591.83	31363.18
591.99	31168.91
592.15	31330.41
592.31	31407.65
592.46	30745.28
592.62	30726.55
592.78	30913.80
592.94	31035.50
593.10	30965.29
593.26	30813.15
593.41	31262.54
593.57	30941.88
593.73	31297.64
593.89	31470.84
594.05	31243.81
594.20	31154.87
594.36	31037.84
594.52	30803.79
594.68	30590.80
594.84	31161.89
594.99	31136.15
595.15	31370.20
595.31	31330.41
595.47	31424.03
595.62	31119.76
595.78	30946.56
595.94	31250.83
596.10	31014.44
596.25	31377.22
596.41	30939.54
596.57	30998.06
596.73	30799.11
596.88	30675.06
597.04	31199.34
597.20	31323.39
597.36	31250.83
597.51	31587.87
597.67	31187.64
597.83	31194.66
597.99	31241.47
598.14	31454.46
598.30	31215.72
598.46	31126.78
598.61	31065.93
598.77	31168.91
598.93	31400.63
599.09	31318.71
599.24	31639.36
599.40	31557.44
599.56	31421.69
599.71	31218.07
599.87	31218.07
600.03	31578.51
600.18	31065.93
600.34	31522.34
600.50	31098.70
600.65	31026.14
600.81	31435.74
600.97	31707.24
601.12	31255.51
601.28	31622.98
601.44	31398.29
601.59	31957.67
601.75	30946.56
601.91	31339.77
602.06	31103.38
602.22	31304.67
602.37	31241.47
602.53	31239.13
602.69	31550.42
602.84	31178.28
603.00	31285.94
603.16	31599.57
603.31	30946.56
603.47	31290.62
603.62	31358.50
603.78	31276.58
603.94	31065.93
604.09	30932.52
604.25	31409.99
604.40	31012.10
604.56	31168.91
604.71	31316.37
604.87	31592.55
605.03	30951.24
605.18	31468.50
605.34	30810.81
605.49	30995.71
605.65	31503.61
605.80	30848.26
605.96	31332.75
606.12	31049.55
606.27	30960.61
606.43	31194.66
606.58	31304.67
606.74	31101.04
606.89	31473.18
607.05	31489.57
607.20	31552.76
607.36	31152.53
607.51	31133.81
607.67	31145.51
607.82	30944.22
607.98	31185.30
608.13	31094.02
608.29	30939.54
608.44	31040.18
608.60	31058.91
608.75	31466.16
608.91	31637.02
609.06	30838.90
609.22	30951.24
609.37	30859.96
609.53	30492.50
609.68	31063.59
609.84	30988.69
609.99	30490.16
610.15	31077.63
610.30	30579.10
610.46	30892.73
610.61	30892.73
610.76	30703.15
610.92	30986.35
611.07	31246.15
611.23	30621.23
611.38	30932.52
611.54	30813.15
611.69	30698.47
611.84	30625.91
612.00	30639.95
612.15	30761.66
612.31	30904.43
612.46	31077.63
612.62	31285.94
612.77	30918.48
612.92	31049.55
613.08	30756.98
613.23	30698.47
613.39	30796.77
613.54	30536.97
613.69	30590.80
613.85	30661.02
614.00	30852.94
614.15	31030.82
614.31	30452.71
614.46	30661.02
614.62	30829.54
614.77	30792.09
614.92	30588.46
615.08	30199.93
615.23	30235.04
615.38	30747.62
615.54	30361.43
615.69	30429.30
615.84	30272.49
616.00	30838.90
616.15	30424.62
616.30	30602.50
616.46	30691.44
616.61	30567.40
616.76	30445.69
616.92	30426.96
617.07	30714.85
617.22	30609.53
617.37	30134.40
617.53	30316.96
617.68	30061.84
617.83	30277.17
617.99	30286.53
618.14	30302.92
618.29	30155.46
618.45	30534.63
618.60	30536.97
618.75	30216.32
618.90	30017.37
619.06	30373.13
619.21	30232.70
619.36	30118.01
619.51	30178.87
619.67	30122.69
619.82	29916.73
619.97	30068.86
620.12	29954.18
620.28	29626.50
620.43	30059.50
620.58	30157.80
620.73	30057.16
620.89	30068.86
621.04	30370.79
621.19	30284.19
621.34	30167.16
621.49	29809.06
621.65	29713.10
621.80	29942.47
621.95	29773.95
622.10	30342.70
622.25	29818.42
622.41	29820.77
622.56	29603.10
622.71	30417.60
622.86	30071.20
623.01	29893.32
623.16	30185.89
623.32	29862.90
623.47	29621.82
623.62	29626.50
623.77	29343.30
623.92	29839.49
624.07	29371.38
624.23	30080.56
624.38	29509.47
624.53	29418.19
624.68	29851.19
624.83	29649.91
624.98	29656.93
625.13	29752.89
625.29	29916.73
625.44	29401.81
625.59	29177.12
625.74	29268.40
625.89	29474.37
626.04	29006.26
626.19	29156.05
626.34	29553.94
626.49	29069.45
626.65	29415.85
626.80	29429.90
626.95	29406.49
627.10	29741.19
627.25	29528.20
627.40	29312.87
627.55	29151.37
627.70	29415.85
627.85	29041.37
628.00	29291.80
628.15	29116.26
628.30	28917.32
628.45	28489.00
628.60	29053.07
628.76	28872.85
628.91	29008.60
629.06	29256.70
629.21	29235.63
629.36	29172.44
629.51	29165.42
629.66	29184.14
629.81	28863.49
629.96	28957.11
630.11	28943.06
630.26	28638.80
630.41	28936.04
630.56	28479.64
630.71	28844.76
630.86	28786.25
631.01	28943.06
631.16	28659.86
631.31	28835.40
631.46	28774.55
631.61	28950.09
631.76	29170.10
631.91	28524.11
632.06	28510.07
632.21	28795.61
632.36	28570.92
632.51	28364.95
632.66	28556.88
632.81	28430.49
632.96	28760.50
633.10	28952.43
633.25	28568.58
633.40	28863.49
633.55	28772.21
633.70	28531.13
633.85	28250.27
634.00	28156.64
634.15	28591.98
634.30	28472.62
634.45	28456.23
634.60	28222.18
634.75	28320.48
634.90	28299.42
635.05	28573.26
635.19	28240.90
635.34	28606.03
635.49	28481.98
635.64	28421.13
635.79	28474.96
635.94	28697.31
636.09	28683.27
636.24	28039.62
636.39	28187.07
636.53	28346.23
636.68	27718.96
636.83	27835.99
636.98	28098.13
637.13	28023.23
637.28	28290.06
637.43	28383.68
637.57	28194.09
637.72	28233.88
637.87	28013.87
638.02	28128.56
638.17	28030.26
638.32	27906.21
638.46	28098.13
638.61	27627.68
638.76	27730.67
638.91	27861.74
639.06	27718.96
639.20	27894.50
639.35	27997.49
639.50	27688.54
639.65	27845.35
639.80	28130.90
639.94	27789.18
640.09	27971.74
640.24	27988.13
640.39	27744.71
640.54	27763.43
640.68	27618.32
640.83	27625.34
640.98	27489.59
641.13	27639.39
641.27	27623.00
641.42	27585.55
641.57	27857.06
641.72	27903.87
641.86	27688.54
642.01	27171.28
642.16	27510.66
642.31	27477.89
642.45	27543.42
642.60	27374.91
642.75	27154.90
642.90	27068.30
643.04	27597.26
643.19	27257.88
643.34	27459.16
643.48	27662.79
643.63	27351.50
643.78	27166.60
643.93	27885.14
644.07	27353.84
644.22	27592.58
644.37	27311.71
644.51	27524.70
644.66	27278.94
644.81	27126.81
644.95	26967.65
645.10	26768.71
645.25	27136.17
645.39	27229.79
645.54	27246.18
645.69	26852.97
645.83	27220.43
645.98	27211.07
646.13	27428.74
646.27	27023.83
646.42	27498.95
646.57	26897.44
646.71	27058.93
646.86	27204.05
647.00	26747.64
647.15	26794.45
647.30	26684.45
647.44	26848.29
647.59	26955.95
647.74	26874.03
647.88	26794.45
648.03	27075.32
648.17	27285.97
648.32	27171.28
648.47	26724.24
648.61	27082.34
648.76	27138.51
648.90	26541.68
649.05	27051.91
649.20	26637.64
649.34	26733.60
649.49	26686.79
649.63	26668.06
649.78	26473.80
649.92	26422.31
650.07	26625.93
650.21	26520.61
650.36	26448.05
650.51	26803.82
650.65	26721.90
650.80	26600.19
650.94	26581.46
651.09	26618.91
651.23	26319.32
651.38	26609.55
651.52	26321.66
651.67	26492.52
651.81	26459.76
651.96	26352.09
652.10	26572.10
652.25	26618.91
652.39	26441.03
652.54	26267.83
652.68	26513.59
652.83	26441.03
652.97	26878.71
653.12	26160.17
653.26	26075.91
653.41	26190.59
653.55	26232.72
653.70	26192.94
653.84	26597.85
653.99	26338.05
654.13	26235.06
654.27	26363.79
654.42	26073.57
654.56	26096.97
654.71	26340.39
654.85	26469.12
655.00	26022.08
655.14	26455.08
655.29	25825.47
655.43	26384.86
655.57	26190.59
655.72	25827.81
655.86	25900.37
656.01	26012.71
656.15	26141.44
656.30	26089.95
656.44	25668.66
656.58	25944.84
656.73	25804.41
656.87	25928.45
657.01	26001.01
657.16	25982.29
657.30	25996.33
657.45	25809.09
657.59	25783.34
657.73	25750.57
657.88	25694.40
658.02	25067.14
658.16	25727.17
658.31	25757.60
658.45	25603.12
658.60	25591.42
658.74	25521.20
658.88	25504.82
659.03	25507.16
659.17	25685.04
659.31	25401.83
659.46	25703.76
659.60	25472.05
659.74	25488.43
659.89	25420.56
660.03	25303.53
660.17	25476.73
660.32	24961.81
660.46	25289.49
660.60	25429.92
660.74	24849.47
660.89	25167.78
661.03	25223.95
661.17	25198.21
661.32	24823.72
661.46	25275.45
661.60	24783.93
661.74	25242.68
661.89	25291.83
662.03	25064.80
662.17	24907.98
662.31	24666.91
662.46	25109.27
662.60	24744.14
662.74	24952.45
662.88	24790.95
663.03	24552.22
663.17	24694.99
663.31	24617.75
663.45	24446.90
663.60	24802.66
663.74	24531.15
663.88	24402.43
664.02	24723.08
664.17	24648.18
664.31	24599.03
664.45	24673.93
664.59	24582.65
664.73	24376.68
664.88	24397.74
665.02	24086.45
665.16	24088.79
665.30	24376.68
665.44	24177.73
665.59	23730.69
665.73	24318.17
665.87	23988.15
666.01	24465.62
666.15	24243.27
666.29	24383.70
666.44	24177.73
666.58	23779.84
666.72	23641.75
666.86	23871.12
667.00	24116.88
667.14	23800.91
667.28	23751.76
667.43	23466.21
667.57	23651.11
667.71	23623.03
667.85	23800.91
667.99	23576.22
668.13	23330.46
668.27	23323.44
668.41	23534.09
668.56	23480.25
668.70	23346.84
668.84	23793.89
668.98	23349.18
669.12	23131.51
669.26	23590.26
669.40	23175.98
669.54	23105.77
669.68	23517.70
669.82	23096.41
669.96	23157.26
670.10	22670.43
670.25	22721.92
670.39	22574.47
670.53	22698.52
670.67	22874.06
670.81	22852.99
670.95	22817.88
671.09	22960.66
671.23	22972.36
671.37	23101.09
671.51	23080.02
671.65	22586.17
671.79	22916.19
671.93	22590.85
672.07	22625.96
672.21	22331.05
672.35	22490.21
672.49	22228.07
672.63	21902.73
672.77	21996.35
672.91	22286.58
673.05	21970.61
673.19	22183.60
673.33	22068.91
673.47	22064.23
673.61	22368.50
673.75	21975.29
673.89	22352.12
674.03	22225.73
674.17	21891.03
674.31	21963.59
674.45	21776.34
674.59	21664.00
674.73	22047.85
674.87	21720.17
675.01	21633.57
675.15	21696.77
675.29	21413.56
675.43	21687.40
675.56	21364.41
675.70	21429.94
675.84	21266.11
675.98	20919.71
676.12	21362.07
676.26	21378.45
676.40	21631.23
676.54	21064.82
676.68	20807.36
676.82	20769.91
676.96	20709.06
677.10	20952.48
677.23	20521.82
677.37	20861.19
677.51	20673.95
677.65	20573.31
677.79	20486.71
677.93	20442.24
678.07	20290.10
678.21	20247.97
678.34	20421.17
678.48	20116.90
678.62	20442.24
678.76	20123.93
678.90	19988.18
679.04	19887.53
679.18	20142.65
679.31	19948.39
679.45	19814.98
679.59	19658.16
679.73	19754.12
679.87	19569.22
680.00	19740.08
680.14	19442.83
680.28	19562.20
680.42	19480.28
680.56	19555.18
680.70	19716.67
680.83	19367.93
680.97	19484.96
681.11	19243.88
681.25	19061.32
681.39	18944.30
681.52	19194.73
681.66	19007.49
681.80	18803.86
681.94	18902.17
682.07	18675.13
682.21	18721.95
682.35	18410.65
682.49	18548.75
682.62	18499.59
682.76	18405.97
682.90	18663.43
683.04	18616.62
683.17	18593.22
683.31	18415.34
683.45	18469.17
683.59	18265.54
683.72	18298.31
683.86	18258.52
684.00	18256.18
684.13	18192.98
684.27	17902.76
684.41	17795.09
684.55	17729.56
684.68	17614.87
684.82	17652.32
684.96	17696.79
685.09	17542.32
685.23	17039.10
685.37	17352.73
685.50	17764.67
685.64	17776.37
685.78	17282.52
685.91	17348.05
686.05	17638.28
686.19	17525.93
686.32	17432.31
686.46	17376.14
686.60	17003.99
686.73	16854.20
686.87	16945.48
687.01	16760.58
687.14	16809.73
687.28	16863.56
687.42	16542.91
687.55	16744.19
687.69	16561.63
687.82	16704.40
687.96	16685.68
688.10	16676.32
688.23	16248.00
688.37	16479.71
688.50	16315.87
688.64	16360.34
688.78	16360.34
688.91	16205.87
689.05	15988.20
689.18	15779.89
689.32	15616.05
689.46	15854.79
689.59	15990.54
689.73	15957.77
689.86	15529.45
690.00	15887.56
690.13	15674.57
690.27	15550.52
690.41	15669.89
690.54	15686.27
690.68	15426.47
690.81	15665.21
690.95	15513.07
691.08	15468.60
691.22	15131.56
691.35	15026.24
691.49	15021.56
691.62	15279.02
691.76	15178.37
691.89	15021.56
692.03	14846.02
692.16	14700.90
692.30	14829.63
692.43	14604.94
692.57	14420.04
692.70	14738.35
692.84	14520.68
692.97	14471.53
693.11	14588.56
693.24	14647.07
693.38	14228.12
693.51	14162.58
693.65	14223.44
693.78	14162.58
693.92	14326.42
694.05	14366.21
694.19	14260.88
694.32	14136.84
694.45	13724.90
694.59	13816.18
694.72	13998.74
694.86	13708.52
694.99	13687.45
695.13	13654.69
695.26	13572.77
695.39	13429.99
695.53	13680.43
695.66	13549.36
695.80	13575.11
695.93	13504.89
696.07	13493.19
696.20	13249.77
696.33	13221.69
696.47	13291.90
696.60	12877.63
696.73	13294.24
696.87	12901.03
697.00	12830.82
697.14	12685.70
697.27	12585.06
697.40	12753.58
697.54	12514.84
697.67	12465.69
697.80	12709.11
697.94	12374.41
698.07	12601.44
698.21	12411.86
698.34	12306.54
698.47	12224.62
698.61	12287.81
698.74	12386.12
698.87	12439.95
699.01	12180.15
699.14	12056.10
699.27	12233.98
699.40	12355.69
699.54	11896.94
699.67	11908.65
699.80	11740.13
699.94	11791.62
700.07	11864.18
700.20	11445.22
700.34	11726.08
700.47	11698.00
700.60	11618.42
700.73	11672.25
700.87	11618.42
701.00	11480.33
701.13	11477.99
701.26	11506.07
701.40	11335.21
701.53	11442.88
701.66	11356.28
701.79	11393.73
701.93	11119.89
702.06	11122.23
702.19	10773.49
702.32	10984.13
702.46	10979.45
702.59	10839.02
702.72	10810.93
702.85	10995.84
702.99	10738.38
703.12	10747.74
703.25	10459.85
703.38	10422.41
703.51	10553.48
703.65	10597.95
703.78	10513.69
703.91	10637.73
704.04	10506.66
704.17	10621.35
704.31	10174.31
704.44	10127.50
704.57	10141.54
704.70	10127.50
704.83	10017.49
704.96	10022.17
705.10	9996.43
705.23	10171.97
>>>>>End Processed Spectral Data<<<<<
