SpectraSuite Data File
++++++++++++++++++++++++++++++++++++
Date: Fri Oct 18 13:57:56 GMT-05:00 2013
User: bianchi
Dark Spectrum Present: No
Reference Spectrum Present: No
Number of Sampled Component Spectra: 1
Spectrometers: USB2+H05261
Integration Time (usec): 50000 (USB2+H05261)
Spectra Averaged: 1 (USB2+H05261)
Boxcar Smoothing: 0 (USB2+H05261)
Correct for Electrical Dark: No (USB2+H05261)
Strobe/Lamp Enabled: No (USB2+H05261)
Correct for Detector Non-linearity: No (USB2+H05261)
Correct for Stray Light: No (USB2+H05261)
Number of Pixels in Processed Spectrum: 2048
>>>>>Begin Processed Spectral Data<<<<<
365.73	21.06
365.92	21.06
366.12	21.06
366.32	0.00
366.52	0.00
366.72	0.00
366.91	0.00
367.11	0.00
367.31	0.00
367.51	0.00
367.70	0.00
367.90	0.00
368.10	0.00
368.30	0.00
368.49	0.00
368.69	0.00
368.89	0.00
369.09	0.00
369.28	0.00
369.48	0.00
369.68	0.00
369.87	0.00
370.07	0.00
370.27	0.00
370.47	0.00
370.66	93.62
370.86	93.62
371.06	110.01
371.25	124.05
371.45	91.28
371.65	84.26
371.84	110.01
372.04	161.50
372.24	191.92
372.44	189.58
372.63	243.42
372.83	255.12
373.03	187.24
373.22	215.33
373.42	257.46
373.62	215.33
373.81	189.58
374.01	236.39
374.21	147.45
374.40	243.42
374.60	215.33
374.79	222.35
374.99	252.78
375.19	259.80
375.38	210.65
375.58	266.82
375.78	266.82
375.97	262.14
376.17	306.61
376.37	285.55
376.56	269.16
376.76	301.93
376.95	292.57
377.15	304.27
377.35	358.10
377.54	262.14
377.74	334.70
377.93	212.99
378.13	257.46
378.33	212.99
378.52	294.91
378.72	280.86
378.91	322.99
379.11	234.05
379.31	280.86
379.50	262.14
379.70	367.46
379.89	346.40
380.09	280.86
380.28	381.51
380.48	346.40
380.68	306.61
380.87	285.55
381.07	365.12
381.26	264.48
381.46	327.68
381.65	351.08
381.85	353.42
382.04	322.99
382.24	308.95
382.43	390.87
382.63	393.21
382.83	269.16
383.02	334.70
383.22	454.06
383.41	346.40
383.61	355.76
383.80	402.57
384.00	374.49
384.19	411.93
384.39	458.74
384.58	348.74
384.78	449.38
384.97	447.04
385.17	330.02
385.36	388.53
385.56	393.21
385.75	379.17
385.95	411.93
386.14	430.66
386.34	402.57
386.53	437.68
386.72	423.64
386.92	381.51
387.11	500.87
387.31	482.15
387.50	454.06
387.70	535.98
387.89	491.51
388.09	402.57
388.28	496.19
388.48	383.85
388.67	437.68
388.86	449.38
389.06	533.64
389.25	463.43
389.45	458.74
389.64	489.17
389.84	475.13
390.03	564.07
390.22	482.15
390.42	514.92
390.61	500.87
390.81	402.57
391.00	444.70
391.19	442.36
391.39	470.45
391.58	472.79
391.78	547.69
391.97	608.54
392.16	500.87
392.36	510.24
392.55	568.75
392.75	491.51
392.94	528.96
393.13	521.94
393.33	594.50
393.52	599.18
393.71	575.77
393.91	601.52
394.10	627.26
394.29	486.83
394.49	634.29
394.68	643.65
394.88	538.32
395.07	667.05
395.26	629.60
395.46	622.58
395.65	674.07
395.84	643.65
396.04	634.29
396.23	631.94
396.42	683.44
396.62	669.39
396.81	695.14
397.00	720.88
397.19	688.12
397.39	634.29
397.58	688.12
397.77	678.76
397.97	681.10
398.16	702.16
398.35	702.16
398.55	746.63
398.74	777.06
398.93	763.01
399.12	720.88
399.32	739.61
399.51	744.29
399.70	814.51
399.90	786.42
400.09	706.84
400.28	851.96
400.47	774.72
400.67	816.85
400.86	809.83
401.05	826.21
401.24	823.87
401.44	767.70
401.63	823.87
401.82	779.40
402.01	767.70
402.21	788.76
402.40	795.78
402.59	849.61
402.78	840.25
402.97	894.08
403.17	950.26
403.36	866.00
403.55	854.30
403.74	905.79
403.93	964.30
404.13	898.77
404.32	1001.75
404.51	840.25
404.70	912.81
404.89	1057.92
405.09	976.00
405.28	947.92
405.47	954.94
405.66	999.41
405.85	1015.79
406.05	961.96
406.24	1053.24
406.43	954.94
406.62	1088.35
406.81	1093.03
407.00	868.34
407.20	1053.24
407.39	980.68
407.58	1027.50
407.77	1102.39
407.96	1137.50
408.15	1029.84
408.34	1151.54
408.54	1212.40
408.73	1102.39
408.92	1125.80
409.11	1263.89
409.30	1228.78
409.49	1224.10
409.68	1188.99
409.87	1224.10
410.07	1184.31
410.26	1214.74
410.45	1238.14
410.64	1231.12
410.83	1198.35
411.02	1221.76
411.21	1224.10
411.40	1315.38
411.59	1338.79
411.78	1317.72
411.98	1343.47
412.17	1252.19
412.36	1399.64
412.55	1511.99
412.74	1444.11
412.93	1387.94
413.12	1282.61
413.31	1437.09
413.50	1441.77
413.69	1502.62
413.88	1575.18
414.07	1348.15
414.26	1458.15
414.45	1479.22
414.64	1500.28
414.83	1586.88
415.02	1561.14
415.22	1624.33
415.41	1596.25
415.60	1490.92
415.79	1537.73
415.98	1577.52
416.17	1696.89
416.36	1633.69
416.55	1783.49
416.74	1624.33
416.93	1650.08
417.12	1717.95
417.31	1767.10
417.50	1717.95
417.69	1743.70
417.88	1739.02
418.07	1816.26
418.26	1856.04
418.45	1755.40
418.64	1912.22
418.83	1755.40
419.02	1874.77
419.21	1888.81
419.39	1984.77
419.58	1827.96
419.77	1858.39
419.96	1860.73
420.15	1905.20
420.34	1874.77
420.53	1930.94
420.72	1930.94
420.91	1919.24
421.10	2059.67
421.29	2059.67
421.48	1898.17
421.67	2043.29
421.86	2012.86
422.05	2001.16
422.24	2024.56
422.43	2040.95
422.61	2160.31
422.80	2104.14
422.99	2132.23
423.18	2078.40
423.37	2104.14
423.56	2160.31
423.75	2092.44
423.94	2054.99
424.13	1823.28
424.32	1820.94
424.50	1956.69
424.69	2090.10
424.88	2190.74
425.07	2085.42
425.26	2129.89
425.45	2064.35
425.64	2022.22
425.83	2031.58
426.01	2125.21
426.20	2186.06
426.39	2218.83
426.58	2169.68
426.77	2169.68
426.96	2143.93
427.15	2167.34
427.33	2146.27
427.52	2176.70
427.71	2272.66
427.90	2115.84
428.09	2296.07
428.28	2155.63
428.46	2209.47
428.65	2078.40
428.84	2272.66
429.03	2179.04
429.22	2221.17
429.40	2326.49
429.59	2392.03
429.78	2160.31
429.97	2251.60
430.16	2354.58
430.34	2200.10
430.53	2382.67
430.72	2392.03
430.91	2422.45
431.10	2312.45
431.28	2410.75
431.47	2539.48
431.66	2441.18
431.85	2396.71
432.03	2487.99
432.22	2485.65
432.41	2448.20
432.60	2534.80
432.79	2537.14
432.97	2513.74
433.16	2567.57
433.35	2633.10
433.54	2607.36
433.72	2637.78
433.91	2523.10
434.10	2677.57
434.28	2670.55
434.47	2689.28
434.66	2647.15
434.85	2686.94
435.03	2710.34
435.22	2700.98
435.41	2761.83
435.59	2717.36
435.78	2747.79
435.97	2633.10
436.16	2801.62
436.34	2698.64
436.53	2766.51
436.72	2733.75
436.90	2803.96
437.09	2789.92
437.28	2724.38
437.46	2834.39
437.65	2801.62
437.84	2792.26
438.02	2909.29
438.21	2796.94
438.40	2843.75
438.58	2953.76
438.77	3042.70
438.96	2799.28
439.14	2988.86
439.33	2984.18
439.52	3068.44
439.70	3016.95
439.89	3042.70
440.08	3110.57
440.26	3199.51
440.45	3150.36
440.63	3126.96
440.82	3218.24
441.01	3164.40
441.19	3178.45
441.38	3248.66
441.57	3281.43
441.75	3471.01
441.94	3393.78
442.12	3316.54
442.31	3520.17
442.50	3428.88
442.68	3344.63
442.87	3393.78
443.05	3370.37
443.24	3459.31
443.43	3524.85
443.61	3412.50
443.80	3548.25
443.98	3471.01
444.17	3414.84
444.35	3574.00
444.54	3358.67
444.73	3618.47
444.91	3531.87
445.10	3487.40
445.28	3611.45
445.47	3442.93
445.65	3651.24
445.84	3658.26
446.02	3653.58
446.21	3543.57
446.39	3473.36
446.58	3604.42
446.77	3517.83
446.95	3478.04
447.14	3550.59
447.32	3520.17
447.51	3639.53
447.69	3548.25
447.88	3676.98
448.06	3578.68
448.25	3630.17
448.43	3613.79
448.62	3646.55
448.80	3618.47
448.99	3824.44
449.17	3786.99
449.36	3651.24
449.54	3719.11
449.73	3742.52
449.91	3803.37
450.10	3896.99
450.28	3808.05
450.46	3817.41
450.65	3679.32
450.83	3981.25
451.02	4030.40
451.20	3847.84
451.39	3826.78
451.57	3934.44
451.76	3845.50
451.94	3864.22
452.13	3784.65
452.31	4009.34
452.49	3974.23
452.68	3948.48
452.86	3932.10
453.05	4046.79
453.23	4095.94
453.42	3978.91
453.60	3964.87
453.78	4107.64
453.97	3988.27
454.15	4138.07
454.34	4109.98
454.52	4128.70
454.70	3941.46
454.89	4257.43
455.07	4049.13
455.26	4194.24
455.44	4269.14
455.62	4234.03
455.81	4121.68
455.99	4320.63
456.17	4315.95
456.36	4168.49
456.54	4241.05
456.73	4404.89
456.91	4458.72
457.09	4437.66
457.28	4528.94
457.46	4407.23
457.64	4542.98
457.83	4320.63
458.01	4407.23
458.19	4578.09
458.38	4409.57
458.56	4587.45
458.74	4566.39
458.93	4552.34
459.11	4678.73
459.29	4652.98
459.48	4606.17
459.66	4503.19
459.84	4620.22
460.03	4709.16
460.21	4706.82
460.39	4592.13
460.57	4652.98
460.76	4688.09
460.94	4744.27
461.12	4730.22
461.31	4725.54
461.49	4784.06
461.67	4674.05
461.85	4774.69
462.04	4933.85
462.22	5233.44
462.40	4777.03
462.59	4734.90
462.77	4891.72
462.95	4884.70
463.13	4938.53
463.32	4931.51
463.50	4887.04
463.68	4924.49
463.86	4957.25
464.05	5020.45
464.23	5050.88
464.41	5083.64
464.59	4880.02
464.78	5252.16
464.96	5041.51
465.14	5043.85
465.32	5048.54
465.50	5132.79
465.69	5231.10
465.87	5078.96
466.05	5188.97
466.23	5116.41
466.41	5205.35
466.60	5266.21
466.78	5118.75
466.96	5139.82
467.14	5200.67
467.32	5203.01
467.51	5331.74
467.69	5177.26
467.87	5352.81
468.05	5336.42
468.23	5167.90
468.41	5289.61
468.60	5320.04
468.78	5284.93
468.96	5542.39
469.14	5430.04
469.32	5441.75
469.50	5320.04
469.69	5600.90
469.87	5551.75
470.05	5514.30
470.23	5619.63
470.41	5593.88
470.59	5612.60
470.77	5614.95
470.95	5661.76
471.14	5593.88
471.32	5671.12
471.50	5818.57
471.68	5778.78
471.86	5818.57
472.04	5844.32
472.22	5738.99
472.40	5612.60
472.58	5930.92
472.77	5914.53
472.95	5949.64
473.13	6296.04
473.31	6015.18
473.49	5966.03
473.67	5951.98
473.85	5982.41
474.03	6188.38
474.21	6073.69
474.39	6258.59
474.57	6298.38
474.75	6459.88
474.93	6340.51
475.12	6239.87
475.30	6469.24
475.48	6200.08
475.66	6487.96
475.84	6506.69
476.02	6466.90
476.20	6532.44
476.38	6509.03
476.56	6890.54
476.74	6825.00
476.92	6696.27
477.10	6829.68
477.28	6902.24
477.46	6803.94
477.64	6815.64
477.82	7037.99
478.00	7295.45
478.18	7365.67
478.36	7096.50
478.54	7187.79
478.72	7176.08
478.90	7283.75
479.08	7325.88
479.26	7220.55
479.44	7421.84
479.62	7606.74
479.80	7651.21
479.98	7672.28
480.16	7826.75
480.34	7772.92
480.52	7868.88
480.70	7838.45
480.88	8039.74
481.06	8042.08
481.24	7983.57
481.41	8025.70
481.59	8154.43
481.77	8248.05
481.95	8058.46
482.13	8400.18
482.31	8325.29
482.49	8402.52
482.67	8507.85
482.85	8657.64
483.03	8767.65
483.21	8561.68
483.39	8865.95
483.57	8793.39
483.74	8774.67
483.92	8980.64
484.10	8966.59
484.28	8992.34
484.46	9404.27
484.64	9504.92
484.82	9235.75
485.00	9312.99
485.18	9900.47
485.35	9987.07
485.53	9776.42
485.71	9792.80
485.89	9893.44
486.07	9783.44
486.25	9937.91
486.43	10012.81
486.61	9984.73
486.78	10132.18
486.96	10249.21
487.14	10513.69
487.32	10429.43
487.50	10501.98
487.68	10569.86
487.85	10525.39
488.03	10771.15
488.21	10785.19
488.39	10916.26
488.57	10986.47
488.75	11091.80
488.92	11126.91
489.10	11449.90
489.28	11314.15
489.46	11360.96
489.64	11269.68
489.81	11541.18
489.99	11789.28
490.17	11562.25
490.35	12067.80
490.53	11733.11
490.70	11908.65
490.88	11756.51
491.06	12297.17
491.24	12088.87
491.41	12046.74
491.59	12285.47
491.77	12325.26
491.95	12659.96
492.13	12664.64
492.30	12676.34
492.48	12718.47
492.66	12795.71
492.84	12645.91
493.01	12931.46
493.19	12966.57
493.37	13139.77
493.54	13055.51
493.72	13509.57
493.90	13202.96
494.08	13706.18
494.25	13738.94
494.43	13568.09
494.61	13654.69
494.79	13722.56
494.96	13792.78
495.14	13799.80
495.32	14092.37
495.49	13895.76
495.67	14260.88
495.85	14281.95
496.02	14097.05
496.20	14361.53
496.38	14401.32
496.55	14171.94
496.73	14693.88
496.91	14431.74
497.09	14998.15
497.26	14808.57
497.44	14693.88
497.62	14932.62
497.79	15103.48
497.97	15035.60
498.14	15227.53
498.32	15276.68
498.50	15522.43
498.67	15454.56
498.85	15288.38
499.03	15590.31
499.20	15257.95
499.38	15545.84
499.56	15723.72
499.73	15487.32
499.91	15836.06
500.08	15861.81
500.26	15714.36
500.44	15887.56
500.61	15978.84
500.79	16095.86
500.97	16217.57
501.14	16444.60
501.32	16341.62
501.49	16659.93
501.67	16379.07
501.84	16498.44
502.02	16365.03
502.20	16283.11
502.37	16662.27
502.55	16292.47
502.72	16486.73
502.90	16669.30
503.07	16739.51
503.25	17078.89
503.43	16971.22
503.60	17081.23
503.78	17106.98
503.95	17053.14
504.13	17191.23
504.30	17231.02
504.48	17207.62
504.65	17238.05
504.83	17572.74
505.01	17355.07
505.18	17514.23
505.36	17661.68
505.53	17671.04
505.71	17664.02
505.88	17790.41
506.06	17631.26
506.23	18059.57
506.41	17839.56
506.58	18003.40
506.76	18099.36
506.93	17949.57
507.11	17736.58
507.28	18106.38
507.46	18064.25
507.63	18349.80
507.81	18398.95
507.98	18085.32
508.16	18111.07
508.33	18204.69
508.50	18373.21
508.68	18445.76
508.85	19089.41
509.03	18565.13
509.20	18918.55
509.38	19005.15
509.55	19047.28
509.73	18920.89
509.90	19152.60
510.08	18796.84
510.25	18810.89
510.42	19047.28
510.60	19035.58
510.77	19295.38
510.95	19461.55
511.12	19192.39
511.30	19562.20
511.47	19426.45
511.64	19424.11
511.82	19400.70
511.99	19587.94
512.17	19824.34
512.34	19922.64
512.51	19770.51
512.69	19995.20
512.86	19704.97
513.04	19985.83
513.21	20184.78
513.38	19997.54
513.56	20030.30
513.73	20236.27
513.90	20114.56
514.08	20004.56
514.25	20203.50
514.43	20489.05
514.60	20484.37
514.77	20573.31
514.95	20648.21
515.12	20184.78
515.29	20329.89
515.47	20615.44
515.64	20519.48
515.81	20430.54
515.99	20772.25
516.16	20919.71
516.33	20840.13
516.51	21039.08
516.68	20891.62
516.85	20828.43
517.03	20917.37
517.20	21249.72
517.37	21191.21
517.54	21439.31
517.72	21284.83
517.89	21329.30
518.06	21078.86
518.24	21270.79
518.41	21369.09
518.58	21348.03
518.75	21523.57
518.93	21553.99
519.10	21708.47
519.27	21729.53
519.45	21813.79
519.62	21460.37
519.79	21806.77
519.96	22057.21
520.14	21914.44
520.31	21991.67
520.48	22031.46
520.65	22052.53
520.83	22068.91
521.00	22134.45
521.17	22209.34
521.34	22104.02
521.52	22204.66
521.69	22267.86
521.86	22424.67
522.03	22492.55
522.20	22389.56
522.38	22497.23
522.55	22534.68
522.72	22567.45
522.89	22637.66
523.07	22623.62
523.24	22855.33
523.41	22824.90
523.58	22541.70
523.75	23030.87
523.92	22785.12
524.10	22728.94
524.27	22827.24
524.44	23009.81
524.61	23323.44
524.78	23222.80
524.96	23311.74
525.13	23023.85
525.30	23515.36
525.47	23080.02
525.64	23159.60
525.81	23470.89
525.98	23548.13
526.16	23363.23
526.33	23482.59
526.50	23784.52
526.67	23321.10
526.84	23421.74
527.01	23733.03
527.18	23903.89
527.36	23894.53
527.53	23676.86
527.70	24243.27
527.87	24308.80
528.04	23831.33
528.21	23999.85
528.38	23999.85
528.55	24133.26
528.72	24250.29
528.89	24006.87
529.07	24297.10
529.24	24219.86
529.41	24617.75
529.58	23943.68
529.75	24353.27
529.92	24140.29
530.09	24243.27
530.26	24409.45
530.43	24343.91
530.60	24219.86
530.77	24393.06
530.94	24683.29
531.11	24510.09
531.28	24594.35
531.46	24444.56
531.63	24484.34
531.80	24706.70
531.97	25067.14
532.14	24620.10
532.31	24472.64
532.48	25029.69
532.65	25362.04
532.82	24882.24
532.99	24692.65
533.16	24762.87
533.33	25223.95
533.50	25502.48
533.67	25560.99
533.84	25013.31
534.01	24826.06
534.18	25195.87
534.35	25441.62
534.52	25383.11
534.69	25628.87
534.86	25476.73
535.03	25373.75
535.20	25546.95
535.37	25638.23
535.54	25649.93
535.71	25394.81
535.88	25874.62
536.05	25378.43
536.22	25621.84
536.38	26066.55
536.55	25975.27
536.72	25582.06
536.89	25930.80
537.06	25865.26
537.23	25926.11
537.40	25582.06
537.57	25998.67
537.74	25839.51
537.91	26216.34
538.08	26361.45
538.25	26054.84
538.42	25804.41
538.59	26080.59
538.75	25874.62
538.92	26026.76
539.09	26094.63
539.26	26316.98
539.43	26272.51
539.60	26492.52
539.77	26377.84
539.94	26593.17
540.11	26473.80
540.28	26490.18
540.44	26455.08
540.61	26625.93
540.78	26373.16
540.95	26513.59
541.12	26462.10
541.29	26267.83
541.46	26838.92
541.62	26661.04
541.79	26604.87
541.96	26487.84
542.13	26480.82
542.30	26705.51
542.47	26759.34
542.63	26820.20
542.80	27154.90
542.97	27377.25
543.14	27426.40
543.31	27049.57
543.48	27236.81
543.64	27246.18
543.81	27660.45
543.98	27250.86
544.15	27304.69
544.32	27630.02
544.48	27784.50
544.65	27236.81
544.82	27599.60
544.99	26822.54
545.16	27292.99
545.32	27243.84
545.49	27744.71
545.66	27695.56
545.83	27828.97
546.00	27999.83
546.16	27681.52
546.33	27445.12
546.50	27105.74
546.67	27723.65
546.83	27791.52
547.00	27700.24
547.17	27784.50
547.34	27988.13
547.50	28079.41
547.67	28486.66
547.84	27892.16
548.00	27946.00
548.17	28182.39
548.34	27936.63
548.51	28357.93
548.67	28163.67
548.84	28114.52
549.01	27988.13
549.18	27786.84
549.34	28170.69
549.51	28411.76
549.68	27934.29
549.84	28381.34
550.01	28355.59
550.18	28016.21
550.34	28149.62
550.51	28437.51
550.68	28868.17
550.84	28247.93
551.01	28676.24
551.18	28379.00
551.34	28407.08
551.51	28379.00
551.68	28589.64
551.84	28652.84
552.01	28458.57
552.18	28594.32
552.34	28734.76
552.51	28671.56
552.68	28383.68
552.84	28631.77
553.01	28716.03
553.18	28854.12
553.34	29022.64
553.51	28690.29
553.67	29074.13
553.84	28980.51
554.01	29034.35
554.17	28870.51
554.34	28891.57
554.51	29085.84
554.67	29261.38
554.84	28676.24
555.00	29132.65
555.17	29266.06
555.33	28886.89
555.50	28961.79
555.67	29186.48
555.83	29060.09
556.00	29174.78
556.16	29177.12
556.33	29333.93
556.50	29296.49
556.66	29504.79
556.83	29488.41
556.99	29605.44
557.16	29677.99
557.32	29184.14
557.49	29443.94
557.65	29060.09
557.82	29233.29
557.98	29266.06
558.15	29542.24
558.32	29563.31
558.48	29687.36
558.65	29809.06
558.81	29560.97
558.98	29795.02
559.14	29474.37
559.31	29773.95
559.47	29504.79
559.64	29617.14
559.80	29432.24
559.97	29851.19
560.13	29818.42
560.30	29603.10
560.46	29834.81
560.63	29663.95
560.79	30302.92
560.96	30103.97
561.12	30108.65
561.29	29715.44
561.45	29954.18
561.61	29556.28
561.78	29954.18
561.94	30155.46
562.11	29827.79
562.27	30010.35
562.44	30223.34
562.60	29958.86
562.77	29912.05
562.93	29865.24
563.10	29986.94
563.26	30094.61
563.42	30101.63
563.59	29893.32
563.75	29727.14
563.92	29956.52
564.08	29989.28
564.24	30022.05
564.41	29603.10
564.57	29975.24
564.74	29865.24
564.90	30176.53
565.07	30792.09
565.23	30309.94
565.39	30314.62
565.56	30438.67
565.72	30015.03
565.88	30328.66
566.05	29914.39
566.21	29841.83
566.38	30368.45
566.54	30661.02
566.70	30824.86
566.87	30504.20
567.03	30433.99
567.19	30628.25
567.36	30871.67
567.52	30293.55
567.68	30497.18
567.85	30284.19
568.01	30686.76
568.17	30483.14
568.34	30323.98
568.50	30565.06
568.66	30604.84
568.83	30625.91
568.99	30218.66
569.15	29993.97
569.32	30199.93
569.48	30628.25
569.64	30747.62
569.81	30265.47
569.97	30600.16
570.13	30855.28
570.30	30342.70
570.46	30761.66
570.62	30473.78
570.78	30621.23
570.95	30352.07
571.11	30190.57
571.27	30382.49
571.43	30401.22
571.60	30525.27
571.76	30738.26
571.92	30548.67
572.09	30822.51
572.25	30876.35
572.41	30635.27
572.57	30569.74
572.74	30745.28
572.90	30429.30
573.06	30464.41
573.22	30686.76
573.38	30436.33
573.55	30742.94
573.71	31105.72
573.87	30714.85
574.03	30771.02
574.20	30768.68
574.36	30263.13
574.52	30838.90
574.68	30658.68
574.84	30934.86
575.01	30801.45
575.17	30686.76
575.33	30974.65
575.49	30654.00
575.65	30822.51
575.82	30913.80
575.98	30955.93
576.14	30953.58
576.30	30462.07
576.46	30518.25
576.62	30780.39
576.79	30874.01
576.95	30710.17
577.11	31035.50
577.27	30583.78
577.43	30852.94
577.59	30801.45
577.75	30976.99
577.92	30925.50
578.08	30607.19
578.24	30508.88
578.40	30792.09
578.56	30998.06
578.72	30962.95
578.88	31098.70
579.04	31112.74
579.21	30728.89
579.37	31075.29
579.53	30991.03
579.69	30745.28
579.85	30691.44
580.01	30998.06
580.17	30497.18
580.33	30747.62
580.49	31407.65
580.65	30810.81
580.82	31314.03
580.98	31040.18
581.14	30979.33
581.30	31250.83
581.46	30925.50
581.62	30677.40
581.78	30691.44
581.94	31051.89
582.10	30909.11
582.26	31143.17
582.42	30810.81
582.58	30852.94
582.74	30904.43
582.90	30895.07
583.06	31089.34
583.22	30691.44
583.38	30927.84
583.54	31030.82
583.70	31068.27
583.86	30916.14
584.02	31157.21
584.18	31147.85
584.34	31545.74
584.50	31527.02
584.66	31012.10
584.82	30820.17
584.98	30969.97
585.14	30834.22
585.30	30838.90
585.46	30728.89
585.62	30934.86
585.78	31026.14
585.94	30925.50
586.10	31370.20
586.26	31309.35
586.42	31079.97
586.58	30972.31
586.74	31161.89
586.90	31030.82
587.06	31009.76
587.22	31119.76
587.38	30817.83
587.54	31487.23
587.70	31435.74
587.86	31648.72
588.02	31412.33
588.18	31777.45
588.34	31442.76
588.49	31164.23
588.65	31143.17
588.81	31314.03
588.97	31192.32
589.13	31077.63
589.29	31419.35
589.45	31618.30
589.61	31405.31
589.77	31669.79
589.93	31433.39
590.08	31599.57
590.24	31367.86
590.40	31426.37
590.56	31550.42
590.72	31339.77
590.88	30986.35
591.04	31702.56
591.20	31772.77
591.35	31292.96
591.51	31997.46
591.67	31641.70
591.83	31782.13
591.99	31676.81
592.15	31087.00
592.31	31405.31
592.46	31412.33
592.62	31182.96
592.78	31108.06
592.94	31166.57
593.10	31721.28
593.26	31477.86
593.41	31524.68
593.57	31496.59
593.73	31545.74
593.89	31814.90
594.05	31498.93
594.20	31264.88
594.36	31644.04
594.52	31452.12
594.68	31283.60
594.84	31152.53
594.99	31599.57
595.15	31541.06
595.31	31740.00
595.47	31978.74
595.62	31789.16
595.78	31091.68
595.94	31384.24
596.10	31590.21
596.25	31690.85
596.41	31601.91
596.57	31515.31
596.73	31374.88
596.88	31281.26
597.04	31716.60
597.20	31398.29
597.36	32034.91
597.51	31747.03
597.67	31407.65
597.83	31548.08
597.99	31859.37
598.14	31552.76
598.30	31494.25
598.46	31971.72
598.61	31793.84
598.77	31391.26
598.93	32107.47
599.09	32074.70
599.24	32292.37
599.40	31990.44
599.56	31995.12
599.71	31957.67
599.87	31711.92
600.03	31379.56
600.18	31468.50
600.34	31768.09
600.50	31761.07
600.65	31541.06
600.81	31765.75
600.97	31725.96
601.12	32055.98
601.28	32105.13
601.44	31908.52
601.59	32004.49
601.75	31639.36
601.91	31707.24
602.06	31814.90
602.22	31899.16
602.37	31772.77
602.53	31594.89
602.69	31749.37
602.84	32086.40
603.00	32016.19
603.16	31714.26
603.31	31772.77
603.47	31910.86
603.62	31997.46
603.78	31814.90
603.94	32135.56
604.09	31718.94
604.25	31812.56
604.40	31950.65
604.56	31674.47
604.71	31826.60
604.87	31721.28
605.03	31896.82
605.18	31960.02
605.34	32044.27
605.49	31985.76
605.65	31615.96
605.80	31543.40
605.96	31400.63
606.12	31370.20
606.27	31594.89
606.43	31412.33
606.58	31852.35
606.74	31772.77
606.89	31941.29
607.05	31765.75
607.20	31613.62
607.36	31676.81
607.51	31409.99
607.67	31651.06
607.82	31131.47
607.98	31690.85
608.13	31765.75
608.29	31440.42
608.44	31653.40
608.60	31653.40
608.75	31789.16
608.91	31728.30
609.06	31438.08
609.22	31948.31
609.37	31091.68
609.53	30806.13
609.68	31519.99
609.84	31353.82
609.99	31428.71
610.15	31225.09
610.30	31433.39
610.46	31253.17
610.61	31594.89
610.76	31613.62
610.92	31744.69
611.07	31571.49
611.23	31159.55
611.38	31168.91
611.54	31028.48
611.69	31295.30
611.84	31335.09
612.00	30998.06
612.15	31124.44
612.31	31302.32
612.46	31096.36
612.62	31409.99
612.77	31161.89
612.92	31505.95
613.08	31082.31
613.23	31548.08
613.39	31489.57
613.54	30967.63
613.69	31065.93
613.85	30780.39
614.00	31098.70
614.15	31477.86
614.31	31115.08
614.46	31246.15
614.62	31360.84
614.77	30909.11
614.92	31234.45
615.08	30787.41
615.23	30965.29
615.38	30787.41
615.54	30932.52
615.69	30684.42
615.84	31101.04
616.00	31002.74
616.15	30782.73
616.30	30974.65
616.46	30799.11
616.61	30932.52
616.76	31189.98
616.92	31075.29
617.07	30749.96
617.22	30955.93
617.37	30749.96
617.53	30761.66
617.68	30892.73
617.83	30703.15
617.99	30827.20
618.14	30976.99
618.29	31072.95
618.45	30820.17
618.60	30768.68
618.75	30602.50
618.90	30752.30
619.06	31152.53
619.21	30291.21
619.36	30780.39
619.51	30249.08
619.67	30665.70
619.82	30511.22
619.97	30459.73
620.12	30520.59
620.28	30457.39
620.43	30611.87
620.58	30494.84
620.73	30682.08
620.89	30469.09
621.04	30602.50
621.19	30574.42
621.34	30560.37
621.49	29989.28
621.65	30532.29
621.80	30480.80
621.95	30171.85
622.10	30485.48
622.25	30354.41
622.41	29928.43
622.56	30422.28
622.71	30239.72
622.86	30693.79
623.01	30384.83
623.16	30288.87
623.32	30274.83
623.47	30066.52
623.62	30384.83
623.77	30068.86
623.92	29888.64
624.07	30216.32
624.23	30426.96
624.38	30384.83
624.53	29687.36
624.68	30361.43
624.83	30260.79
624.98	30286.53
625.13	30108.65
625.29	29912.05
625.44	29972.90
625.59	29982.26
625.74	30043.12
625.89	30043.12
626.04	29675.65
626.19	29631.18
626.34	29776.30
626.49	29511.81
626.65	29907.37
626.80	30022.05
626.95	29898.00
627.10	29841.83
627.25	29797.36
627.40	29661.61
627.55	29680.33
627.70	29708.42
627.85	29479.05
628.00	29673.31
628.15	29755.23
628.30	29572.67
628.45	29771.61
628.60	29523.52
628.76	29507.13
628.91	29645.23
629.06	29851.19
629.21	29916.73
629.36	29696.72
629.51	29638.20
629.66	29394.79
629.81	29467.34
629.96	29338.62
630.11	29514.16
630.26	29174.78
630.41	29261.38
630.56	29310.53
630.71	29371.38
630.86	29212.23
631.01	29270.74
631.16	29521.18
631.31	29521.18
631.46	29092.86
631.61	29347.98
631.76	29249.67
631.91	29198.18
632.06	29266.06
632.21	28704.33
632.36	29006.26
632.51	28992.22
632.66	29160.73
632.81	29174.78
632.96	29308.19
633.10	28786.25
633.25	28917.32
633.40	29336.27
633.55	28945.41
633.70	28699.65
633.85	28809.65
634.00	28914.98
634.15	28907.96
634.30	28624.75
634.45	28922.00
634.60	28781.57
634.75	28886.89
634.90	28900.94
635.05	28671.56
635.19	29008.60
635.34	29008.60
635.49	29120.95
635.64	28954.77
635.79	28767.52
635.94	28711.35
636.09	28760.50
636.24	28751.14
636.39	28273.67
636.53	28631.77
636.68	28259.63
636.83	28477.30
636.98	28547.51
637.13	28673.90
637.28	28484.32
637.43	28797.95
637.57	28912.64
637.72	28409.42
637.87	28465.60
638.02	28512.41
638.17	28416.44
638.32	28683.27
638.46	28205.80
638.61	27976.42
638.76	28287.71
638.91	28189.41
639.06	28414.10
639.20	28278.35
639.35	28624.75
639.50	28659.86
639.65	28194.09
639.80	28428.15
639.94	28404.74
640.09	28067.70
640.24	28332.18
640.39	28151.96
640.54	28304.10
640.68	28182.39
640.83	28009.19
640.98	27960.04
641.13	27880.46
641.27	28467.94
641.42	28236.22
641.57	28266.65
641.72	28290.06
641.86	27953.02
642.01	27803.22
642.16	27751.73
642.31	27821.95
642.45	27735.35
642.60	27798.54
642.75	27917.91
642.90	28004.51
643.04	27543.42
643.19	27807.90
643.34	27688.54
643.48	27798.54
643.63	28027.92
643.78	27601.94
643.93	28016.21
644.07	28098.13
644.22	28046.64
644.37	27669.81
644.51	27630.02
644.66	27417.04
644.81	27845.35
644.95	27695.56
645.10	27700.24
645.25	27559.81
645.39	27859.40
645.54	27782.16
645.69	27517.68
645.83	27475.55
645.98	28088.77
646.13	27796.20
646.27	27903.87
646.42	27552.79
646.57	27470.87
646.71	27489.59
646.86	27253.20
647.00	27346.82
647.15	27248.52
647.30	28016.21
647.44	27615.98
647.59	27414.69
647.74	27309.37
647.88	27072.98
648.03	27393.63
648.17	27332.78
648.32	27421.72
648.47	27091.70
648.61	27365.54
648.76	27524.70
648.90	27367.88
649.05	27548.11
649.20	27438.10
649.34	26850.63
649.49	27173.62
649.63	27302.35
649.78	26878.71
649.92	27019.14
650.07	27154.90
650.21	27218.09
650.36	27080.00
650.51	26916.16
650.65	27016.80
650.80	27143.19
650.94	26988.72
651.09	26977.01
651.23	26984.04
651.38	27157.24
651.52	26579.12
651.67	26911.48
651.81	26684.45
651.96	26941.91
652.10	26778.07
652.25	27009.78
652.39	26831.90
652.54	27009.78
652.68	26590.83
652.83	27049.57
652.97	27220.43
653.12	26644.66
653.26	26773.39
653.41	27002.76
653.55	26742.96
653.70	26815.52
653.84	26836.58
653.99	27108.08
654.13	26618.91
654.27	26462.10
654.42	26434.01
654.56	26834.24
654.71	26806.16
654.85	26672.74
655.00	26712.53
655.14	26632.96
655.29	26597.85
655.43	26869.35
655.57	26555.72
655.72	26513.59
655.86	26340.39
656.01	26380.18
656.15	26211.66
656.30	26174.21
656.44	26305.28
656.58	26136.76
656.73	26478.48
656.87	26370.82
657.01	26302.94
657.16	26431.67
657.30	26670.40
657.45	26405.92
657.59	26338.05
657.73	26162.51
657.88	26029.10
658.02	25717.81
658.16	26169.53
658.31	26017.40
658.45	26043.14
658.60	26001.01
658.74	26015.05
658.88	25696.74
659.03	26115.70
659.17	25818.45
659.31	25710.78
659.46	25977.61
659.60	25937.82
659.74	26103.99
659.89	26164.85
660.03	25535.24
660.17	25956.54
660.32	25458.01
660.46	25591.42
660.60	25668.66
660.74	25544.61
660.89	25699.08
661.03	25458.01
661.17	25556.31
661.32	25638.23
661.46	25528.22
661.60	25706.10
661.74	25539.93
661.89	25535.24
662.03	25486.09
662.17	25638.23
662.31	25479.07
662.46	25399.49
662.60	25174.80
662.74	25102.25
662.88	25130.33
663.03	24748.82
663.17	24634.14
663.31	24624.78
663.45	24631.80
663.60	24924.36
663.74	24772.23
663.88	24858.83
664.02	25284.81
664.17	24968.84
664.31	24587.33
664.45	24877.55
664.59	24994.58
664.73	24865.85
664.88	24290.08
665.02	24685.63
665.16	24519.45
665.30	24479.66
665.44	24421.15
665.59	24084.11
665.73	24341.57
665.87	24367.32
666.01	24713.72
666.15	24318.17
666.29	24308.80
666.44	24404.77
666.58	24168.37
666.72	23955.38
666.86	24086.45
667.00	24290.08
667.14	24322.85
667.28	23800.91
667.43	24091.13
667.57	23805.59
667.71	23821.97
667.85	23690.90
667.99	23927.30
668.13	23931.98
668.27	23601.96
668.41	24081.77
668.56	23817.29
668.70	23866.44
668.84	23922.62
668.98	23711.97
669.12	23814.95
669.26	23871.12
669.40	23435.78
669.54	23405.36
669.68	23428.76
669.82	22970.02
669.96	23498.98
670.10	23243.86
670.25	23431.10
670.39	23370.25
670.53	23234.50
670.67	22993.42
670.81	23087.04
670.95	23197.05
671.09	23536.43
671.23	23321.10
671.37	23143.22
671.51	23168.96
671.65	23124.49
671.79	23318.76
671.93	23061.30
672.07	22991.08
672.21	22785.12
672.35	23005.13
672.49	22728.94
672.63	22361.48
672.77	22754.69
672.91	22815.54
673.05	22427.01
673.19	22644.68
673.33	22487.87
673.47	22508.93
673.61	22600.21
673.75	22424.67
673.89	22572.13
674.03	22263.18
674.17	22328.71
674.31	22333.39
674.45	22047.85
674.59	22249.13
674.73	22097.00
674.87	21986.99
675.01	22359.14
675.15	21898.05
675.29	21788.05
675.43	21884.01
675.56	22190.62
675.70	21731.87
675.84	21715.49
675.98	20964.18
676.12	21696.77
676.26	21820.81
676.40	21619.53
676.54	21516.54
676.68	21029.71
676.82	21259.09
676.96	21336.32
677.10	21039.08
677.23	21216.96
677.37	20776.94
677.51	21198.23
677.65	21001.63
677.79	20882.26
677.93	20933.75
678.07	20980.56
678.21	20645.87
678.34	20774.60
678.48	20657.57
678.62	20898.64
678.76	20592.03
678.90	20367.34
679.04	20467.98
679.18	20381.38
679.31	20465.64
679.45	19950.73
679.59	20175.42
679.73	20030.30
679.87	20093.50
680.00	20264.36
680.14	19983.49
680.28	19896.89
680.42	19833.70
680.56	19735.40
680.70	19723.69
680.83	20093.50
680.97	19960.09
681.11	20016.26
681.25	19499.00
681.39	19452.19
681.52	19499.00
681.66	19513.05
681.80	19463.90
681.94	18995.79
682.07	19267.29
682.21	19201.76
682.35	18572.15
682.49	18967.70
682.62	18719.60
682.76	18883.44
682.90	18981.74
683.04	18820.25
683.17	18909.19
683.31	18686.84
683.45	18867.06
683.59	18616.62
683.72	18738.33
683.86	18604.92
684.00	18752.37
684.13	18396.61
684.27	18312.35
684.41	18031.49
684.55	18019.78
684.68	18087.66
684.82	17769.35
684.96	18015.10
685.09	17867.65
685.23	17694.45
685.37	17687.43
685.50	17823.18
685.64	18082.98
685.78	17804.46
685.91	17839.56
686.05	17923.82
686.19	17586.79
686.32	17748.28
686.46	17240.39
686.60	17509.55
686.73	17104.64
686.87	17200.60
687.01	17193.58
687.14	17345.71
687.28	17109.32
687.42	17032.08
687.55	16891.65
687.69	16830.79
687.82	16940.80
687.96	16608.44
688.10	16741.85
688.23	16919.73
688.37	16617.80
688.50	17095.27
688.64	16615.46
688.78	16606.10
688.91	16320.56
689.05	16582.70
689.18	16093.52
689.32	16079.48
689.46	15906.28
689.59	16248.00
689.73	16278.43
689.86	16269.06
690.00	16058.42
690.13	16044.37
690.27	16016.29
690.41	15871.17
690.54	15859.47
690.68	15653.50
690.81	15618.39
690.95	15660.52
691.08	15901.60
691.22	15641.80
691.35	15470.94
691.49	15681.59
691.62	15222.84
691.76	15239.23
691.89	15236.89
692.03	14909.21
692.16	15037.94
692.30	15124.54
692.43	15061.35
692.57	14895.17
692.70	14906.87
692.84	14611.96
692.97	14925.60
693.11	14728.99
693.24	14813.25
693.38	14670.48
693.51	14717.29
693.65	14590.90
693.78	14415.36
693.92	14211.73
694.05	14508.98
694.19	14127.47
694.32	14382.59
694.45	14043.21
694.59	13823.20
694.72	13823.20
694.86	14122.79
694.99	14146.20
695.13	13771.71
695.26	13827.88
695.39	13710.86
695.53	13657.03
695.66	13811.50
695.80	13771.71
695.93	13621.92
696.07	13446.38
696.20	13771.71
696.33	13781.07
696.47	13486.17
696.60	13324.67
696.73	13280.20
696.87	13149.13
697.00	13130.41
697.14	12896.35
697.27	12952.52
697.40	12940.82
697.54	13074.23
697.67	12779.32
697.80	12915.08
697.94	12781.67
698.07	12662.30
698.21	12947.84
698.34	12690.38
698.47	12741.88
698.61	12545.27
698.74	12608.47
698.87	12746.56
699.01	12468.03
699.14	12554.63
699.27	12517.18
699.40	12248.02
699.54	12297.17
699.67	12147.38
699.80	11777.58
699.94	12049.08
700.07	11964.82
700.20	11833.75
700.34	11852.47
700.47	11641.82
700.60	11803.32
700.73	11918.01
700.87	11690.98
701.00	11623.10
701.13	11690.98
701.26	11838.43
701.40	11705.02
701.53	11815.02
701.66	11613.74
701.79	11318.83
701.93	11365.64
702.06	11375.00
702.19	11143.29
702.32	11152.65
702.46	11089.46
702.59	10934.98
702.72	11016.90
702.85	10768.80
702.99	10841.36
703.12	10771.15
703.25	10736.04
703.38	11019.24
703.51	10616.67
703.65	10504.32
703.78	10457.51
703.91	10684.55
704.04	10485.60
704.17	10869.45
704.31	10574.54
704.44	10530.07
704.57	10359.21
704.70	10441.13
704.83	10094.73
704.96	10293.68
705.10	10015.15
705.23	10181.33
>>>>>End Processed Spectral Data<<<<<
