SpectraSuite Data File
++++++++++++++++++++++++++++++++++++
Date: Fri Oct 18 13:58:34 GMT-05:00 2013
User: bianchi
Dark Spectrum Present: No
Reference Spectrum Present: No
Number of Sampled Component Spectra: 1
Spectrometers: USB2+H05261
Integration Time (usec): 50000 (USB2+H05261)
Spectra Averaged: 1 (USB2+H05261)
Boxcar Smoothing: 0 (USB2+H05261)
Correct for Electrical Dark: No (USB2+H05261)
Strobe/Lamp Enabled: No (USB2+H05261)
Correct for Detector Non-linearity: No (USB2+H05261)
Correct for Stray Light: No (USB2+H05261)
Number of Pixels in Processed Spectrum: 2048
>>>>>Begin Processed Spectral Data<<<<<
365.73	0.00
365.92	0.00
366.12	0.00
366.32	0.00
366.52	0.00
366.72	0.00
366.91	0.00
367.11	0.00
367.31	0.00
367.51	0.00
367.70	0.00
367.90	0.00
368.10	0.00
368.30	0.00
368.49	0.00
368.69	0.00
368.89	0.00
369.09	0.00
369.28	0.00
369.48	0.00
369.68	0.00
369.87	0.00
370.07	0.00
370.27	0.00
370.47	0.00
370.66	46.81
370.86	128.73
371.06	145.11
371.25	149.79
371.45	140.43
371.65	124.05
371.84	163.84
372.04	180.22
372.24	205.97
372.44	184.90
372.63	198.95
372.83	222.35
373.03	175.54
373.22	145.11
373.42	224.69
373.62	241.08
373.81	215.33
374.01	208.31
374.21	203.63
374.40	248.10
374.60	234.05
374.79	259.80
374.99	182.56
375.19	250.44
375.38	248.10
375.58	252.78
375.78	227.03
375.97	252.78
376.17	224.69
376.37	243.42
376.56	266.82
376.76	280.86
376.95	173.20
377.15	271.50
377.35	287.89
377.54	264.48
377.74	299.59
377.93	166.18
378.13	294.91
378.33	301.93
378.52	224.69
378.72	294.91
378.91	259.80
379.11	224.69
379.31	332.36
379.50	334.70
379.70	346.40
379.89	257.46
380.09	283.20
380.28	194.26
380.48	346.40
380.68	334.70
380.87	271.50
381.07	346.40
381.26	402.57
381.46	273.84
381.65	320.65
381.85	346.40
382.04	294.91
382.24	304.27
382.43	348.74
382.63	280.86
382.83	355.76
383.02	372.15
383.22	372.15
383.41	351.08
383.61	264.48
383.80	344.06
384.00	341.72
384.19	355.76
384.39	379.17
384.58	330.02
384.78	362.78
384.97	437.68
385.17	381.51
385.36	402.57
385.56	397.89
385.75	416.62
385.95	388.53
386.14	374.49
386.34	395.55
386.53	414.27
386.72	395.55
386.92	435.34
387.11	461.09
387.31	447.04
387.50	449.38
387.70	402.57
387.89	386.19
388.09	418.96
388.28	517.26
388.48	416.62
388.67	437.68
388.86	477.47
389.06	456.40
389.25	451.72
389.45	447.04
389.64	444.70
389.84	486.83
390.03	463.43
390.22	533.64
390.42	472.79
390.61	493.85
390.81	395.55
391.00	535.98
391.19	479.81
391.39	528.96
391.58	538.32
391.78	468.11
391.97	557.05
392.16	533.64
392.36	531.30
392.55	505.56
392.75	566.41
392.94	475.13
393.13	554.71
393.33	554.71
393.52	599.18
393.71	568.75
393.91	596.84
394.10	500.87
394.29	554.71
394.49	500.87
394.68	610.88
394.88	538.32
395.07	603.86
395.26	589.82
395.46	601.52
395.65	592.16
395.84	606.20
396.04	676.41
396.23	592.16
396.42	568.75
396.62	564.07
396.81	660.03
397.00	624.92
397.19	657.69
397.39	667.05
397.58	648.33
397.77	620.24
397.97	695.14
398.16	688.12
398.35	674.07
398.55	688.12
398.74	660.03
398.93	650.67
399.12	681.10
399.32	734.93
399.51	748.97
399.70	744.29
399.90	802.80
400.09	795.78
400.28	692.80
400.47	786.42
400.67	793.44
400.86	842.59
401.05	713.86
401.24	793.44
401.44	805.14
401.63	833.23
401.82	800.46
402.01	805.14
402.21	798.12
402.40	873.02
402.59	814.51
402.78	840.25
402.97	912.81
403.17	837.91
403.36	842.59
403.55	791.10
403.74	889.40
403.93	980.68
404.13	943.24
404.32	908.13
404.51	915.15
404.70	945.58
404.89	1006.43
405.09	945.58
405.28	919.83
405.47	919.83
405.66	1032.18
405.85	1032.18
406.05	971.32
406.24	849.61
406.43	1015.79
406.62	1137.50
406.81	1130.48
407.00	990.05
407.20	980.68
407.39	999.41
407.58	992.39
407.77	985.37
407.96	1006.43
408.15	1011.11
408.34	1048.56
408.54	1118.78
408.73	1086.01
408.92	1074.31
409.11	1128.14
409.30	1158.57
409.49	1137.50
409.68	1095.37
409.87	1064.94
410.07	1125.80
410.26	1102.39
410.45	1100.05
410.64	1210.06
410.83	1219.42
411.02	1205.38
411.21	1203.04
411.40	1132.82
411.59	1277.93
411.78	1263.89
411.98	1329.42
412.17	1270.91
412.36	1301.34
412.55	1315.38
412.74	1308.36
412.93	1299.00
413.12	1338.79
413.31	1394.96
413.50	1390.28
413.69	1329.42
413.88	1437.09
414.07	1465.18
414.26	1406.66
414.45	1387.94
414.64	1418.36
414.83	1516.67
415.02	1495.60
415.22	1469.86
415.41	1444.11
415.60	1430.07
415.79	1685.19
415.98	1626.67
416.17	1612.63
416.36	1591.56
416.55	1643.06
416.74	1558.80
416.93	1579.86
417.12	1713.27
417.31	1612.63
417.50	1692.21
417.69	1706.25
417.88	1680.50
418.07	1727.32
418.26	1621.99
418.45	1717.95
418.64	1729.66
418.83	1811.57
419.02	1750.72
419.21	1743.70
419.39	1863.07
419.58	1778.81
419.77	1795.19
419.96	1811.57
420.15	1856.04
420.34	1820.94
420.53	1872.43
420.72	2001.16
420.91	1926.26
421.10	1914.56
421.29	1982.43
421.48	1933.28
421.67	2005.84
421.86	1926.26
422.05	1973.07
422.24	1984.77
422.43	1961.37
422.61	2052.65
422.80	1952.01
422.99	1947.33
423.18	2001.16
423.37	2052.65
423.56	1926.26
423.75	1994.14
423.94	1935.62
424.13	1959.03
424.32	1952.01
424.50	1994.14
424.69	2015.20
424.88	2036.27
425.07	1984.77
425.26	2001.16
425.45	2047.97
425.64	2010.52
425.83	2024.56
426.01	2087.76
426.20	2043.29
426.39	2050.31
426.58	2083.08
426.77	2120.53
426.96	1987.11
427.15	2073.71
427.33	2115.84
427.52	2031.58
427.71	2097.12
427.90	2157.97
428.09	2221.17
428.28	2232.87
428.46	2193.08
428.65	2296.07
428.84	2181.38
429.03	2223.51
429.22	2260.96
429.40	2197.76
429.59	2260.96
429.78	2160.31
429.97	2225.85
430.16	2267.98
430.34	2230.53
430.53	2291.38
430.72	2385.01
430.91	2345.22
431.10	2359.26
431.28	2232.87
431.47	2377.98
431.66	2406.07
431.85	2385.01
432.03	2370.96
432.22	2476.29
432.41	2406.07
432.60	2457.56
432.79	2338.20
432.97	2450.54
433.16	2408.41
433.35	2492.67
433.54	2612.04
433.72	2443.52
433.91	2527.78
434.10	2483.31
434.28	2548.84
434.47	2558.21
434.66	2588.63
434.85	2567.57
435.03	2513.74
435.22	2532.46
435.41	2520.76
435.59	2630.76
435.78	2530.12
435.97	2588.63
436.16	2771.19
436.34	2693.96
436.53	2635.44
436.72	2712.68
436.90	2595.65
437.09	2750.13
437.28	2654.17
437.46	2733.75
437.65	2750.13
437.84	2729.06
438.02	2731.41
438.21	2799.28
438.40	2628.42
438.58	2843.75
438.77	2906.95
438.96	2815.66
439.14	2766.51
439.33	3068.44
439.52	2892.90
439.70	2970.14
439.89	2995.89
440.08	2956.10
440.26	2988.86
440.45	3009.93
440.63	3019.29
440.82	3059.08
441.01	3054.40
441.19	3098.87
441.38	3169.09
441.57	3187.81
441.75	3311.86
441.94	3150.36
442.12	3222.92
442.31	3281.43
442.50	3265.05
442.68	3241.64
442.87	3288.45
443.05	3307.18
443.24	3414.84
443.43	3372.71
443.61	3377.39
443.80	3468.67
443.98	3370.37
444.17	3215.90
444.35	3414.84
444.54	3396.12
444.73	3407.82
444.91	3456.97
445.10	3400.80
445.28	3440.59
445.47	3506.12
445.65	3410.16
445.84	3569.32
446.02	3445.27
446.21	3318.88
446.39	3396.12
446.58	3445.27
446.77	3473.36
446.95	3419.52
447.14	3475.70
447.32	3452.29
447.51	3468.67
447.69	3520.17
447.88	3595.06
448.06	3475.70
448.25	3463.99
448.43	3489.74
448.62	3585.70
448.80	3496.76
448.99	3597.40
449.17	3653.58
449.36	3562.30
449.54	3641.87
449.73	3667.62
449.91	3714.43
450.10	3571.66
450.28	3894.65
450.46	3688.68
450.65	3702.73
450.83	3801.03
451.02	3707.41
451.20	3716.77
451.39	3815.07
451.57	3707.41
451.76	3758.90
451.94	3758.90
452.13	3826.78
452.31	3843.16
452.49	3742.52
452.68	3845.50
452.86	3810.39
453.05	3854.86
453.23	3861.88
453.42	3833.80
453.60	3744.86
453.78	3904.01
453.97	3911.04
454.15	3964.87
454.34	3929.76
454.52	3852.52
454.70	3936.78
454.89	3974.23
455.07	3934.44
455.26	4074.87
455.44	4060.83
455.62	4072.53
455.81	4124.02
455.99	3960.19
456.17	4086.58
456.36	4135.73
456.54	4173.18
456.73	4215.30
456.91	4358.08
457.09	4224.67
457.28	4276.16
457.46	4236.37
457.64	4271.48
457.83	4423.61
458.01	4184.88
458.19	4266.80
458.38	4334.67
458.56	4500.85
458.74	4379.14
458.93	4468.08
459.11	4365.10
459.29	4388.50
459.48	4500.85
459.66	4322.97
459.84	4308.93
460.03	4524.26
460.21	4493.83
460.39	4493.83
460.57	4514.89
460.76	4454.04
460.94	4585.11
461.12	4447.02
461.31	4542.98
461.49	4643.62
461.67	4465.74
461.85	4758.31
462.04	4727.88
462.22	4828.53
462.40	4798.10
462.59	4601.49
462.77	4683.41
462.95	4777.03
463.13	4837.89
463.32	4919.81
463.50	4919.81
463.68	4781.71
463.86	4760.65
464.05	4868.31
464.23	4924.49
464.41	4896.40
464.59	4802.78
464.78	5029.81
464.96	4858.95
465.14	4901.08
465.32	5076.62
465.50	4959.60
465.69	5029.81
465.87	4943.21
466.05	4837.89
466.23	5004.07
466.41	5228.76
466.60	5085.98
466.78	5004.07
466.96	5034.49
467.14	5109.39
467.32	5132.79
467.51	5210.03
467.69	5050.88
467.87	5135.14
468.05	5153.86
468.23	5004.07
468.41	5095.35
468.60	5245.14
468.78	5135.14
468.96	5135.14
469.14	5254.50
469.32	5371.53
469.50	5118.75
469.69	5383.23
469.87	5305.99
470.05	5408.98
470.23	5406.64
470.41	5252.16
470.59	5359.83
470.77	5345.78
470.95	5453.45
471.14	5579.84
471.32	5350.46
471.50	5640.69
471.68	5408.98
471.86	5673.46
472.04	5607.92
472.22	5750.70
472.40	5617.29
472.58	5764.74
472.77	5706.23
472.95	5802.19
473.13	5977.73
473.31	5802.19
473.49	5809.21
473.67	5788.14
473.85	5937.94
474.03	6033.90
474.21	5898.15
474.39	5980.07
474.57	6146.25
474.75	6225.82
474.93	6090.07
475.12	6008.16
475.30	6094.76
475.48	5994.11
475.66	6293.70
475.84	6207.10
476.02	6392.00
476.20	6384.98
476.38	6403.71
476.56	6408.39
476.74	6502.01
476.92	6494.99
477.10	6476.26
477.28	6719.68
477.46	6647.12
477.64	6806.28
477.82	6518.39
478.00	6946.71
478.18	6899.90
478.36	6939.69
478.54	7026.29
478.72	6960.75
478.90	7094.16
479.08	7140.97
479.26	7178.42
479.44	7211.19
479.62	7344.60
479.80	7258.00
479.98	7421.84
480.16	7541.21
480.34	7461.63
480.52	7480.35
480.70	7555.25
480.88	7618.44
481.06	7655.89
481.24	7618.44
481.41	7817.39
481.59	8035.06
481.77	7772.92
481.95	8032.72
482.13	8135.70
482.31	7981.23
482.49	8074.85
482.67	8187.19
482.85	8187.19
483.03	8456.36
483.21	8456.36
483.39	8519.55
483.57	8456.36
483.74	8608.49
483.92	8781.69
484.10	8697.43
484.28	8940.85
484.46	8975.95
484.64	9029.79
484.82	9085.96
485.00	9263.84
485.18	9174.90
485.35	9404.27
485.53	9224.05
485.71	9497.89
485.89	9486.19
486.07	9523.64
486.25	9495.55
486.43	9661.73
486.61	9750.67
486.78	9795.14
486.96	9858.34
487.14	9994.09
487.32	9886.42
487.50	10157.92
487.68	10157.92
487.85	10307.72
488.03	10490.28
488.21	10455.17
488.39	10272.61
488.57	10822.64
488.75	10527.73
488.92	10911.58
489.10	10752.42
489.28	10862.43
489.46	10974.77
489.64	10890.51
489.81	11260.32
489.99	11365.64
490.17	11255.64
490.35	11494.37
490.53	11377.34
490.70	11599.70
490.88	11459.26
491.06	11672.25
491.24	11602.04
491.41	11571.61
491.59	11819.71
491.77	12126.32
491.95	12098.23
492.13	12077.16
492.30	12210.57
492.48	12105.25
492.66	12156.74
492.84	12428.24
493.01	12517.18
493.19	12374.41
493.37	12730.17
493.54	12746.56
493.72	12828.48
493.90	13163.17
494.08	13048.49
494.25	12793.37
494.43	13022.74
494.61	13160.83
494.79	13249.77
494.96	13256.79
495.14	13373.82
495.32	13565.74
495.49	13504.89
495.67	13675.75
495.85	13577.45
496.02	13563.40
496.20	13982.36
496.38	13654.69
496.55	14083.00
496.73	14118.11
496.91	14073.64
497.09	14059.60
497.26	14045.55
497.44	14249.18
497.62	14207.05
497.79	14501.96
497.97	14539.41
498.14	14712.61
498.32	14546.43
498.50	14810.91
498.67	14527.71
498.85	14944.32
499.03	14780.48
499.20	14967.73
499.38	14883.47
499.56	15218.16
499.73	15290.72
499.91	15204.12
500.08	15152.63
500.26	15360.94
500.44	15199.44
500.61	15206.46
500.79	15557.54
500.97	15609.03
501.14	15578.61
501.32	15953.09
501.49	15536.48
501.67	15679.25
501.84	15824.36
502.02	15833.72
502.20	15929.69
502.37	16088.84
502.55	15953.09
502.72	16002.24
502.90	16095.86
503.07	15978.84
503.25	15999.90
503.43	16070.12
503.60	16510.14
503.78	16154.38
503.95	16575.67
504.13	16561.63
504.30	16622.48
504.48	16411.84
504.65	16561.63
504.83	16592.06
505.01	16835.47
505.18	16975.91
505.36	16952.50
505.53	16575.67
505.71	16898.67
505.88	17191.23
506.06	17198.26
506.23	17001.65
506.41	17135.06
506.58	17451.03
506.76	17345.71
506.93	17432.31
507.11	17392.52
507.28	17495.50
507.46	17579.76
507.63	17451.03
507.81	17596.15
507.98	17415.93
508.16	17642.96
508.33	17720.20
508.50	17792.75
508.68	17958.93
508.85	17785.73
509.03	18015.10
509.20	18043.19
509.38	18218.73
509.55	18155.54
509.73	18136.81
509.90	18228.09
510.08	18284.26
510.25	18078.30
510.42	18286.61
510.60	18356.82
510.77	18562.79
510.95	18700.88
511.12	18675.13
511.30	18363.84
511.47	18705.56
511.64	18963.02
511.82	18902.17
511.99	18871.74
512.17	19229.84
512.34	19264.95
512.51	19126.86
512.69	19154.94
512.86	19105.79
513.04	19360.91
513.21	19225.16
513.38	19304.74
513.56	19271.97
513.73	19384.32
513.90	19344.53
514.08	19475.60
514.25	19538.79
514.43	19370.27
514.60	19723.69
514.77	19510.71
514.95	19466.24
515.12	19651.14
515.29	19704.97
515.47	19932.00
515.64	19992.86
515.81	19681.56
515.99	19892.21
516.16	20334.57
516.33	20116.90
516.51	20243.29
516.68	19807.95
516.85	20395.43
517.03	20264.36
517.20	20608.42
517.37	20166.06
517.54	20568.63
517.72	20734.81
517.89	20503.09
518.06	20858.85
518.24	20570.97
518.41	20409.47
518.58	20568.63
518.75	20594.37
518.93	20680.97
519.10	20683.31
519.27	20765.23
519.45	20676.29
519.62	20793.32
519.79	20992.26
519.96	20702.04
520.14	21163.12
520.31	20753.53
520.48	21010.99
520.65	21331.64
520.83	21362.07
521.00	21120.99
521.17	21371.43
521.34	21495.48
521.52	21647.61
521.69	21249.72
521.86	21745.92
522.03	21481.44
522.20	21659.32
522.38	21781.03
522.55	21305.90
522.72	21668.68
522.89	21799.75
523.07	22026.78
523.24	21776.34
523.41	21947.20
523.58	21830.18
523.75	22057.21
523.92	21790.39
524.10	22001.04
524.27	22221.05
524.44	22354.46
524.61	22338.07
524.78	22281.90
524.96	22085.30
525.13	21963.59
525.30	22352.12
525.47	22321.69
525.64	22253.81
525.81	22279.56
525.98	22520.63
526.16	22588.51
526.33	22635.32
526.50	22686.81
526.67	22810.86
526.84	22235.09
527.01	22338.07
527.18	22827.24
527.36	23030.87
527.53	22836.61
527.70	23255.56
527.87	23056.62
528.04	23058.96
528.21	23131.51
528.38	22941.93
528.55	23087.04
528.72	22738.30
528.89	23295.35
529.07	23187.69
529.24	23307.05
529.41	23513.02
529.58	23276.63
529.75	23213.43
529.92	23288.33
530.09	23323.44
530.26	23318.76
530.43	23665.16
530.60	23316.42
530.77	23552.81
530.94	23531.75
531.11	23726.01
531.28	23683.88
531.46	23665.16
531.63	23847.72
531.80	23871.12
531.97	23880.49
532.14	23817.29
532.31	23917.93
532.48	24142.63
532.65	23861.76
532.82	23758.78
532.99	24004.53
533.16	23983.47
533.33	23873.46
533.50	24802.66
533.67	24294.76
533.84	24011.56
534.01	24166.03
534.18	24025.60
534.35	24372.00
534.52	24201.14
534.69	24287.74
534.86	24456.26
535.03	24563.92
535.20	24577.97
535.37	24652.86
535.54	24863.51
535.71	24283.06
535.88	24732.44
536.05	24627.12
536.22	24547.54
536.38	24631.80
536.55	24821.38
536.72	25029.69
536.89	24652.86
537.06	24666.91
537.23	24816.70
537.40	24526.47
537.57	25050.75
537.74	24922.02
537.91	25329.28
538.08	24999.26
538.25	24556.90
538.42	24805.00
538.59	25156.08
538.75	24676.27
538.92	25139.69
539.09	25528.22
539.26	25097.56
539.43	25277.79
539.60	25266.08
539.77	25139.69
539.94	25635.89
540.11	25259.06
540.28	25198.21
540.44	25741.21
540.61	25261.40
540.78	25443.96
540.95	25481.41
541.12	25287.15
541.29	25378.43
541.46	25642.91
541.62	25422.90
541.79	25216.93
541.96	25345.66
542.13	25727.17
542.30	25420.56
542.47	25685.04
542.63	25956.54
542.80	26075.91
542.97	26087.61
543.14	26153.15
543.31	26024.42
543.48	25706.10
543.64	26178.89
543.81	26579.12
543.98	26258.47
544.15	26197.62
544.32	26359.11
544.48	26625.93
544.65	26457.42
544.82	26136.76
544.99	26242.09
545.16	26309.96
545.32	26012.71
545.49	26588.49
545.66	26757.00
545.83	26644.66
546.00	26752.32
546.16	26504.23
546.33	26384.86
546.50	26005.69
546.67	26485.50
546.83	26300.60
547.00	26544.02
547.17	26560.40
547.34	26813.18
547.50	27115.11
547.67	27140.85
547.84	26738.28
548.00	26787.43
548.17	26909.14
548.34	26897.44
548.51	27143.19
548.67	26979.36
548.84	26852.97
549.01	26768.71
549.18	26834.24
549.34	26995.74
549.51	27077.66
549.68	26848.29
549.84	26850.63
550.01	26906.80
550.18	26852.97
550.34	27335.12
550.51	27381.93
550.68	27274.26
550.84	27220.43
551.01	27300.01
551.18	26871.69
551.34	27101.06
551.51	26948.93
551.68	27461.51
551.84	27543.42
552.01	27300.01
552.18	27466.19
552.34	27131.49
552.51	27302.35
552.68	27496.61
552.84	27365.54
553.01	27536.40
553.18	27655.77
553.34	27461.51
553.51	27702.58
553.67	27721.30
553.84	27814.93
554.01	27845.35
554.17	27800.88
554.34	27639.39
554.51	27693.22
554.67	28112.17
554.84	27938.97
555.00	27885.14
555.17	27906.21
555.33	28020.89
555.50	27498.95
555.67	27550.45
555.83	27955.36
556.00	27983.44
556.16	28051.32
556.33	28133.24
556.50	27910.89
556.66	28418.78
556.83	28144.94
556.99	27981.10
557.16	28018.55
557.32	28503.04
557.49	28645.82
557.65	27660.45
557.82	28130.90
557.98	28271.33
558.15	28292.40
558.32	28048.98
558.48	28355.59
558.65	28521.77
558.81	28327.50
558.98	28428.15
559.14	27960.04
559.31	28329.84
559.47	28259.63
559.64	28051.32
559.80	28364.95
559.97	28687.95
560.13	28414.10
560.30	28893.91
560.46	28514.75
560.63	28608.37
560.79	28811.99
560.96	28467.94
561.12	28367.29
561.29	28599.01
561.45	28397.72
561.61	28652.84
561.78	28837.74
561.94	28748.80
562.11	28521.77
562.27	28379.00
562.44	28922.00
562.60	28641.14
562.77	28741.78
562.93	28561.56
563.10	28563.90
563.26	28751.14
563.42	29062.43
563.59	28769.86
563.75	28868.17
563.92	28746.46
564.08	28599.01
564.24	28694.97
564.41	28720.71
564.57	28493.68
564.74	28549.85
564.90	28898.59
565.07	28996.90
565.23	29029.66
565.39	28833.06
565.56	28868.17
565.72	29146.69
565.88	29001.58
566.05	28599.01
566.21	29048.39
566.38	28762.84
566.54	28811.99
566.70	28673.90
566.87	29097.54
567.03	29024.98
567.19	29284.78
567.36	29120.95
567.52	29048.39
567.68	29333.93
567.85	29167.76
568.01	29134.99
568.17	29214.57
568.34	29259.04
568.50	28985.19
568.66	29200.52
568.83	29291.80
568.99	28844.76
569.15	28938.38
569.32	29401.81
569.48	28994.56
569.64	28854.12
569.81	29301.17
569.97	29097.54
570.13	28999.24
570.30	29184.14
570.46	29481.39
570.62	29060.09
570.78	29116.26
570.95	28875.19
571.11	29317.55
571.27	28980.51
571.43	29174.78
571.60	29088.18
571.76	28973.49
571.92	29483.73
572.09	29731.83
572.25	29333.93
572.41	29713.10
572.57	29490.75
572.74	29624.16
572.90	29291.80
573.06	29324.57
573.22	29174.78
573.38	29326.91
573.55	29195.84
573.71	29549.26
573.87	29640.54
574.03	29259.04
574.20	29216.91
574.36	29652.25
574.52	29366.70
574.68	29331.59
574.84	29584.37
575.01	29780.98
575.17	29369.04
575.33	29139.67
575.49	29539.90
575.65	29242.65
575.82	29373.72
575.98	29364.36
576.14	29544.58
576.30	29509.47
576.46	29172.44
576.62	28982.85
576.79	29401.81
576.95	29397.13
577.11	29701.40
577.27	29207.55
577.43	29333.93
577.59	29460.32
577.75	29516.50
577.92	29280.10
578.08	29443.94
578.24	29259.04
578.40	29230.95
578.56	29701.40
578.72	29158.39
578.88	29947.15
579.04	30139.08
579.21	29378.40
579.37	29563.31
579.53	29727.14
579.69	29617.14
579.85	29429.90
580.01	29212.23
580.17	29083.50
580.33	29525.86
580.49	29343.30
580.65	29701.40
580.82	29315.21
580.98	29893.32
581.14	29446.28
581.30	29687.36
581.46	29160.73
581.62	29605.44
581.78	29551.60
581.94	29626.50
582.10	29579.69
582.26	29303.51
582.42	29455.64
582.58	29846.51
582.74	29649.91
582.90	29916.73
583.06	29614.80
583.22	29745.87
583.38	29514.16
583.54	29500.11
583.70	29518.84
583.86	29621.82
584.02	29898.00
584.18	29738.85
584.34	29834.81
584.50	29624.16
584.66	29591.39
584.82	29713.10
584.98	29724.80
585.14	29214.57
585.30	29549.26
585.46	29832.47
585.62	29301.17
585.78	29579.69
585.94	29378.40
586.10	29586.71
586.26	29607.78
586.42	29790.34
586.58	29771.61
586.74	29991.62
586.90	29823.11
587.06	29347.98
587.22	29869.92
587.38	29846.51
587.54	29949.50
587.70	29986.94
587.86	29579.69
588.02	29865.24
588.18	29844.17
588.34	29804.38
588.49	29621.82
588.65	29600.76
588.81	29591.39
588.97	29582.03
589.13	29649.91
589.29	29741.19
589.45	29919.07
589.61	29893.32
589.77	29998.65
589.93	30047.80
590.08	29996.31
590.24	29865.24
590.40	29979.92
590.56	30036.09
590.72	30003.33
590.88	29769.27
591.04	29844.17
591.20	30045.46
591.35	30340.36
591.51	30349.73
591.67	30270.15
591.83	30443.35
591.99	30354.41
592.15	30333.34
592.31	29947.15
592.46	29565.65
592.62	29858.21
592.78	29743.53
592.94	30075.88
593.10	30279.51
593.26	29862.90
593.41	30213.98
593.57	30178.87
593.73	29958.86
593.89	30558.03
594.05	30015.03
594.20	30066.52
594.36	29947.15
594.52	29844.17
594.68	30153.12
594.84	29717.78
594.99	30340.36
595.15	29874.60
595.31	30183.55
595.47	29914.39
595.62	30490.16
595.78	30003.33
595.94	30017.37
596.10	30092.27
596.25	30024.39
596.41	30089.93
596.57	29991.62
596.73	30059.50
596.88	30050.14
597.04	30003.33
597.20	30174.19
597.36	30110.99
597.51	30415.26
597.67	29867.58
597.83	30094.61
597.99	30075.88
598.14	30253.76
598.30	30213.98
598.46	30244.40
598.61	30047.80
598.77	29991.62
598.93	30155.46
599.09	30323.98
599.24	30972.31
599.40	30436.33
599.56	30639.95
599.71	30384.83
599.87	30314.62
600.03	30178.87
600.18	30052.48
600.34	30082.91
600.50	30253.76
600.65	30068.86
600.81	30668.04
600.97	30396.54
601.12	30396.54
601.28	30408.24
601.44	30497.18
601.59	30543.99
601.75	30604.84
601.91	30347.39
602.06	30361.43
602.22	30258.45
602.37	30188.23
602.53	30251.42
602.69	30494.84
602.84	30235.04
603.00	30305.26
603.16	30064.18
603.31	30223.34
603.47	30078.22
603.62	30419.94
603.78	30436.33
603.94	29783.32
604.09	30235.04
604.25	30312.28
604.40	29841.83
604.56	30199.93
604.71	30396.54
604.87	30211.64
605.03	30408.24
605.18	30354.41
605.34	30361.43
605.49	29577.35
605.65	30125.04
605.80	29991.62
605.96	30221.00
606.12	29825.45
606.27	29802.04
606.43	30071.20
606.58	30171.85
606.74	30206.95
606.89	29991.62
607.05	30113.33
607.20	30380.15
607.36	30279.51
607.51	30038.44
607.67	29912.05
607.82	29916.73
607.98	30146.10
608.13	30298.23
608.29	29806.72
608.44	29935.45
608.60	30071.20
608.75	30066.52
608.91	30401.22
609.06	29785.66
609.22	30405.90
609.37	29509.47
609.53	29736.51
609.68	30164.82
609.84	29846.51
609.99	29879.28
610.15	30368.45
610.30	30038.44
610.46	29682.67
610.61	30328.66
610.76	29991.62
610.92	30162.48
611.07	30078.22
611.23	29502.45
611.38	29692.04
611.54	29909.71
611.69	29823.11
611.84	29268.40
612.00	29680.33
612.15	29481.39
612.31	29509.47
612.46	29745.87
612.62	29944.81
612.77	29631.18
612.92	29717.78
613.08	29532.88
613.23	29692.04
613.39	29544.58
613.54	29481.39
613.69	29748.21
613.85	29387.77
614.00	29670.97
614.15	29490.75
614.31	29570.33
614.46	29738.85
614.62	29685.01
614.77	29542.24
614.92	29823.11
615.08	29895.66
615.23	29769.27
615.38	29479.05
615.54	29158.39
615.69	29226.27
615.84	29645.23
616.00	29455.64
616.15	29610.12
616.30	29607.78
616.46	29226.27
616.61	29371.38
616.76	29759.91
616.92	29448.62
617.07	29394.79
617.22	29228.61
617.37	29270.74
617.53	29544.58
617.68	29364.36
617.83	29064.77
617.99	29373.72
618.14	29034.35
618.29	29160.73
618.45	29010.94
618.60	29322.23
618.75	29607.78
618.90	29235.63
619.06	28755.82
619.21	29092.86
619.36	29333.93
619.51	28957.11
619.67	28898.59
619.82	29029.66
619.97	29106.90
620.12	28388.36
620.28	28959.45
620.43	29008.60
620.58	29163.08
620.73	29013.28
620.89	29282.44
621.04	28950.09
621.19	29069.45
621.34	28797.95
621.49	28870.51
621.65	28655.18
621.80	28922.00
621.95	28697.31
622.10	29249.67
622.25	28762.84
622.41	29221.59
622.56	28624.75
622.71	29397.13
622.86	28671.56
623.01	28982.85
623.16	29067.11
623.32	28762.84
623.47	28694.97
623.62	28503.04
623.77	28442.19
623.92	28746.46
624.07	28533.47
624.23	28830.72
624.38	28926.68
624.53	28547.51
624.68	28514.75
624.83	28900.94
624.98	28472.62
625.13	28474.96
625.29	28938.38
625.44	28102.81
625.59	28531.13
625.74	28498.36
625.89	28063.02
626.04	28278.35
626.19	28304.10
626.34	28547.51
626.49	28393.04
626.65	28535.81
626.80	28748.80
626.95	28173.03
627.10	28467.94
627.25	28004.51
627.40	28037.28
627.55	27744.71
627.70	28236.22
627.85	28259.63
628.00	28315.80
628.15	28294.74
628.30	27901.53
628.45	27889.82
628.60	28196.43
628.76	28065.36
628.91	27924.93
629.06	27683.86
629.21	28158.99
629.36	28095.79
629.51	28018.55
629.66	28144.94
629.81	27618.32
629.96	27854.72
630.11	27761.09
630.26	27857.06
630.41	27847.69
630.56	27585.55
630.71	27908.55
630.86	27845.35
631.01	28238.56
631.16	27995.15
631.31	28166.01
631.46	27740.03
631.61	27810.25
631.76	27948.34
631.91	27899.19
632.06	27613.64
632.21	27578.53
632.36	27133.83
632.51	27445.12
632.66	27637.05
632.81	27410.01
632.96	27501.29
633.10	27646.41
633.25	27597.26
633.40	28100.47
633.55	27520.02
633.70	27555.13
633.85	27262.56
634.00	27281.28
634.15	26913.82
634.30	27309.37
634.45	27538.74
634.60	27480.23
634.75	27590.24
634.90	27101.06
635.05	27697.90
635.19	27117.45
635.34	27276.60
635.49	27695.56
635.64	27578.53
635.79	27585.55
635.94	27318.73
636.09	27494.27
636.24	27325.75
636.39	26902.12
636.53	27026.17
636.68	26953.61
636.83	27131.49
636.98	27082.34
637.13	27173.62
637.28	26962.97
637.43	27201.71
637.57	27044.89
637.72	27300.01
637.87	27290.65
638.02	27323.41
638.17	26883.39
638.32	26962.97
638.46	26703.17
638.61	26455.08
638.76	26810.84
638.91	26719.56
639.06	26656.36
639.20	26656.36
639.35	27131.49
639.50	26857.65
639.65	27140.85
639.80	26824.88
639.94	27140.85
640.09	27178.30
640.24	27101.06
640.39	26951.27
640.54	26663.38
640.68	26391.88
640.83	26728.92
640.98	26499.55
641.13	26115.70
641.27	26600.19
641.42	26602.53
641.57	26700.83
641.72	26679.77
641.86	26822.54
642.01	26368.48
642.16	26551.04
642.31	26050.16
642.45	26972.33
642.60	26347.41
642.75	26384.86
642.90	26242.09
643.04	26309.96
643.19	26328.69
643.34	26593.17
643.48	26412.95
643.63	26632.96
643.78	26349.75
643.93	26434.01
644.07	26703.17
644.22	26352.09
644.37	26494.86
644.51	26396.56
644.66	26256.13
644.81	25923.77
644.95	26136.76
645.10	26204.64
645.25	26412.95
645.39	26211.66
645.54	26157.83
645.69	25905.05
645.83	26089.95
645.98	26087.61
646.13	25965.90
646.27	26185.91
646.42	25968.24
646.57	26099.31
646.71	25998.67
646.86	25928.45
647.00	26108.68
647.15	26309.96
647.30	25514.18
647.44	25511.84
647.59	25743.55
647.74	25778.66
647.88	26190.59
648.03	25715.47
648.17	25738.87
648.32	26118.04
648.47	26253.79
648.61	25940.16
648.76	25898.03
648.90	25542.27
649.05	26033.78
649.20	25898.03
649.34	25319.92
649.49	25558.65
649.63	25345.66
649.78	25635.89
649.92	25806.75
650.07	25982.29
650.21	25654.61
650.36	25621.84
650.51	25397.15
650.65	25600.78
650.80	25710.78
650.94	25799.73
651.09	25399.49
651.23	25563.33
651.38	25579.71
651.52	25422.90
651.67	25383.11
651.81	25469.71
651.96	25331.62
652.10	25525.88
652.25	25736.53
652.39	25729.51
652.54	25827.81
652.68	25530.56
652.83	25317.57
652.97	25383.11
653.12	25603.12
653.26	25462.69
653.41	25214.59
653.55	25142.03
653.70	25226.29
653.84	25617.16
653.99	25102.25
654.13	25097.56
654.27	25195.87
654.42	24856.49
654.56	25226.29
654.71	25158.42
654.85	25245.02
655.00	25233.32
655.14	25055.43
655.29	24980.54
655.43	25125.65
655.57	25130.33
655.72	25032.03
655.86	25032.03
656.01	25034.37
656.15	24816.70
656.30	24950.11
656.44	24978.20
656.58	24924.36
656.73	25137.35
656.87	24912.66
657.01	25062.46
657.16	25399.49
657.30	25200.55
657.45	24968.84
657.59	24975.86
657.73	25029.69
657.88	24924.36
658.02	24727.76
658.16	24666.91
658.31	24533.50
658.45	24751.17
658.60	24489.03
658.74	24435.19
658.88	24594.35
659.03	24582.65
659.17	24760.53
659.31	24442.21
659.46	24664.57
659.60	24758.19
659.74	24449.24
659.89	24315.83
660.03	23983.47
660.17	24896.28
660.32	24372.00
660.46	24027.94
660.60	23941.34
660.74	24109.86
660.89	24343.91
661.03	23981.13
661.17	24002.19
661.32	23960.06
661.46	24196.46
661.60	24243.27
661.74	24290.08
661.89	24121.56
662.03	24217.52
662.17	23964.75
662.31	23931.98
662.46	24231.57
662.60	23871.12
662.74	23983.47
662.88	23562.17
663.03	23878.15
663.17	23742.39
663.31	23477.91
663.45	23332.80
663.60	23751.76
663.74	23388.97
663.88	23751.76
664.02	23651.11
664.17	23616.01
664.31	23332.80
664.45	23372.59
664.59	23857.08
664.73	23482.59
664.88	23180.67
665.02	23119.81
665.16	23283.65
665.30	23232.16
665.44	23073.00
665.59	23049.60
665.73	23054.28
665.87	22948.95
666.01	23143.22
666.15	22981.72
666.29	23007.47
666.44	22977.04
666.58	22988.74
666.72	23033.21
666.86	22850.65
667.00	22738.30
667.14	22574.47
667.28	22759.37
667.43	22642.34
667.57	22869.37
667.71	22775.75
667.85	22761.71
667.99	22771.07
668.13	22628.30
668.27	22548.72
668.41	22628.30
668.56	22665.75
668.70	22747.67
668.84	22480.85
668.98	22373.18
669.12	22684.47
669.26	22473.82
669.40	22436.38
669.54	22581.49
669.68	22515.95
669.82	21926.14
669.96	21970.61
670.10	21951.88
670.25	22162.53
670.39	21912.10
670.53	21991.67
670.67	21783.37
670.81	22059.55
670.95	21865.28
671.09	22176.58
671.23	21804.43
671.37	21823.16
671.51	21561.02
671.65	21731.87
671.79	21944.86
671.93	21820.81
672.07	21940.18
672.21	21673.36
672.35	21556.33
672.49	21415.90
672.63	21532.93
672.77	21303.56
672.91	21549.31
673.05	21317.60
673.19	21113.97
673.33	21212.28
673.47	21364.41
673.61	21441.65
673.75	21401.86
673.89	21242.70
674.03	21268.45
674.17	21008.65
674.31	20936.09
674.45	21149.08
674.59	20847.15
674.73	21018.01
674.87	20823.75
675.01	20858.85
675.15	20751.19
675.29	20900.98
675.43	20662.25
675.56	20465.64
675.70	20893.96
675.84	20805.02
675.98	20238.61
676.12	20517.14
676.26	20559.27
676.40	20311.17
676.54	19992.86
676.68	20395.43
676.82	20016.26
676.96	20121.59
677.10	20222.23
677.23	19824.34
677.37	19992.86
677.51	20042.01
677.65	19964.77
677.79	19955.41
677.93	19587.94
678.07	19824.34
678.21	19662.84
678.34	19639.44
678.48	19901.58
678.62	19290.70
678.76	19414.74
678.90	19349.21
679.04	19281.33
679.18	19108.13
679.31	19000.47
679.45	19080.05
679.59	19068.34
679.73	19016.85
679.87	18972.38
680.00	19030.90
680.14	18670.45
680.28	18677.48
680.42	18747.69
680.56	19131.54
680.70	18623.64
680.83	18733.65
680.97	18574.49
681.11	18661.09
681.25	18628.32
681.39	18511.30
681.52	18675.13
681.66	18160.22
681.80	18136.81
681.94	18349.80
682.07	18129.79
682.21	17951.91
682.35	17919.14
682.49	17935.53
682.62	17743.60
682.76	17795.09
682.90	18066.60
683.04	17872.33
683.17	17561.04
683.31	17797.43
683.45	17757.64
683.59	17781.05
683.72	17511.89
683.86	17266.13
684.00	17371.46
684.13	17460.40
684.27	17268.47
684.41	17238.05
684.55	17153.79
684.68	16884.62
684.82	17156.13
684.96	16723.13
685.09	16671.64
685.23	16418.86
685.37	16950.16
685.50	16903.35
685.64	17099.95
685.78	16842.50
685.91	16985.27
686.05	16975.91
686.19	16711.42
686.32	16421.20
686.46	16343.96
686.60	16299.49
686.73	16477.37
686.87	16180.12
687.01	16046.71
687.14	16102.89
687.28	16081.82
687.42	15896.92
687.55	16053.73
687.69	16056.08
687.82	15899.26
687.96	15880.53
688.10	15786.91
688.23	15847.77
688.37	15836.06
688.50	15702.65
688.64	15857.13
688.78	15660.52
688.91	15871.17
689.05	15414.77
689.18	15520.09
689.32	15126.88
689.46	14977.09
689.59	15250.93
689.73	15281.36
689.86	15129.22
690.00	14956.02
690.13	15421.79
690.27	15239.23
690.41	15314.13
690.54	15012.20
690.68	14839.00
690.81	15087.09
690.95	15138.58
691.08	14747.72
691.22	14761.76
691.35	14839.00
691.49	14817.93
691.62	14633.03
691.76	14429.40
691.89	14572.18
692.03	14216.41
692.16	14150.88
692.30	14120.45
692.43	14064.28
692.57	14090.02
692.70	14066.62
692.84	14087.68
692.97	13783.41
693.11	14068.96
693.24	13708.52
693.38	13823.20
693.51	13804.48
693.65	13853.63
693.78	13664.05
693.92	13745.97
694.05	13752.99
694.19	13418.29
694.32	13540.00
694.45	13146.79
694.59	13158.49
694.72	13434.68
694.86	13270.84
694.99	12973.59
695.13	13057.85
695.26	13123.38
695.39	12746.56
695.53	12886.99
695.66	12905.71
695.80	12709.11
695.93	12666.98
696.07	12926.78
696.20	12858.90
696.33	12915.08
696.47	12552.29
696.60	12690.38
696.73	12484.42
696.87	12547.61
697.00	12423.56
697.14	12320.58
697.27	12292.49
697.40	12238.66
697.54	12322.92
697.67	12084.19
697.80	12205.89
697.94	12114.61
698.07	11999.93
698.21	11995.25
698.34	11798.64
698.47	11927.37
698.61	11887.58
698.74	11824.39
698.87	11880.56
699.01	11772.89
699.14	11784.60
699.27	11683.95
699.40	11531.82
699.54	11485.01
699.67	11367.98
699.80	11428.84
699.94	11253.30
700.07	11272.02
700.20	11215.85
700.34	11075.42
700.47	11220.53
700.60	11229.89
700.73	11211.17
700.87	11197.12
701.00	10857.75
701.13	11101.16
701.26	10888.17
701.40	10998.18
701.53	10782.85
701.66	10974.77
701.79	10583.90
701.93	10410.70
702.06	10663.48
702.19	10509.01
702.32	10452.83
702.46	10490.28
702.59	10293.68
702.72	10396.66
702.85	10263.25
702.99	10406.02
703.12	10078.35
703.25	10106.43
703.38	10164.95
703.51	10005.79
703.65	10291.34
703.78	10019.83
703.91	10146.22
704.04	10209.42
704.17	9898.13
704.31	9865.36
704.44	9778.76
704.57	9708.54
704.70	9635.99
704.83	9703.86
704.96	9514.28
705.10	9448.74
705.23	9565.77
>>>>>End Processed Spectral Data<<<<<
