SpectraSuite Data File
++++++++++++++++++++++++++++++++++++
Date: Fri Oct 18 13:58:07 GMT-05:00 2013
User: bianchi
Dark Spectrum Present: No
Reference Spectrum Present: No
Number of Sampled Component Spectra: 1
Spectrometers: USB2+H05261
Integration Time (usec): 50000 (USB2+H05261)
Spectra Averaged: 1 (USB2+H05261)
Boxcar Smoothing: 0 (USB2+H05261)
Correct for Electrical Dark: No (USB2+H05261)
Strobe/Lamp Enabled: No (USB2+H05261)
Correct for Detector Non-linearity: No (USB2+H05261)
Correct for Stray Light: No (USB2+H05261)
Number of Pixels in Processed Spectrum: 2048
>>>>>Begin Processed Spectral Data<<<<<
365.73	0.00
365.92	0.00
366.12	0.00
366.32	0.00
366.52	0.00
366.72	0.00
366.91	0.00
367.11	0.00
367.31	0.00
367.51	0.00
367.70	0.00
367.90	0.00
368.10	0.00
368.30	0.00
368.49	0.00
368.69	0.00
368.89	0.00
369.09	0.00
369.28	0.00
369.48	0.00
369.68	0.00
369.87	0.00
370.07	0.00
370.27	0.00
370.47	0.00
370.66	112.35
370.86	117.03
371.06	180.22
371.25	128.73
371.45	110.01
371.65	184.90
371.84	63.19
372.04	98.30
372.24	173.20
372.44	175.54
372.63	184.90
372.83	222.35
373.03	203.63
373.22	191.92
373.42	201.29
373.62	325.33
373.81	250.44
374.01	259.80
374.21	215.33
374.40	194.26
374.60	292.57
374.79	205.97
374.99	285.55
375.19	220.01
375.38	208.31
375.58	234.05
375.78	308.95
375.97	220.01
376.17	311.29
376.37	276.18
376.56	311.29
376.76	210.65
376.95	278.52
377.15	311.29
377.35	259.80
377.54	264.48
377.74	271.50
377.93	196.60
378.13	280.86
378.33	320.65
378.52	220.01
378.72	325.33
378.91	318.31
379.11	245.76
379.31	339.38
379.50	297.25
379.70	280.86
379.89	301.93
380.09	292.57
380.28	259.80
380.48	315.97
380.68	304.27
380.87	358.10
381.07	346.40
381.26	266.82
381.46	346.40
381.65	266.82
381.85	273.84
382.04	304.27
382.24	337.04
382.43	325.33
382.63	374.49
382.83	315.97
383.02	334.70
383.22	454.06
383.41	325.33
383.61	355.76
383.80	348.74
384.00	308.95
384.19	423.64
384.39	362.78
384.58	437.68
384.78	374.49
384.97	348.74
385.17	313.63
385.36	332.36
385.56	472.79
385.75	428.32
385.95	351.08
386.14	402.57
386.34	400.23
386.53	365.12
386.72	407.25
386.92	393.21
387.11	400.23
387.31	442.36
387.50	404.91
387.70	463.43
387.89	383.85
388.09	461.09
388.28	318.31
388.48	461.09
388.67	442.36
388.86	498.53
389.06	510.24
389.25	428.32
389.45	540.66
389.64	442.36
389.84	477.47
390.03	423.64
390.22	456.40
390.42	559.39
390.61	449.38
390.81	440.02
391.00	500.87
391.19	400.23
391.39	498.53
391.58	559.39
391.78	519.60
391.97	528.96
392.16	458.74
392.36	571.09
392.55	557.05
392.75	517.26
392.94	470.45
393.13	540.66
393.33	594.50
393.52	587.47
393.71	620.24
393.91	596.84
394.10	650.67
394.29	610.88
394.49	589.82
394.68	615.56
394.88	603.86
395.07	655.35
395.26	543.00
395.46	589.82
395.65	610.88
395.84	671.73
396.04	657.69
396.23	561.73
396.42	669.39
396.62	592.16
396.81	685.78
397.00	683.44
397.19	650.67
397.39	681.10
397.58	748.97
397.77	657.69
397.97	695.14
398.16	711.52
398.35	688.12
398.55	730.25
398.74	751.31
398.93	772.38
399.12	657.69
399.32	699.82
399.51	732.59
399.70	795.78
399.90	643.65
400.09	718.54
400.28	746.63
400.47	748.97
400.67	765.36
400.86	798.12
401.05	814.51
401.24	788.76
401.44	798.12
401.63	711.52
401.82	823.87
402.01	884.72
402.21	770.04
402.40	877.70
402.59	807.48
402.78	816.85
402.97	805.14
403.17	896.43
403.36	861.32
403.55	903.45
403.74	915.15
403.93	880.04
404.13	898.77
404.32	894.08
404.51	936.21
404.70	877.70
404.89	926.85
405.09	929.19
405.28	1004.09
405.47	985.37
405.66	959.62
405.85	1013.45
406.05	1001.75
406.24	1050.90
406.43	1001.75
406.62	1057.92
406.81	1022.81
407.00	954.94
407.20	1032.18
407.39	964.30
407.58	1086.01
407.77	1060.26
407.96	1158.57
408.15	1011.11
408.34	1100.05
408.54	1156.22
408.73	1170.27
408.92	1050.90
409.11	1184.31
409.30	1196.01
409.49	1102.39
409.68	1135.16
409.87	1095.37
410.07	1212.40
410.26	1158.57
410.45	1193.67
410.64	1275.59
410.83	1252.19
411.02	1207.72
411.21	1212.40
411.40	1289.64
411.59	1219.42
411.78	1233.46
411.98	1256.87
412.17	1306.02
412.36	1233.46
412.55	1294.32
412.74	1430.07
412.93	1401.98
413.12	1385.60
413.31	1439.43
413.50	1350.49
413.69	1467.52
413.88	1462.83
414.07	1437.09
414.26	1476.88
414.45	1469.86
414.64	1458.15
414.83	1526.03
415.02	1561.14
415.22	1502.62
415.41	1610.29
415.60	1488.58
415.79	1537.73
415.98	1638.38
416.17	1638.38
416.36	1563.48
416.55	1680.50
416.74	1584.54
416.93	1652.42
417.12	1568.16
417.31	1708.59
417.50	1671.14
417.69	1799.87
417.88	1818.60
418.07	1813.92
418.26	1757.74
418.45	1729.66
418.64	1802.21
418.83	1923.92
419.02	1755.40
419.21	1846.68
419.39	1874.77
419.58	1844.34
419.77	1795.19
419.96	1834.98
420.15	1863.07
420.34	1865.41
420.53	1898.17
420.72	1886.47
420.91	1886.47
421.10	1898.17
421.29	1980.09
421.48	1949.67
421.67	1980.09
421.86	1991.80
422.05	2003.50
422.24	1991.80
422.43	1966.05
422.61	1898.17
422.80	1987.11
422.99	2111.16
423.18	2033.93
423.37	2054.99
423.56	2113.50
423.75	1991.80
423.94	1912.22
424.13	1975.41
424.32	1982.43
424.50	2008.18
424.69	2157.97
424.88	2080.74
425.07	2108.82
425.26	2134.57
425.45	1930.94
425.64	2059.67
425.83	2022.22
426.01	2057.33
426.20	2043.29
426.39	2062.01
426.58	2150.95
426.77	2008.18
426.96	2092.44
427.15	2085.42
427.33	2076.06
427.52	2120.53
427.71	2115.84
427.90	2165.00
428.09	2057.33
428.28	2289.04
428.46	2291.38
428.65	2225.85
428.84	2275.00
429.03	2265.64
429.22	2132.23
429.40	2291.38
429.59	2256.28
429.78	2167.34
429.97	2188.40
430.16	2228.19
430.34	2312.45
430.53	2312.45
430.72	2338.20
430.91	2267.98
431.10	2363.94
431.28	2448.20
431.47	2492.67
431.66	2525.44
431.85	2387.35
432.03	2490.33
432.22	2431.82
432.41	2441.18
432.60	2403.73
432.79	2455.22
432.97	2495.01
433.16	2431.82
433.35	2401.39
433.54	2551.18
433.72	2619.06
433.91	2553.52
434.10	2623.74
434.28	2525.44
434.47	2576.93
434.66	2518.42
434.85	2558.21
435.03	2480.97
435.22	2457.56
435.41	2743.11
435.59	2626.08
435.78	2644.81
435.97	2768.85
436.16	2710.34
436.34	2698.64
436.53	2677.57
436.72	2925.67
436.90	2654.17
437.09	2745.45
437.28	2626.08
437.46	2684.59
437.65	2609.70
437.84	2764.17
438.02	2787.58
438.21	2911.63
438.40	2703.32
438.58	2892.90
438.77	2874.18
438.96	2906.95
439.14	2918.65
439.33	2949.08
439.52	2871.84
439.70	2972.48
439.89	3012.27
440.08	3007.59
440.26	3016.95
440.45	3157.38
440.63	3117.59
440.82	3115.25
441.01	3133.98
441.19	3204.19
441.38	3192.49
441.57	3251.00
441.75	3162.06
441.94	3356.33
442.12	3269.73
442.31	3407.82
442.50	3346.97
442.68	3454.63
442.87	3372.71
443.05	3393.78
443.24	3389.10
443.43	3396.12
443.61	3471.01
443.80	3421.86
443.98	3421.86
444.17	3279.09
444.35	3323.56
444.54	3433.57
444.73	3426.54
444.91	3489.74
445.10	3452.29
445.28	3431.23
445.47	3351.65
445.65	3410.16
445.84	3487.40
446.02	3592.72
446.21	3419.52
446.39	3541.23
446.58	3562.30
446.77	3693.37
446.95	3485.06
447.14	3590.38
447.32	3566.98
447.51	3463.99
447.69	3592.72
447.88	3510.80
448.06	3534.21
448.25	3471.01
448.43	3588.04
448.62	3515.48
448.80	3588.04
448.99	3662.94
449.17	3693.37
449.36	3695.71
449.54	3751.88
449.73	3740.18
449.91	3765.92
450.10	3768.26
450.28	3772.94
450.46	3829.12
450.65	3831.46
450.83	3667.62
451.02	3796.35
451.20	3702.73
451.39	3892.31
451.57	3852.52
451.76	3779.97
451.94	3927.42
452.13	3955.51
452.31	3756.56
452.49	3866.56
452.68	3805.71
452.86	3845.50
453.05	3957.85
453.23	3838.48
453.42	3878.27
453.60	3843.16
453.78	3880.61
453.97	3995.29
454.15	4095.94
454.34	3918.06
454.52	4009.34
454.70	4011.68
454.89	4196.58
455.07	4011.68
455.26	4131.05
455.44	4243.39
455.62	4210.62
455.81	4170.83
455.99	4252.75
456.17	4243.39
456.36	4329.99
456.54	4161.47
456.73	4091.26
456.91	4444.68
457.09	4411.91
457.28	4397.87
457.46	4339.35
457.64	4407.23
457.83	4477.44
458.01	4292.54
458.19	4475.10
458.38	4332.33
458.56	4449.36
458.74	4402.55
458.93	4346.37
459.11	4449.36
459.29	4372.12
459.48	4496.17
459.66	4470.42
459.84	4608.51
460.03	4657.67
460.21	4514.89
460.39	4652.98
460.57	4596.81
460.76	4428.29
460.94	4674.05
461.12	4746.61
461.31	4617.88
461.49	4660.01
461.67	4606.17
461.85	4809.80
462.04	4657.67
462.22	4945.55
462.40	4868.31
462.59	4917.47
462.77	4847.25
462.95	4676.39
463.13	4805.12
463.32	4854.27
463.50	4877.68
463.68	4931.51
463.86	4851.93
464.05	4793.42
464.23	5053.22
464.41	4894.06
464.59	4751.29
464.78	4987.68
464.96	4966.62
465.14	5036.83
465.32	5142.16
465.50	5069.60
465.69	5074.28
465.87	4994.70
466.05	4980.66
466.23	5081.30
466.41	5149.18
466.60	5238.12
466.78	5142.16
466.96	4940.87
467.14	5001.72
467.32	5130.45
467.51	5329.40
467.69	5139.82
467.87	5254.50
468.05	5167.90
468.23	5156.20
468.41	5256.84
468.60	5256.84
468.78	5397.28
468.96	5289.61
469.14	5329.40
469.32	5399.62
469.50	5210.03
469.69	5444.09
469.87	5493.24
470.05	5547.07
470.23	5584.52
470.41	5526.00
470.59	5448.77
470.77	5390.25
470.95	5448.77
471.14	5591.54
471.32	5495.58
471.50	5561.11
471.68	5657.07
471.86	5614.95
472.04	5678.14
472.22	5624.31
472.40	5743.67
472.58	5809.21
472.77	5760.06
472.95	5738.99
473.13	6066.67
473.31	5846.66
473.49	5633.67
473.67	5888.79
473.85	5893.47
474.03	6176.67
474.21	6050.28
474.39	6054.97
474.57	6179.01
474.75	6279.66
474.93	6246.89
475.12	6193.06
475.30	6221.14
475.48	6204.76
475.66	6375.62
475.84	6307.74
476.02	6436.47
476.20	6415.41
476.38	6494.99
476.56	6827.34
476.74	6539.46
476.92	6614.35
477.10	6588.61
477.28	6679.89
477.46	6600.31
477.64	6810.96
477.82	6719.68
478.00	7155.02
478.18	7049.69
478.36	7030.97
478.54	7126.93
478.72	7171.40
478.90	7241.62
479.08	7176.08
479.26	7232.26
479.44	7229.91
479.62	7396.09
479.80	7339.92
479.98	7466.31
480.16	7674.62
480.34	7793.98
480.52	7805.69
480.70	7803.35
480.88	7606.74
481.06	7889.95
481.24	7740.15
481.41	8011.65
481.59	8079.53
481.77	8180.17
481.95	8147.40
482.13	7962.50
482.31	8224.64
482.49	8236.35
482.67	8425.93
482.85	8311.24
483.03	8540.61
483.21	8786.37
483.39	8531.25
483.57	8557.00
483.74	8898.72
483.92	8732.54
484.10	8786.37
484.28	9170.22
484.46	8992.34
484.64	9174.90
484.82	9380.87
485.00	9273.20
485.18	9423.00
485.35	9324.69
485.53	9476.83
485.71	9593.86
485.89	9729.61
486.07	9530.66
486.25	9640.67
486.43	9886.42
486.61	9991.75
486.78	9912.17
486.96	9935.57
487.14	10303.04
487.32	10310.06
487.50	10258.57
487.68	10265.59
487.85	10516.03
488.03	10509.01
488.21	10747.74
488.39	10670.50
488.57	10707.95
488.75	10595.61
488.92	10871.79
489.10	10949.03
489.28	10881.15
489.46	11267.34
489.64	11269.68
489.81	11569.27
489.99	11410.11
490.17	11552.88
490.35	11639.48
490.53	11557.57
490.70	11887.58
490.88	11698.00
491.06	12056.10
491.24	11892.26
491.41	12037.38
491.59	11925.03
491.77	12032.69
491.95	12294.83
492.13	12283.13
492.30	12528.89
492.48	12575.70
492.66	12465.69
492.84	12388.46
493.01	12762.94
493.19	12739.54
493.37	12636.55
493.54	12933.80
493.72	12816.77
493.90	12968.91
494.08	13071.89
494.25	13109.34
494.43	13425.31
494.61	13591.49
494.79	13493.19
494.96	13579.79
495.14	13420.63
495.32	13437.02
495.49	13687.45
495.67	13914.48
495.85	13930.87
496.02	14003.43
496.20	13790.44
496.38	14216.41
496.55	14277.27
496.73	14513.66
496.91	14132.15
497.09	14499.62
497.26	14471.53
497.44	14363.87
497.62	14429.40
497.79	14951.34
497.97	14675.16
498.14	15122.20
498.32	15000.49
498.50	14792.19
498.67	15185.40
498.85	14970.07
499.03	14953.68
499.20	15028.58
499.38	15372.64
499.56	15337.53
499.73	15108.16
499.91	15393.70
500.08	15513.07
500.26	15419.45
500.44	15529.45
500.61	15847.77
500.79	15758.83
500.97	15758.83
501.14	15957.77
501.32	15948.41
501.49	16123.95
501.67	16177.78
501.84	16100.55
502.02	15974.16
502.20	16395.45
502.37	16294.81
502.55	16645.89
502.72	16428.22
502.90	16381.41
503.07	16479.71
503.25	16512.48
503.43	16446.94
503.60	16718.45
503.78	16730.15
503.95	16650.57
504.13	16819.09
504.30	16650.57
504.48	16877.60
504.65	16863.56
504.83	17006.33
505.01	17202.94
505.18	17233.36
505.36	17167.83
505.53	16985.27
505.71	17448.69
505.88	17523.59
506.06	16882.28
506.23	17193.58
506.41	17525.93
506.58	17626.57
506.76	17699.13
506.93	17846.58
507.11	17413.59
507.28	17816.16
507.46	17818.50
507.63	18059.57
507.81	17853.61
507.98	18043.19
508.16	17909.78
508.33	17944.89
508.50	18216.39
508.68	18157.88
508.85	18363.84
509.03	18523.00
509.20	18455.12
509.38	18689.18
509.55	18492.57
509.73	18768.76
509.90	18628.32
510.08	18703.22
510.25	18572.15
510.42	18647.05
510.60	18953.66
510.77	18759.39
510.95	19002.81
511.12	19066.00
511.30	18801.52
511.47	18719.60
511.64	18967.70
511.82	19058.98
511.99	19487.30
512.17	19552.84
512.34	19012.17
512.51	19321.12
512.69	19433.47
512.86	19524.75
513.04	19594.96
513.21	19658.16
513.38	19658.16
513.56	19939.02
513.73	19709.65
513.90	19847.74
514.08	19555.18
514.25	19751.78
514.43	20086.48
514.60	19992.86
514.77	20140.31
514.95	20215.21
515.12	19807.95
515.29	19939.02
515.47	20081.80
515.64	20414.15
515.81	20367.34
515.99	20453.94
516.16	20641.18
516.33	20622.46
516.51	20615.44
516.68	20299.47
516.85	20386.07
517.03	20643.52
517.20	20662.25
517.37	20706.72
517.54	20849.49
517.72	20570.97
517.89	20868.22
518.06	20980.56
518.24	20727.78
518.41	20905.66
518.58	20716.08
518.75	21123.33
518.93	21518.89
519.10	21083.55
519.27	21277.81
519.45	21518.89
519.62	21436.97
519.79	21465.05
519.96	21390.16
520.14	21521.23
520.31	21502.50
520.48	21652.30
520.65	21263.77
520.83	21535.27
521.00	21715.49
521.17	21572.72
521.34	21645.27
521.52	21766.98
521.69	21720.17
521.86	22221.05
522.03	21921.46
522.20	21905.07
522.38	22279.56
522.55	21802.09
522.72	22183.60
522.89	22272.54
523.07	22246.79
523.24	22394.25
523.41	22459.78
523.58	22040.82
523.75	22485.53
523.92	22324.03
524.10	22417.65
524.27	22506.59
524.44	22412.97
524.61	22714.90
524.78	22948.95
524.96	22333.39
525.13	22483.19
525.30	22946.61
525.47	22611.92
525.64	22934.91
525.81	22618.94
525.98	23042.57
526.16	23164.28
526.33	23192.37
526.50	23206.41
526.67	22775.75
526.84	22850.65
527.01	23007.47
527.18	23042.57
527.36	23374.93
527.53	23323.44
527.70	23323.44
527.87	23379.61
528.04	23477.91
528.21	23449.83
528.38	23529.41
528.55	23758.78
528.72	23332.80
528.89	23845.38
529.07	23578.56
529.24	23693.24
529.41	23836.02
529.58	23583.24
529.75	23686.22
529.92	23927.30
530.09	23644.09
530.26	24201.14
530.43	24264.33
530.60	23742.39
530.77	24025.60
530.94	24559.24
531.11	24201.14
531.28	24126.24
531.46	24053.69
531.63	23983.47
531.80	24367.32
531.97	24173.05
532.14	24620.10
532.31	24397.74
532.48	24474.98
532.65	24566.26
532.82	24086.45
532.99	24486.68
533.16	24350.93
533.33	24620.10
533.50	24727.76
533.67	24491.37
533.84	24849.47
534.01	24662.22
534.18	24584.99
534.35	24812.02
534.52	24737.12
534.69	24790.95
534.86	24755.85
535.03	24919.68
535.20	25025.01
535.37	25027.35
535.54	25008.62
535.71	25170.12
535.88	25223.95
536.05	24982.88
536.22	25355.02
536.38	25556.31
536.55	25284.81
536.72	25551.63
536.89	24959.47
537.06	25116.29
537.23	25589.08
537.40	25345.66
537.57	25401.83
537.74	25523.54
537.91	25301.19
538.08	25465.03
538.25	25343.32
538.42	25851.22
538.59	25605.46
538.75	25308.21
538.92	25586.74
539.09	25883.98
539.26	25975.27
539.43	25895.69
539.60	26143.78
539.77	25879.30
539.94	26040.80
540.11	25633.55
540.28	25759.94
540.44	25553.97
540.61	25497.80
540.78	25998.67
540.95	26515.93
541.12	25876.96
541.29	26085.27
541.46	26108.68
541.62	25879.30
541.79	26202.30
541.96	25827.81
542.13	26263.15
542.30	26532.31
542.47	26354.43
542.63	26349.75
542.80	26630.62
542.97	26581.46
543.14	26611.89
543.31	26457.42
543.48	26710.19
543.64	26930.20
543.81	26513.59
543.98	27019.14
544.15	26869.35
544.32	27140.85
544.48	26998.08
544.65	26831.90
544.82	27084.68
544.99	26441.03
545.16	26960.63
545.32	26539.33
545.49	27089.36
545.66	26925.52
545.83	27255.54
546.00	27122.13
546.16	27000.42
546.33	27077.66
546.50	27136.17
546.67	27030.85
546.83	27035.53
547.00	26740.62
547.17	27049.57
547.34	27225.11
547.50	27798.54
547.67	27733.01
547.84	27414.69
548.00	27274.26
548.17	27770.46
548.34	27346.82
548.51	27938.97
548.67	27725.99
548.84	27658.11
549.01	27477.89
549.18	27417.04
549.34	27630.02
549.51	27655.77
549.68	27693.22
549.84	27351.50
550.01	27594.92
550.18	27449.80
550.34	27763.43
550.51	27725.99
550.68	28046.64
550.84	27728.33
551.01	27915.57
551.18	27679.18
551.34	27913.23
551.51	27964.72
551.68	28198.77
551.84	27948.34
552.01	28142.60
552.18	28161.33
552.34	27819.61
552.51	28058.34
552.68	28065.36
552.84	28353.25
553.01	27929.61
553.18	28109.83
553.34	28098.13
553.51	28271.33
553.67	27962.38
553.84	28278.35
554.01	28474.96
554.17	28634.11
554.34	28161.33
554.51	28416.44
554.67	28549.85
554.84	28634.11
555.00	28379.00
555.17	28477.30
555.33	28856.46
555.50	28652.84
555.67	28587.30
555.83	28484.32
556.00	28769.86
556.16	28657.52
556.33	28299.42
556.50	28811.99
556.66	28549.85
556.83	28659.86
556.99	28870.51
557.16	29275.42
557.32	28669.22
557.49	28840.08
557.65	28531.13
557.82	28526.45
557.98	28797.95
558.15	28926.68
558.32	28996.90
558.48	29043.71
558.65	29109.24
558.81	28936.04
558.98	28961.79
559.14	28760.50
559.31	28943.06
559.47	28807.31
559.64	28975.83
559.80	28950.09
559.97	29095.20
560.13	29097.54
560.30	28765.18
560.46	29144.35
560.63	29221.59
560.79	29184.14
560.96	29172.44
561.12	29132.65
561.29	28912.64
561.45	29308.19
561.61	29315.21
561.78	29560.97
561.94	29411.17
562.11	29504.79
562.27	29219.25
562.44	28910.30
562.60	29041.37
562.77	29179.46
562.93	28912.64
563.10	29371.38
563.26	29549.26
563.42	29411.17
563.59	29795.02
563.75	29408.83
563.92	29837.15
564.08	29193.50
564.24	29532.88
564.41	29254.36
564.57	29420.53
564.74	29457.98
564.90	29556.28
565.07	29965.88
565.23	29481.39
565.39	29900.34
565.56	29668.63
565.72	29336.27
565.88	29434.58
566.05	29666.29
566.21	29507.13
566.38	29865.24
566.54	29624.16
566.70	30052.48
566.87	30040.78
567.03	29893.32
567.19	30047.80
567.36	30122.69
567.52	29666.29
567.68	29823.11
567.85	29736.51
568.01	29675.65
568.17	29465.00
568.34	29933.11
568.50	29879.28
568.66	29811.40
568.83	30127.38
568.99	29809.06
569.15	30326.32
569.32	30052.48
569.48	29546.92
569.64	30059.50
569.81	29706.08
569.97	29612.46
570.13	29752.89
570.30	29806.72
570.46	30242.06
570.62	30068.86
570.78	29811.40
570.95	29731.83
571.11	29958.86
571.27	29385.43
571.43	29848.85
571.60	29790.34
571.76	30450.37
571.92	30174.19
572.09	30260.79
572.25	30197.59
572.41	30431.65
572.57	29869.92
572.74	29977.58
572.90	30068.86
573.06	29778.64
573.22	30412.92
573.38	30087.59
573.55	29916.73
573.71	30267.81
573.87	30417.60
574.03	30206.95
574.20	30459.73
574.36	29982.26
574.52	30178.87
574.68	29750.55
574.84	30277.17
575.01	29984.60
575.17	29947.15
575.33	29991.62
575.49	30141.42
575.65	29898.00
575.82	29804.38
575.98	30197.59
576.14	30157.80
576.30	30075.88
576.46	30263.13
576.62	30038.44
576.79	30134.40
576.95	30064.18
577.11	30256.11
577.27	30223.34
577.43	30199.93
577.59	30377.81
577.75	30204.61
577.92	30066.52
578.08	30026.73
578.24	29771.61
578.40	30129.72
578.56	30295.89
578.72	30403.56
578.88	30426.96
579.04	30450.37
579.21	30110.99
579.37	30127.38
579.53	30174.19
579.69	30064.18
579.85	30019.71
580.01	30216.32
580.17	30125.04
580.33	30307.60
580.49	30291.21
580.65	30609.53
580.82	30480.80
580.98	30064.18
581.14	30204.61
581.30	30532.29
581.46	30565.06
581.62	30045.46
581.78	29806.72
581.94	30352.07
582.10	30387.18
582.26	30405.90
582.42	30686.76
582.58	30508.88
582.74	30457.39
582.90	30560.37
583.06	30333.34
583.22	30471.43
583.38	30321.64
583.54	30113.33
583.70	30075.88
583.86	30342.70
584.02	30377.81
584.18	30518.25
584.34	30450.37
584.50	30396.54
584.66	30410.58
584.82	30260.79
584.98	30073.54
585.14	30218.66
585.30	30621.23
585.46	30347.39
585.62	30401.22
585.78	30623.57
585.94	30000.99
586.10	30270.15
586.26	30382.49
586.42	30412.92
586.58	30618.89
586.74	30373.13
586.90	30113.33
587.06	30361.43
587.22	30749.96
587.38	30235.04
587.54	30270.15
587.70	30651.66
587.86	30448.03
588.02	30799.11
588.18	30874.01
588.34	30539.31
588.49	30558.03
588.65	30312.28
588.81	30249.08
588.97	30590.80
589.13	30497.18
589.29	30485.48
589.45	31002.74
589.61	30511.22
589.77	31105.72
589.93	30616.55
590.08	30707.83
590.24	30719.53
590.40	30668.04
590.56	30888.05
590.72	30354.41
590.88	30696.13
591.04	30759.32
591.20	30925.50
591.35	30993.37
591.51	31267.22
591.67	31189.98
591.83	31103.38
591.99	30764.00
592.15	30572.08
592.31	30916.14
592.46	30616.55
592.62	30555.69
592.78	30583.78
592.94	30490.16
593.10	30993.37
593.26	30759.32
593.41	31061.25
593.57	30632.93
593.73	30852.94
593.89	30850.60
594.05	31105.72
594.20	30628.25
594.36	30806.13
594.52	30705.49
594.68	30749.96
594.84	30934.86
594.99	30522.93
595.15	30752.30
595.31	31082.31
595.47	31079.97
595.62	30988.69
595.78	31021.46
595.94	30749.96
596.10	30890.39
596.25	30794.43
596.41	30881.03
596.57	30457.39
596.73	31082.31
596.88	31040.18
597.04	30693.79
597.20	31674.47
597.36	30721.87
597.51	30927.84
597.67	30923.16
597.83	31070.61
597.99	30799.11
598.14	30796.77
598.30	30948.90
598.46	30986.35
598.61	30855.28
598.77	31023.80
598.93	30813.15
599.09	31227.43
599.24	31447.44
599.40	30972.31
599.56	31143.17
599.71	30897.41
599.87	31283.60
600.03	31009.76
600.18	31075.29
600.34	30677.40
600.50	30731.23
600.65	31126.78
600.81	31037.84
600.97	31157.21
601.12	31269.56
601.28	31257.85
601.44	31250.83
601.59	31571.49
601.75	31089.34
601.91	31028.48
602.06	30642.29
602.22	30981.67
602.37	31058.91
602.53	31082.31
602.69	31098.70
602.84	31068.27
603.00	30710.17
603.16	31112.74
603.31	31175.94
603.47	31229.77
603.62	31187.64
603.78	31030.82
603.94	30651.66
604.09	30869.33
604.25	30820.17
604.40	31002.74
604.56	30878.69
604.71	30834.22
604.87	31438.08
605.03	31077.63
605.18	31124.44
605.34	31044.87
605.49	31101.04
605.65	31026.14
605.80	30988.69
605.96	31044.87
606.12	30829.54
606.27	30944.22
606.43	31257.85
606.58	31014.44
606.74	30817.83
606.89	30890.39
607.05	31019.12
607.20	30682.08
607.36	30735.92
607.51	31234.45
607.67	30944.22
607.82	30771.02
607.98	30693.79
608.13	31260.20
608.29	30974.65
608.44	30675.06
608.60	30595.48
608.75	31054.23
608.91	31058.91
609.06	30691.44
609.22	31119.76
609.37	30581.44
609.53	30522.93
609.68	30866.98
609.84	30979.33
609.99	30813.15
610.15	30462.07
610.30	30398.88
610.46	30551.01
610.61	30955.93
610.76	30462.07
610.92	30637.61
611.07	30874.01
611.23	30429.30
611.38	30792.09
611.54	30607.19
611.69	30195.25
611.84	30384.83
612.00	30464.41
612.15	30419.94
612.31	30714.85
612.46	30546.33
612.62	30876.35
612.77	30824.86
612.92	31023.80
613.08	30302.92
613.23	30703.15
613.39	30937.20
613.54	30616.55
613.69	30632.93
613.85	30384.83
614.00	30281.85
614.15	30539.31
614.31	30436.33
614.46	30478.46
614.62	30508.88
614.77	30529.95
614.92	30499.52
615.08	30401.22
615.23	30300.58
615.38	30473.78
615.54	30490.16
615.69	30216.32
615.84	30321.64
616.00	30174.19
616.15	30277.17
616.30	30335.68
616.46	30391.86
616.61	30118.01
616.76	30279.51
616.92	30316.96
617.07	30033.75
617.22	30015.03
617.37	29982.26
617.53	30150.78
617.68	29771.61
617.83	30052.48
617.99	30305.26
618.14	30054.82
618.29	29979.92
618.45	30281.85
618.60	30092.27
618.75	30216.32
618.90	30157.80
619.06	30008.01
619.21	29890.98
619.36	30078.22
619.51	29755.23
619.67	30029.07
619.82	29668.63
619.97	29514.16
620.12	29876.94
620.28	29631.18
620.43	30242.06
620.58	30146.10
620.73	30031.41
620.89	29895.66
621.04	30171.85
621.19	30096.95
621.34	29766.93
621.49	29340.96
621.65	29692.04
621.80	29797.36
621.95	29642.88
622.10	29617.14
622.25	29350.32
622.41	29565.65
622.56	29755.23
622.71	29755.23
622.86	29610.12
623.01	29860.55
623.16	29071.79
623.32	29514.16
623.47	29420.53
623.62	29591.39
623.77	29280.10
623.92	29287.12
624.07	29390.11
624.23	29729.48
624.38	29708.42
624.53	29476.71
624.68	29336.27
624.83	29532.88
624.98	29525.86
625.13	29312.87
625.29	29301.17
625.44	29373.72
625.59	29514.16
625.74	29125.63
625.89	29046.05
626.04	29202.86
626.19	29090.52
626.34	29184.14
626.49	28987.53
626.65	28922.00
626.80	29392.45
626.95	28938.38
627.10	29092.86
627.25	29233.29
627.40	28957.11
627.55	28959.45
627.70	29186.48
627.85	29174.78
628.00	28727.74
628.15	28922.00
628.30	28790.93
628.45	29132.65
628.60	28748.80
628.76	28992.22
628.91	29172.44
629.06	29303.51
629.21	29186.48
629.36	28760.50
629.51	28620.07
629.66	28629.43
629.81	28856.46
629.96	28711.35
630.11	28285.37
630.26	28744.12
630.41	28552.20
630.56	28643.48
630.71	28690.29
630.86	28414.10
631.01	28774.55
631.16	28542.83
631.31	28905.62
631.46	28327.50
631.61	28774.55
631.76	28484.32
631.91	28285.37
632.06	28577.94
632.21	28479.64
632.36	28575.60
632.51	27992.81
632.66	28357.93
632.81	28444.53
632.96	28493.68
633.10	28671.56
633.25	28622.41
633.40	28552.20
633.55	28425.81
633.70	28123.88
633.85	27962.38
634.00	28107.49
634.15	28058.34
634.30	27908.55
634.45	27943.66
634.60	28240.90
634.75	28084.09
634.90	28140.26
635.05	28540.49
635.19	28130.90
635.34	28381.34
635.49	28243.24
635.64	28173.03
635.79	28205.80
635.94	28184.73
636.09	27924.93
636.24	27852.38
636.39	27908.55
636.53	27826.63
636.68	27969.40
636.83	28154.30
636.98	28158.99
637.13	27744.71
637.28	28123.88
637.43	28346.23
637.57	27754.07
637.72	27990.47
637.87	27782.16
638.02	28271.33
638.17	27948.34
638.32	27658.11
638.46	27618.32
638.61	27534.06
638.76	27367.88
638.91	27555.13
639.06	27576.19
639.20	27978.76
639.35	28020.89
639.50	27821.95
639.65	28233.88
639.80	28030.26
639.94	27623.00
640.09	27875.78
640.24	27538.74
640.39	27356.18
640.54	27644.07
640.68	27445.12
640.83	27510.66
640.98	27538.74
641.13	27168.94
641.27	27754.07
641.42	27491.93
641.57	27489.59
641.72	27721.30
641.86	27522.36
642.01	27065.96
642.16	27300.01
642.31	27138.51
642.45	27349.16
642.60	26768.71
642.75	26962.97
642.90	27061.27
643.04	26958.29
643.19	27159.58
643.34	26897.44
643.48	27260.22
643.63	27304.69
643.78	27208.73
643.93	26897.44
644.07	27585.55
644.22	27337.46
644.37	26920.84
644.51	27033.19
644.66	27091.70
644.81	26775.73
644.95	26782.75
645.10	27049.57
645.25	26827.22
645.39	27185.32
645.54	26918.50
645.69	26874.03
645.83	27075.32
645.98	26869.35
646.13	27054.25
646.27	27124.47
646.42	27246.18
646.57	26759.34
646.71	27227.45
646.86	27005.10
647.00	26892.76
647.15	26419.97
647.30	27065.96
647.44	26576.78
647.59	26864.67
647.74	26340.39
647.88	26590.83
648.03	26691.47
648.17	26988.72
648.32	26675.09
648.47	26874.03
648.61	26874.03
648.76	26553.38
648.90	26745.30
649.05	26480.82
649.20	26658.70
649.34	26616.57
649.49	26359.11
649.63	26012.71
649.78	26382.52
649.92	26565.08
650.07	26511.25
650.21	26258.47
650.36	26501.89
650.51	26389.54
650.65	26387.20
650.80	26651.68
650.94	26316.98
651.09	26361.45
651.23	26363.79
651.38	26506.57
651.52	25993.99
651.67	26349.75
651.81	26277.19
651.96	26197.62
652.10	26354.43
652.25	26473.80
652.39	26197.62
652.54	26373.16
652.68	26457.42
652.83	26462.10
652.97	26307.62
653.12	26244.43
653.26	25858.24
653.41	26281.88
653.55	25820.79
653.70	25954.20
653.84	26148.46
653.99	26141.44
654.13	25947.18
654.27	26108.68
654.42	25916.75
654.56	25914.41
654.71	26080.59
654.85	25916.75
655.00	25802.07
655.14	26026.76
655.29	26431.67
655.43	25907.39
655.57	25792.70
655.72	25783.34
655.86	25883.98
656.01	25694.40
656.15	25638.23
656.30	25809.09
656.44	25582.06
656.58	25434.60
656.73	25710.78
656.87	25727.17
657.01	25844.20
657.16	25661.63
657.30	25991.65
657.45	25642.91
657.59	25429.92
657.73	25504.82
657.88	25673.34
658.02	25228.63
658.16	25605.46
658.31	25415.88
658.45	25357.36
658.60	25340.98
658.74	25521.20
658.88	25340.98
659.03	25322.26
659.17	25607.80
659.31	25415.88
659.46	25420.56
659.60	25521.20
659.74	25467.37
659.89	25291.83
660.03	24924.36
660.17	24964.15
660.32	25116.29
660.46	25137.35
660.60	24814.36
660.74	25085.86
660.89	24872.87
661.03	24694.99
661.17	24938.41
661.32	24926.71
661.46	24884.58
661.60	24739.46
661.74	24882.24
661.89	24943.09
662.03	24954.79
662.17	24563.92
662.31	24638.82
662.46	24711.38
662.60	24650.52
662.74	24486.68
662.88	24299.44
663.03	24292.42
663.17	24542.86
663.31	24264.33
663.45	24657.54
663.60	24280.72
663.74	24114.54
663.88	24608.39
664.02	24425.83
664.17	24362.64
664.31	24276.04
664.45	24353.27
664.59	24140.29
664.73	24224.54
664.88	24231.57
665.02	24142.63
665.16	24285.40
665.30	23751.76
665.44	23908.57
665.59	23864.10
665.73	23648.77
665.87	23613.66
666.01	23985.81
666.15	23892.19
666.29	23868.78
666.44	23625.37
666.58	23810.27
666.72	23618.35
666.86	23578.56
667.00	24046.66
667.14	23498.98
667.28	23686.22
667.43	23309.40
667.57	23735.37
667.71	23267.27
667.85	23290.67
667.99	23339.82
668.13	23302.37
668.27	23257.90
668.41	23370.25
668.56	23239.18
668.70	23323.44
668.84	23173.64
668.98	23222.80
669.12	23573.88
669.26	23260.24
669.40	23330.46
669.54	23232.16
669.68	22918.53
669.82	22668.09
669.96	23012.15
670.10	22799.16
670.25	22724.26
670.39	22602.55
670.53	23005.13
670.67	22583.83
670.81	22735.96
670.95	23073.00
671.09	22567.45
671.23	22782.77
671.37	22630.64
671.51	23019.17
671.65	22431.69
671.79	22478.50
671.93	22614.26
672.07	22689.15
672.21	22270.20
672.35	22047.85
672.49	22104.02
672.63	22148.49
672.77	22122.74
672.91	21862.94
673.05	22235.09
673.19	21764.64
673.33	21745.92
673.47	21645.27
673.61	22001.04
673.75	21741.24
673.89	21970.61
674.03	21701.45
674.17	21846.56
674.31	21830.18
674.45	21642.93
674.59	21551.65
674.73	21483.78
674.87	21603.14
675.01	21383.13
675.15	21254.40
675.29	21542.29
675.43	21432.29
675.56	21301.22
675.70	21397.18
675.84	21451.01
675.98	20577.99
676.12	21453.35
676.26	21371.43
676.40	21408.88
676.54	21120.99
676.68	21275.47
676.82	20343.94
676.96	20697.36
677.10	20802.68
677.23	20685.65
677.37	20760.55
677.51	20479.69
677.65	20589.69
677.79	20421.17
677.93	20617.78
678.07	20269.04
678.21	20343.94
678.34	20243.29
678.48	20072.43
678.62	19932.00
678.76	19976.47
678.90	20163.72
679.04	20100.52
679.18	20290.10
679.31	19714.33
679.45	19850.08
679.59	19548.15
679.73	19733.06
679.87	19496.66
680.00	19396.02
680.14	19524.75
680.28	19449.85
680.42	19363.25
680.56	19522.41
680.70	19314.10
680.83	19337.51
680.97	19190.05
681.11	19386.66
681.25	19094.09
681.39	19250.91
681.52	18862.38
681.66	19126.86
681.80	18633.00
681.94	18998.13
682.07	18871.74
682.21	18604.92
682.35	18513.64
682.49	18733.65
682.62	18614.28
682.76	18473.85
682.90	18623.64
683.04	18562.79
683.17	18494.91
683.31	18506.62
683.45	18651.73
683.59	18097.02
683.72	17919.14
683.86	17921.48
684.00	18265.54
684.13	18218.73
684.27	18010.42
684.41	17762.33
684.55	17757.64
684.68	17165.49
684.82	17238.05
684.96	17500.19
685.09	17488.48
685.23	17535.29
685.37	17446.35
685.50	17312.94
685.64	17310.60
685.78	17394.86
685.91	17364.43
686.05	17387.84
686.19	17123.36
686.32	17048.46
686.46	17011.01
686.60	16858.88
686.73	16666.95
686.87	16802.71
687.01	16730.15
687.14	16673.98
687.28	16463.33
687.42	16514.82
687.55	16535.88
687.69	16517.16
687.82	16311.19
687.96	16278.43
688.10	16685.68
688.23	16475.03
688.37	16559.29
688.50	16208.21
688.64	16219.91
688.78	16287.79
688.91	16224.59
689.05	16053.73
689.18	16091.18
689.32	15431.15
689.46	15733.08
689.59	15754.15
689.73	15531.80
689.86	15707.34
690.00	15503.71
690.13	15351.57
690.27	15559.88
690.41	15545.84
690.54	15438.17
690.68	15169.01
690.81	15316.47
690.95	15463.92
691.08	15463.92
691.22	15311.78
691.35	15133.90
691.49	15143.27
691.62	15267.31
691.76	14998.15
691.89	14965.39
692.03	14792.19
692.16	14562.81
692.30	14553.45
692.43	14504.30
692.57	14546.43
692.70	14689.20
692.84	14602.60
692.97	14518.34
693.11	14382.59
693.24	14310.04
693.38	14073.64
693.51	14361.53
693.65	14176.62
693.78	14251.52
693.92	13968.32
694.05	14141.52
694.19	14143.86
694.32	13722.56
694.45	13893.42
694.59	13764.69
694.72	13713.20
694.86	13570.43
694.99	13294.24
695.13	13504.89
695.26	13448.72
695.39	13415.95
695.53	13448.72
695.66	13483.83
695.80	13511.91
695.93	13308.29
696.07	13303.60
696.20	13266.16
696.33	13174.88
696.47	13242.75
696.60	12973.59
696.73	13090.62
696.87	13181.90
697.00	12943.16
697.14	12896.35
697.27	12879.97
697.40	12669.32
697.54	12498.46
697.67	12346.33
697.80	12414.20
697.94	12435.27
698.07	12381.43
698.21	12554.63
698.34	12329.94
698.47	12379.09
698.61	12187.17
698.74	12287.81
698.87	12404.84
699.01	12194.19
699.14	12175.47
699.27	11882.90
699.40	12039.72
699.54	11740.13
699.67	11815.02
699.80	11805.66
699.94	11758.85
700.07	11761.19
700.20	11321.17
700.34	11695.66
700.47	11375.00
700.60	11456.92
700.73	11658.21
700.87	11321.17
701.00	11454.58
701.13	11386.71
701.26	11321.17
701.40	11290.74
701.53	11470.97
701.66	11363.30
701.79	11159.67
701.93	11007.54
702.06	10951.37
702.19	10918.60
702.32	11098.82
702.46	10810.93
702.59	10686.89
702.72	10675.18
702.85	10778.17
702.99	10520.71
703.12	10551.14
703.25	10396.66
703.38	10590.92
703.51	10333.47
703.65	10434.11
703.78	10340.49
703.91	10429.43
704.04	10399.00
704.17	10665.82
704.31	10291.34
704.44	10293.68
704.57	10274.95
704.70	10033.88
704.83	9944.94
704.96	9825.57
705.10	9900.47
705.23	9776.42
>>>>>End Processed Spectral Data<<<<<
