SpectraSuite Data File
++++++++++++++++++++++++++++++++++++
Date: Fri Oct 18 13:58:01 GMT-05:00 2013
User: bianchi
Dark Spectrum Present: No
Reference Spectrum Present: No
Number of Sampled Component Spectra: 1
Spectrometers: USB2+H05261
Integration Time (usec): 50000 (USB2+H05261)
Spectra Averaged: 1 (USB2+H05261)
Boxcar Smoothing: 0 (USB2+H05261)
Correct for Electrical Dark: No (USB2+H05261)
Strobe/Lamp Enabled: No (USB2+H05261)
Correct for Detector Non-linearity: No (USB2+H05261)
Correct for Stray Light: No (USB2+H05261)
Number of Pixels in Processed Spectrum: 2048
>>>>>Begin Processed Spectral Data<<<<<
365.73	0.00
365.92	0.00
366.12	0.00
366.32	0.00
366.52	0.00
366.72	0.00
366.91	0.00
367.11	0.00
367.31	0.00
367.51	0.00
367.70	0.00
367.90	0.00
368.10	0.00
368.30	0.00
368.49	0.00
368.69	0.00
368.89	0.00
369.09	0.00
369.28	0.00
369.48	0.00
369.68	0.00
369.87	0.00
370.07	0.00
370.27	0.00
370.47	0.00
370.66	67.88
370.86	142.77
371.06	126.39
371.25	117.03
371.45	74.90
371.65	138.09
371.84	159.16
372.04	142.77
372.24	128.73
372.44	196.60
372.63	243.42
372.83	205.97
373.03	175.54
373.22	191.92
373.42	156.82
373.62	196.60
373.81	187.24
374.01	285.55
374.21	280.86
374.40	257.46
374.60	257.46
374.79	330.02
374.99	222.35
375.19	283.20
375.38	264.48
375.58	311.29
375.78	285.55
375.97	292.57
376.17	243.42
376.37	227.03
376.56	241.08
376.76	313.63
376.95	196.60
377.15	283.20
377.35	243.42
377.54	269.16
377.74	243.42
377.93	266.82
378.13	276.18
378.33	243.42
378.52	304.27
378.72	269.16
378.91	290.23
379.11	292.57
379.31	243.42
379.50	330.02
379.70	365.12
379.89	341.72
380.09	355.76
380.28	301.93
380.48	250.44
380.68	334.70
380.87	285.55
381.07	290.23
381.26	330.02
381.46	330.02
381.65	346.40
381.85	264.48
382.04	344.06
382.24	287.89
382.43	369.80
382.63	325.33
382.83	346.40
383.02	355.76
383.22	416.62
383.41	337.04
383.61	313.63
383.80	339.38
384.00	325.33
384.19	348.74
384.39	318.31
384.58	341.72
384.78	414.27
384.97	283.20
385.17	334.70
385.36	421.30
385.56	454.06
385.75	320.65
385.95	353.42
386.14	383.85
386.34	409.59
386.53	372.15
386.72	388.53
386.92	461.09
387.11	442.36
387.31	404.91
387.50	353.42
387.70	444.70
387.89	379.17
388.09	447.04
388.28	440.02
388.48	442.36
388.67	514.92
388.86	400.23
389.06	435.34
389.25	416.62
389.45	433.00
389.64	496.19
389.84	496.19
390.03	479.81
390.22	486.83
390.42	564.07
390.61	526.62
390.81	465.77
391.00	533.64
391.19	500.87
391.39	550.03
391.58	524.28
391.78	456.40
391.97	538.32
392.16	486.83
392.36	596.84
392.55	491.51
392.75	489.17
392.94	571.09
393.13	585.13
393.33	517.26
393.52	557.05
393.71	662.37
393.91	582.79
394.10	559.39
394.29	540.66
394.49	561.73
394.68	594.50
394.88	573.43
395.07	636.63
395.26	624.92
395.46	641.31
395.65	657.69
395.84	615.56
396.04	585.13
396.23	620.24
396.42	620.24
396.62	702.16
396.81	706.84
397.00	631.94
397.19	573.43
397.39	669.39
397.58	697.48
397.77	709.18
397.97	660.03
398.16	697.48
398.35	706.84
398.55	627.26
398.74	655.35
398.93	716.20
399.12	739.61
399.32	767.70
399.51	788.76
399.70	758.33
399.90	751.31
400.09	816.85
400.28	786.42
400.47	802.80
400.67	821.53
400.86	720.88
401.05	884.72
401.24	854.30
401.44	805.14
401.63	765.36
401.82	898.77
402.01	851.96
402.21	826.21
402.40	774.72
402.59	833.23
402.78	851.96
402.97	849.61
403.17	884.72
403.36	856.64
403.55	828.55
403.74	856.64
403.93	809.83
404.13	882.38
404.32	990.05
404.51	950.26
404.70	990.05
404.89	903.45
405.09	896.43
405.28	1018.13
405.47	933.87
405.66	997.07
405.85	1022.81
406.05	983.02
406.24	1036.86
406.43	954.94
406.62	973.66
406.81	1004.09
407.00	1018.13
407.20	1053.24
407.39	1086.01
407.58	1057.92
407.77	1011.11
407.96	1100.05
408.15	1160.91
408.34	1088.35
408.54	1032.18
408.73	1167.93
408.92	1179.63
409.11	1050.90
409.30	1121.12
409.49	1163.25
409.68	1137.50
409.87	1191.33
410.07	1139.84
410.26	1224.10
410.45	1231.12
410.64	1172.61
410.83	1252.19
411.02	1128.14
411.21	1263.89
411.40	1289.64
411.59	1313.04
411.78	1334.11
411.98	1238.14
412.17	1188.99
412.36	1212.40
412.55	1336.45
412.74	1336.45
412.93	1338.79
413.12	1327.08
413.31	1427.73
413.50	1439.43
413.69	1366.87
413.88	1504.96
414.07	1369.21
414.26	1430.07
414.45	1476.88
414.64	1474.54
414.83	1561.14
415.02	1544.75
415.22	1504.96
415.41	1530.71
415.60	1511.99
415.79	1575.18
415.98	1701.57
416.17	1526.03
416.36	1584.54
416.55	1659.44
416.74	1715.61
416.93	1753.06
417.12	1783.49
417.31	1706.25
417.50	1659.44
417.69	1739.02
417.88	1764.76
418.07	1640.72
418.26	1839.66
418.45	1783.49
418.64	1818.60
418.83	1762.42
419.02	1724.97
419.21	1830.30
419.39	1820.94
419.58	1799.87
419.77	1746.04
419.96	1865.41
420.15	1860.73
420.34	1898.17
420.53	1797.53
420.72	1891.15
420.91	1898.17
421.10	1844.34
421.29	2099.46
421.48	1902.86
421.67	1952.01
421.86	1851.36
422.05	1900.52
422.24	1930.94
422.43	2005.84
422.61	1996.48
422.80	2064.35
422.99	1989.46
423.18	2059.67
423.37	1994.14
423.56	2019.88
423.75	1944.99
423.94	1975.41
424.13	1916.90
424.32	1909.88
424.50	2062.01
424.69	2122.87
424.88	1980.09
425.07	2115.84
425.26	2050.31
425.45	2059.67
425.64	2010.52
425.83	2015.20
426.01	2106.48
426.20	2003.50
426.39	2139.25
426.58	2097.12
426.77	2136.91
426.96	2057.33
427.15	2073.71
427.33	2036.27
427.52	2127.55
427.71	2092.44
427.90	2237.55
428.09	2134.57
428.28	2099.46
428.46	2181.38
428.65	2167.34
428.84	2291.38
429.03	2349.90
429.22	2101.80
429.40	2249.25
429.59	2275.00
429.78	2181.38
429.97	2197.76
430.16	2207.13
430.34	2260.96
430.53	2392.03
430.72	2361.60
430.91	2352.24
431.10	2349.90
431.28	2317.13
431.47	2363.94
431.66	2502.03
431.85	2471.61
432.03	2492.67
432.22	2445.86
432.41	2438.84
432.60	2487.99
432.79	2478.63
432.97	2410.75
433.16	2492.67
433.35	2466.92
433.54	2502.03
433.72	2532.46
433.91	2420.11
434.10	2553.52
434.28	2588.63
434.47	2466.92
434.66	2558.21
434.85	2658.85
435.03	2551.18
435.22	2541.82
435.41	2717.36
435.59	2633.10
435.78	2609.70
435.97	2757.15
436.16	2691.62
436.34	2715.02
436.53	2698.64
436.72	2771.19
436.90	2562.89
437.09	2708.00
437.28	2619.06
437.46	2808.64
437.65	2778.22
437.84	2803.96
438.02	2808.64
438.21	2862.48
438.40	2862.48
438.58	2972.48
438.77	2986.52
438.96	2890.56
439.14	2899.92
439.33	3016.95
439.52	3000.57
439.70	2949.08
439.89	2988.86
440.08	3141.00
440.26	3148.02
440.45	3173.77
440.63	3241.64
440.82	3131.64
441.01	3236.96
441.19	3234.62
441.38	3082.49
441.57	3218.24
441.75	3236.96
441.94	3267.39
442.12	3243.98
442.31	3150.36
442.50	3290.79
442.68	3316.54
442.87	3346.97
443.05	3368.03
443.24	3447.61
443.43	3379.73
443.61	3353.99
443.80	3445.27
443.98	3281.43
444.17	3124.62
444.35	3480.38
444.54	3471.01
444.73	3433.57
444.91	3382.07
445.10	3368.03
445.28	3482.72
445.47	3503.78
445.65	3564.64
445.84	3627.83
446.02	3648.90
446.21	3578.68
446.39	3466.33
446.58	3522.51
446.77	3442.93
446.95	3517.83
447.14	3459.31
447.32	3536.55
447.51	3627.83
447.69	3414.84
447.88	3583.36
448.06	3463.99
448.25	3442.93
448.43	3543.57
448.62	3536.55
448.80	3564.64
448.99	3688.68
449.17	3595.06
449.36	3566.98
449.54	3735.50
449.73	3728.47
449.91	3885.29
450.10	3779.97
450.28	3751.88
450.46	3786.99
450.65	3843.16
450.83	3665.28
451.02	3735.50
451.20	3918.06
451.39	3756.56
451.57	3686.34
451.76	3709.75
451.94	3735.50
452.13	3953.16
452.31	3798.69
452.49	3899.33
452.68	3960.19
452.86	3908.69
453.05	3866.56
453.23	3913.38
453.42	3843.16
453.60	3819.75
453.78	3932.10
453.97	3992.95
454.15	4067.85
454.34	3995.29
454.52	3995.29
454.70	4100.62
454.89	4072.53
455.07	4149.77
455.26	4051.47
455.44	4273.82
455.62	4138.07
455.81	4042.11
455.99	4154.45
456.17	4126.36
456.36	4131.05
456.54	4182.54
456.73	4194.24
456.91	4444.68
457.09	4407.23
457.28	4346.37
457.46	4374.46
457.64	4404.89
457.83	4388.50
458.01	4360.42
458.19	4608.51
458.38	4386.16
458.56	4578.09
458.74	4617.88
458.93	4456.38
459.11	4571.07
459.29	4475.10
459.48	4596.81
459.66	4376.80
459.84	4528.94
460.03	4608.51
460.21	4585.11
460.39	4557.02
460.57	4596.81
460.76	4681.07
460.94	4564.04
461.12	4486.81
461.31	4606.17
461.49	4540.64
461.67	4718.52
461.85	4713.84
462.04	4753.63
462.22	5104.71
462.40	4936.19
462.59	4781.71
462.77	4678.73
462.95	4762.99
463.13	4833.21
463.32	4798.10
463.50	4973.64
463.68	4915.12
463.86	4877.68
464.05	4847.25
464.23	4889.38
464.41	4772.35
464.59	4683.41
464.78	4954.91
464.96	5046.20
465.14	5015.77
465.32	5104.71
465.50	4961.94
465.69	4971.30
465.87	4957.25
466.05	5053.22
466.23	4992.36
466.41	5046.20
466.60	5085.98
466.78	4985.34
466.96	5078.96
467.14	5006.41
467.32	4985.34
467.51	5238.12
467.69	5027.47
467.87	5287.27
468.05	5172.58
468.23	5184.29
468.41	5170.24
468.60	5170.24
468.78	5254.50
468.96	5149.18
469.14	5392.59
469.32	5275.57
469.50	5231.10
469.69	5416.00
469.87	5535.37
470.05	5425.36
470.23	5600.90
470.41	5446.43
470.59	5432.38
470.77	5465.15
470.95	5682.82
471.14	5603.24
471.32	5717.93
471.50	5741.33
471.68	5647.71
471.86	5727.29
472.04	5561.11
472.22	5797.51
472.40	5577.50
472.58	5724.95
472.77	5841.98
472.95	5746.02
473.13	5956.66
473.31	5893.47
473.49	5898.15
473.67	6043.26
473.85	5785.80
474.03	6036.24
474.21	5942.62
474.39	5947.30
474.57	5989.43
474.75	6134.54
474.93	6200.08
475.12	6188.38
475.30	6314.77
475.48	6342.85
475.66	6305.40
475.84	6403.71
476.02	6356.90
476.20	6375.62
476.38	6705.63
476.56	6604.99
476.74	6668.19
476.92	6581.59
477.10	6593.29
477.28	6719.68
477.46	6647.12
477.64	6792.23
477.82	6829.68
478.00	7129.27
478.18	6920.96
478.36	7026.29
478.54	7157.36
478.72	7122.25
478.90	7222.89
479.08	7269.70
479.26	7255.66
479.44	7428.86
479.62	7297.79
479.80	7478.01
479.98	7515.46
480.16	7693.34
480.34	7641.85
480.52	7653.55
480.70	7850.16
480.88	7466.31
481.06	7798.66
481.24	7714.41
481.41	7918.03
481.59	8009.31
481.77	8044.42
481.95	8217.62
482.13	8182.51
482.31	8273.79
482.49	8124.00
482.67	8341.67
482.85	8468.06
483.03	8479.76
483.21	8758.28
483.39	8517.21
483.57	8636.58
483.74	8634.24
483.92	8812.12
484.10	8730.20
484.28	8929.14
484.46	9125.75
484.64	9268.52
484.82	8940.85
485.00	9217.03
485.18	9305.97
485.35	9497.89
485.53	9530.66
485.71	9362.14
485.89	9823.23
486.07	9680.46
486.25	9495.55
486.43	9722.59
486.61	9788.12
486.78	9958.98
486.96	10008.13
487.14	10164.95
487.32	10164.95
487.50	10235.16
487.68	10211.76
487.85	10342.83
488.03	10471.56
488.21	10803.91
488.39	10817.96
488.57	10773.49
488.75	10839.02
488.92	11094.14
489.10	10979.45
489.28	11070.73
489.46	11061.37
489.64	11199.46
489.81	11316.49
489.99	11389.05
490.17	11477.99
490.35	11492.03
490.53	11822.05
490.70	11672.25
490.88	11721.40
491.06	11913.33
491.24	11772.89
491.41	12070.14
491.59	12248.02
491.77	12035.03
491.95	12262.07
492.13	12105.25
492.30	12182.49
492.48	12456.33
492.66	12336.96
492.84	12435.27
493.01	12791.03
493.19	12699.75
493.37	13013.38
493.54	12769.96
493.72	12809.75
493.90	12908.05
494.08	13282.54
494.25	13177.22
494.43	13287.22
494.61	13383.18
494.79	13439.36
494.96	13392.55
495.14	13324.67
495.32	13530.64
495.49	13703.84
495.67	13631.28
495.85	13834.91
496.02	14047.90
496.20	14097.05
496.38	14097.05
496.55	14005.77
496.73	14328.76
496.91	14391.95
497.09	14401.32
497.26	14380.25
497.44	14401.32
497.62	14415.36
497.79	14508.98
497.97	14541.75
498.14	14789.85
498.32	14883.47
498.50	14953.68
498.67	15232.21
498.85	14883.47
499.03	15002.83
499.20	15019.22
499.38	15222.84
499.56	15302.42
499.73	15559.88
499.91	15353.91
500.08	15742.44
500.26	15386.68
500.44	15503.71
500.61	15712.02
500.79	15885.22
500.97	15580.95
501.14	16095.86
501.32	15751.81
501.49	15920.32
501.67	15927.35
501.84	16119.27
502.02	15892.24
502.20	16238.64
502.37	16379.07
502.55	16348.64
502.72	16409.50
502.90	16322.90
503.07	16390.77
503.25	16669.30
503.43	16493.76
503.60	16709.08
503.78	16563.97
503.95	16669.30
504.13	16919.73
504.30	16753.55
504.48	16688.02
504.65	17003.99
504.83	16931.44
505.01	17254.43
505.18	17195.92
505.36	17685.09
505.53	17317.62
505.71	17247.41
505.88	17146.76
506.06	17149.11
506.23	17123.36
506.41	17345.71
506.58	17532.95
506.76	17305.92
506.93	17879.35
507.11	17481.46
507.28	17745.94
507.46	17914.46
507.63	17769.35
507.81	17748.28
507.98	18195.32
508.16	18082.98
508.33	18033.83
508.50	18001.06
508.68	18101.70
508.85	18127.45
509.03	18310.01
509.20	18087.66
509.38	18689.18
509.55	18569.81
509.73	18548.75
509.90	18663.43
510.08	18253.84
510.25	18611.94
510.42	18817.91
510.60	19049.62
510.77	19070.68
510.95	18750.03
511.12	18520.66
511.30	18834.29
511.47	18991.11
511.64	18981.74
511.82	19208.78
511.99	19197.07
512.17	19356.23
512.34	19061.32
512.51	19229.84
512.69	19278.99
512.86	19309.42
513.04	19389.00
513.21	19768.16
513.38	19515.39
513.56	19627.73
513.73	19751.78
513.90	19674.54
514.08	19791.57
514.25	20030.30
514.43	20170.74
514.60	19995.20
514.77	19873.49
514.95	19946.05
515.12	20210.53
515.29	19779.87
515.47	20060.73
515.64	20191.80
515.81	20360.32
515.99	20372.02
516.16	20240.95
516.33	20414.15
516.51	20699.70
516.68	20311.17
516.85	20161.37
517.03	20507.77
517.20	20739.49
517.37	20978.22
517.54	20863.54
517.72	20975.88
517.89	20683.31
518.06	20723.10
518.24	21048.44
518.41	20805.02
518.58	20814.38
518.75	21149.08
518.93	21312.92
519.10	21287.17
519.27	21043.76
519.45	21177.17
519.62	20992.26
519.79	21448.67
519.96	21263.77
520.14	21605.49
520.31	21200.57
520.48	21350.37
520.65	21628.89
520.83	21453.35
521.00	21486.12
521.17	21376.11
521.34	21479.10
521.52	21898.05
521.69	21720.17
521.86	21872.31
522.03	21785.71
522.20	22230.41
522.38	22167.21
522.55	22185.94
522.72	22106.36
522.89	22237.43
523.07	22239.77
523.24	22192.96
523.41	22335.73
523.58	22300.62
523.75	22618.94
523.92	22522.98
524.10	22317.01
524.27	22291.26
524.44	22841.29
524.61	23033.21
524.78	22647.02
524.96	22490.21
525.13	22609.58
525.30	22904.48
525.47	22494.89
525.64	22637.66
525.81	23096.41
525.98	23063.64
526.16	23087.04
526.33	23218.11
526.50	23094.07
526.67	22848.31
526.84	23014.49
527.01	23161.94
527.18	23185.35
527.36	23396.00
527.53	23360.89
527.70	23936.66
527.87	23613.66
528.04	23089.38
528.21	23641.75
528.38	23644.09
528.55	23234.50
528.72	23737.71
528.89	23452.17
529.07	23578.56
529.24	23702.61
529.41	23910.91
529.58	23716.65
529.75	23723.67
529.92	23365.57
530.09	23913.25
530.26	24198.80
530.43	23770.48
530.60	23852.40
530.77	23915.59
530.94	24091.13
531.11	23859.42
531.28	24334.55
531.46	23798.57
531.63	24070.07
531.80	24332.21
531.97	24203.48
532.14	24386.04
532.31	24016.24
532.48	24308.80
532.65	24381.36
532.82	23859.42
532.99	24456.26
533.16	24088.79
533.33	24823.72
533.50	24758.19
533.67	24931.39
533.84	24657.54
534.01	24629.46
534.18	24737.12
534.35	24992.24
534.52	24762.87
534.69	24751.17
534.86	24940.75
535.03	24570.94
535.20	24678.61
535.37	24797.98
535.54	24893.94
535.71	24875.21
535.88	24924.36
536.05	24987.56
536.22	25429.92
536.38	25291.83
536.55	25249.70
536.72	25219.27
536.89	24987.56
537.06	25270.76
537.23	25254.38
537.40	25455.67
537.57	25345.66
537.74	25469.71
537.91	25846.54
538.08	25741.21
538.25	25553.97
538.42	25839.51
538.59	25860.58
538.75	25385.45
538.92	25443.96
539.09	25713.13
539.26	25586.74
539.43	25603.12
539.60	25902.71
539.77	25635.89
539.94	25659.29
540.11	25785.68
540.28	25839.51
540.44	25680.36
540.61	25413.54
540.78	25830.15
540.95	26143.78
541.12	26092.29
541.29	25909.73
541.46	26176.55
541.62	26089.95
541.79	25942.50
541.96	26024.42
542.13	26125.06
542.30	25839.51
542.47	26419.97
542.63	26197.62
542.80	26345.07
542.97	26417.63
543.14	26878.71
543.31	26583.80
543.48	26459.76
543.64	26675.09
543.81	26902.12
543.98	26705.51
544.15	26841.26
544.32	27030.85
544.48	26820.20
544.65	26738.28
544.82	26843.60
544.99	26728.92
545.16	26836.58
545.32	26757.00
545.49	27082.34
545.66	27094.04
545.83	27136.17
546.00	27021.48
546.16	27405.33
546.33	27112.77
546.50	26939.57
546.67	27197.02
546.83	26714.87
547.00	27550.45
547.17	27110.43
547.34	27562.15
547.50	27152.55
547.67	27431.08
547.84	27405.33
548.00	27337.46
548.17	27491.93
548.34	27321.07
548.51	27442.78
548.67	27758.75
548.84	27407.67
549.01	27728.33
549.18	27349.16
549.34	27646.41
549.51	27702.58
549.68	27627.68
549.84	27140.85
550.01	27908.55
550.18	27557.47
550.34	27744.71
550.51	27985.79
550.68	27938.97
550.84	27414.69
551.01	27557.47
551.18	27988.13
551.34	27637.05
551.51	27852.38
551.68	27510.66
551.84	28519.43
552.01	27896.85
552.18	28100.47
552.34	27927.27
552.51	28170.69
552.68	28140.26
552.84	28191.75
553.01	27990.47
553.18	28006.85
553.34	28130.90
553.51	28453.89
553.67	28397.72
553.84	28793.27
554.01	28135.58
554.17	28166.01
554.34	28137.92
554.51	28112.17
554.67	28430.49
554.84	28580.28
555.00	28290.06
555.17	28325.16
555.33	28608.37
555.50	28491.34
555.67	28575.60
555.83	28332.18
556.00	28341.55
556.16	29160.73
556.33	28491.34
556.50	28608.37
556.66	28863.49
556.83	28711.35
556.99	28599.01
557.16	29015.62
557.32	28950.09
557.49	28889.23
557.65	28404.74
557.82	28561.56
557.98	28545.17
558.15	28685.61
558.32	28999.24
558.48	28613.05
558.65	28989.88
558.81	28964.13
558.98	29308.19
559.14	29179.46
559.31	28706.67
559.47	28865.83
559.64	28854.12
559.80	29067.11
559.97	29326.91
560.13	29144.35
560.30	29212.23
560.46	28811.99
560.63	29139.67
560.79	29057.75
560.96	29163.08
561.12	29001.58
561.29	29394.79
561.45	29221.59
561.61	29345.64
561.78	29525.86
561.94	29244.99
562.11	29390.11
562.27	29174.78
562.44	29331.59
562.60	29127.97
562.77	29010.94
562.93	28947.75
563.10	29582.03
563.26	29474.37
563.42	29296.49
563.59	29324.57
563.75	29457.98
563.92	29673.31
564.08	29312.87
564.24	29240.31
564.41	29296.49
564.57	29422.87
564.74	28999.24
564.90	29486.07
565.07	29715.44
565.23	29453.30
565.39	29244.99
565.56	29429.90
565.72	29715.44
565.88	29539.90
566.05	29404.15
566.21	29172.44
566.38	29270.74
566.54	29579.69
566.70	29858.21
566.87	29886.30
567.03	30012.69
567.19	29895.66
567.36	29954.18
567.52	29799.70
567.68	29582.03
567.85	29647.57
568.01	29523.52
568.17	29385.43
568.34	29647.57
568.50	29848.85
568.66	29577.35
568.83	29912.05
568.99	29528.20
569.15	29755.23
569.32	29750.55
569.48	29553.94
569.64	29883.96
569.81	29563.31
569.97	29790.34
570.13	30244.40
570.30	29809.06
570.46	30146.10
570.62	29706.08
570.78	29530.54
570.95	29493.09
571.11	29862.90
571.27	29579.69
571.43	29577.35
571.60	30101.63
571.76	29654.59
571.92	30061.84
572.09	29811.40
572.25	30092.27
572.41	30043.12
572.57	29998.65
572.74	30057.16
572.90	29516.50
573.06	29841.83
573.22	29612.46
573.38	30225.68
573.55	29830.13
573.71	29963.54
573.87	29930.77
574.03	29841.83
574.20	29898.00
574.36	29764.59
574.52	29956.52
574.68	29724.80
574.84	29912.05
575.01	29795.02
575.17	30433.99
575.33	29722.46
575.49	30155.46
575.65	30401.22
575.82	30092.27
575.98	29769.27
576.14	30204.61
576.30	29895.66
576.46	29991.62
576.62	30155.46
576.79	29820.77
576.95	29853.53
577.11	30136.74
577.27	30326.32
577.43	30384.83
577.59	30546.33
577.75	30480.80
577.92	30066.52
578.08	29816.08
578.24	29675.65
578.40	29975.24
578.56	30188.23
578.72	30143.76
578.88	30204.61
579.04	30600.16
579.21	30228.02
579.37	30064.18
579.53	30228.02
579.69	30178.87
579.85	30228.02
580.01	30094.61
580.17	30087.59
580.33	29970.56
580.49	30120.35
580.65	29998.65
580.82	30265.47
580.98	30120.35
581.14	30504.20
581.30	30199.93
581.46	30146.10
581.62	30249.08
581.78	29825.45
581.94	30361.43
582.10	30031.41
582.26	30087.59
582.42	30113.33
582.58	30244.40
582.74	30485.48
582.90	29865.24
583.06	29898.00
583.22	29942.47
583.38	30499.52
583.54	30209.29
583.70	30457.39
583.86	29965.88
584.02	30300.58
584.18	30813.15
584.34	30321.64
584.50	30206.95
584.66	30419.94
584.82	30258.45
584.98	30101.63
585.14	30412.92
585.30	29792.68
585.46	30136.74
585.62	29926.09
585.78	30213.98
585.94	30087.59
586.10	30316.96
586.26	30270.15
586.42	30558.03
586.58	30258.45
586.74	30422.28
586.90	30274.83
587.06	30197.59
587.22	30513.56
587.38	30246.74
587.54	30132.06
587.70	30490.16
587.86	30728.89
588.02	30401.22
588.18	30595.48
588.34	30895.07
588.49	30602.50
588.65	30256.11
588.81	30178.87
588.97	30604.84
589.13	30483.14
589.29	30235.04
589.45	30368.45
589.61	30803.79
589.77	30731.23
589.93	30665.70
590.08	30768.68
590.24	30721.87
590.40	30817.83
590.56	30759.32
590.72	30366.11
590.88	30401.22
591.04	30651.66
591.20	30738.26
591.35	31077.63
591.51	30911.46
591.67	30927.84
591.83	31098.70
591.99	30878.69
592.15	30787.41
592.31	31129.12
592.46	30579.10
592.62	30387.18
592.78	30764.00
592.94	30621.23
593.10	30574.42
593.26	31337.43
593.41	30881.03
593.57	30857.62
593.73	30419.94
593.89	31129.12
594.05	30988.69
594.20	30609.53
594.36	30682.08
594.52	30501.86
594.68	30855.28
594.84	30536.97
594.99	30756.98
595.15	30827.20
595.31	30986.35
595.47	31072.95
595.62	31070.61
595.78	30663.36
595.94	30904.43
596.10	31040.18
596.25	30700.81
596.41	30604.84
596.57	30562.72
596.73	30883.37
596.88	30609.53
597.04	30909.11
597.20	30778.04
597.36	31070.61
597.51	31189.98
597.67	30878.69
597.83	30930.18
597.99	30892.73
598.14	30735.92
598.30	30932.52
598.46	30792.09
598.61	30878.69
598.77	30845.92
598.93	31056.57
599.09	31447.44
599.24	31477.86
599.40	31098.70
599.56	31295.30
599.71	31117.42
599.87	30878.69
600.03	30850.60
600.18	30822.51
600.34	30712.51
600.50	30672.72
600.65	30689.10
600.81	31197.00
600.97	31344.45
601.12	31353.82
601.28	30923.16
601.44	31171.25
601.59	31037.84
601.75	31000.40
601.91	30808.47
602.06	30857.62
602.22	30637.61
602.37	30747.62
602.53	31117.42
602.69	31264.88
602.84	30885.71
603.00	31019.12
603.16	31222.75
603.31	31049.55
603.47	31068.27
603.62	30787.41
603.78	31271.90
603.94	30583.78
604.09	31019.12
604.25	31150.19
604.40	30920.82
604.56	30691.44
604.71	31271.90
604.87	31035.50
605.03	31070.61
605.18	30778.04
605.34	30773.36
605.49	31026.14
605.65	30824.86
605.80	30724.21
605.96	30574.42
606.12	30714.85
606.27	31171.25
606.43	30543.99
606.58	30721.87
606.74	31044.87
606.89	30787.41
607.05	31124.44
607.20	30925.50
607.36	31037.84
607.51	30756.98
607.67	30850.60
607.82	30724.21
607.98	30796.77
608.13	30927.84
608.29	30630.59
608.44	30436.33
608.60	30941.88
608.75	31206.36
608.91	30874.01
609.06	30742.94
609.22	31253.17
609.37	30291.21
609.53	30703.15
609.68	30724.21
609.84	30490.16
609.99	30483.14
610.15	30384.83
610.30	30270.15
610.46	30731.23
610.61	30403.56
610.76	30630.59
610.92	30576.76
611.07	30960.61
611.23	30583.78
611.38	30415.26
611.54	30485.48
611.69	30356.75
611.84	30689.10
612.00	30199.93
612.15	30527.61
612.31	30965.29
612.46	30558.03
612.62	30654.00
612.77	30057.16
612.92	30682.08
613.08	30600.16
613.23	30347.39
613.39	30597.82
613.54	30441.01
613.69	30314.62
613.85	30274.83
614.00	30221.00
614.15	30628.25
614.31	30277.17
614.46	30024.39
614.62	30249.08
614.77	30396.54
614.92	30103.97
615.08	30478.46
615.23	30342.70
615.38	30455.05
615.54	30188.23
615.69	29926.09
615.84	30106.31
616.00	30061.84
616.15	30525.27
616.30	30277.17
616.46	29832.47
616.61	29890.98
616.76	30197.59
616.92	30305.26
617.07	30284.19
617.22	29940.13
617.37	30211.64
617.53	30361.43
617.68	29539.90
617.83	29729.48
617.99	29965.88
618.14	30085.25
618.29	29972.90
618.45	29886.30
618.60	29869.92
618.75	30066.52
618.90	29830.13
619.06	30148.44
619.21	29916.73
619.36	30160.14
619.51	30003.33
619.67	29738.85
619.82	29750.55
619.97	29839.49
620.12	29926.09
620.28	29355.00
620.43	29738.85
620.58	29954.18
620.73	29958.86
620.89	29898.00
621.04	30087.59
621.19	30000.99
621.34	29539.90
621.49	29710.76
621.65	29371.38
621.80	29827.79
621.95	29418.19
622.10	29146.69
622.25	29207.55
622.41	29567.99
622.56	29668.63
622.71	29521.18
622.86	29359.68
623.01	29663.95
623.16	29645.23
623.32	29373.72
623.47	29390.11
623.62	29326.91
623.77	29191.16
623.92	29205.20
624.07	29502.45
624.23	29532.88
624.38	29291.80
624.53	29137.33
624.68	29582.03
624.83	29542.24
624.98	29134.99
625.13	29338.62
625.29	29565.65
625.44	29062.43
625.59	29362.02
625.74	29069.45
625.89	29111.58
626.04	29156.05
626.19	29200.52
626.34	29109.24
626.49	29020.30
626.65	28811.99
626.80	29090.52
626.95	29137.33
627.10	28947.75
627.25	29420.53
627.40	28882.21
627.55	28706.67
627.70	28713.69
627.85	28938.38
628.00	28594.32
628.15	28655.18
628.30	28678.58
628.45	28718.37
628.60	28580.28
628.76	28524.11
628.91	29186.48
629.06	28477.30
629.21	28755.82
629.36	28512.41
629.51	28933.70
629.66	28683.27
629.81	28486.66
629.96	28610.71
630.11	28442.19
630.26	28594.32
630.41	28704.33
630.56	28762.84
630.71	28467.94
630.86	28418.78
631.01	28802.63
631.16	28561.56
631.31	28514.75
631.46	28542.83
631.61	29120.95
631.76	28430.49
631.91	28568.58
632.06	28402.40
632.21	28357.93
632.36	28467.94
632.51	27981.10
632.66	28381.34
632.81	28304.10
632.96	28369.63
633.10	28411.76
633.25	28383.68
633.40	28507.72
633.55	28725.39
633.70	28397.72
633.85	28034.94
634.00	27896.85
634.15	28383.68
634.30	27871.10
634.45	27775.14
634.60	28025.57
634.75	28240.90
634.90	27955.36
635.05	28393.04
635.19	28254.95
635.34	28229.20
635.49	27992.81
635.64	28514.75
635.79	28023.23
635.94	28140.26
636.09	28119.20
636.24	28086.43
636.39	28163.67
636.53	28208.14
636.68	28079.41
636.83	27768.12
636.98	27971.74
637.13	27723.65
637.28	27983.44
637.43	27995.15
637.57	28229.20
637.72	27833.65
637.87	28116.86
638.02	27398.31
638.17	27868.76
638.32	27513.00
638.46	27473.21
638.61	27520.02
638.76	27742.37
638.91	27541.08
639.06	27503.64
639.20	27838.33
639.35	27728.33
639.50	27447.46
639.65	27861.74
639.80	28030.26
639.94	27611.30
640.09	27529.38
640.24	27889.82
640.39	27630.02
640.54	27281.28
640.68	27592.58
640.83	27152.55
640.98	27213.41
641.13	27122.13
641.27	27562.15
641.42	27314.05
641.57	27035.53
641.72	27517.68
641.86	27372.57
642.01	26962.97
642.16	27276.60
642.31	26934.88
642.45	26962.97
642.60	27271.92
642.75	27211.07
642.90	27021.48
643.04	26965.31
643.19	26843.60
643.34	27297.67
643.48	27016.80
643.63	27255.54
643.78	27304.69
643.93	26962.97
644.07	27513.00
644.22	27145.53
644.37	27005.10
644.51	26726.58
644.66	27138.51
644.81	26806.16
644.95	27058.93
645.10	26960.63
645.25	27152.55
645.39	27049.57
645.54	26848.29
645.69	26920.84
645.83	26939.57
645.98	26602.53
646.13	26768.71
646.27	27197.02
646.42	26799.13
646.57	26876.37
646.71	26773.39
646.86	26841.26
647.00	26670.40
647.15	26864.67
647.30	26569.76
647.44	26464.44
647.59	26693.81
647.74	26356.77
647.88	26434.01
648.03	26796.79
648.17	26405.92
648.32	26749.98
648.47	26787.43
648.61	26494.86
648.76	26583.80
648.90	26536.99
649.05	26721.90
649.20	26567.42
649.34	26668.06
649.49	26206.98
649.63	26101.65
649.78	26480.82
649.92	26340.39
650.07	26717.22
650.21	26419.97
650.36	26167.19
650.51	26284.22
650.65	26511.25
650.80	26408.26
650.94	26422.31
651.09	26614.23
651.23	25914.41
651.38	26464.44
651.52	26211.66
651.67	26206.98
651.81	26223.36
651.96	26146.12
652.10	26052.50
652.25	25802.07
652.39	26544.02
652.54	26298.26
652.68	26258.47
652.83	26546.36
652.97	26272.51
653.12	26047.82
653.26	26010.37
653.41	26099.31
653.55	26010.37
653.70	25378.43
653.84	26368.48
653.99	25879.30
654.13	26019.74
654.27	25963.56
654.42	25891.01
654.56	25898.03
654.71	25977.61
654.85	25982.29
655.00	26001.01
655.14	25881.64
655.29	25699.08
655.43	25675.68
655.57	26061.87
655.72	25570.35
655.86	25867.60
656.01	25750.57
656.15	25694.40
656.30	25603.12
656.44	25668.66
656.58	25528.22
656.73	25722.49
656.87	25741.21
657.01	25570.35
657.16	25635.89
657.30	25642.91
657.45	25565.67
657.59	25837.17
657.73	25371.41
657.88	25621.84
658.02	25191.19
658.16	25467.37
658.31	25170.12
658.45	25298.85
658.60	24989.90
658.74	25174.80
658.88	25326.94
659.03	25336.30
659.17	25071.82
659.31	25364.39
659.46	25041.39
659.60	25497.80
659.74	25507.16
659.89	25050.75
660.03	24922.02
660.17	24971.18
660.32	24931.39
660.46	24870.53
660.60	24666.91
660.74	24769.89
660.89	25020.33
661.03	24702.01
661.17	24704.35
661.32	24662.22
661.46	24950.11
661.60	24645.84
661.74	24861.17
661.89	24989.90
662.03	24767.55
662.17	24627.12
662.31	24421.15
662.46	24620.10
662.60	24538.18
662.74	24606.05
662.88	24386.04
663.03	24215.18
663.17	24460.94
663.31	24259.65
663.45	24573.28
663.60	24320.51
663.74	24084.11
663.88	24580.31
664.02	24130.92
664.17	24741.80
664.31	24081.77
664.45	24067.73
664.59	24357.96
664.73	24016.24
664.88	23655.79
665.02	23606.64
665.16	23695.58
665.30	24084.11
665.44	23927.30
665.59	23655.79
665.73	23707.29
665.87	23454.51
666.01	24098.16
666.15	24049.00
666.29	23805.59
666.44	23611.32
666.58	23908.57
666.72	23894.53
666.86	23585.58
667.00	23733.03
667.14	23660.48
667.28	23693.24
667.43	23578.56
667.57	23550.47
667.71	23304.71
667.85	23403.02
667.99	23192.37
668.13	23367.91
668.27	22970.02
668.41	23246.20
668.56	23131.51
668.70	23248.54
668.84	23248.54
668.98	23000.44
669.12	23103.43
669.26	23019.17
669.40	22888.10
669.54	23157.26
669.68	22857.67
669.82	22712.56
669.96	22789.80
670.10	22518.29
670.25	22834.27
670.39	22504.25
670.53	22731.28
670.67	22511.27
670.81	22661.07
670.95	22588.51
671.09	22614.26
671.23	22602.55
671.37	22625.96
671.51	22424.67
671.65	22417.65
671.79	22356.80
671.93	22373.18
672.07	22391.91
672.21	21991.67
672.35	21996.35
672.49	22155.51
672.63	22305.31
672.77	22087.64
672.91	22279.56
673.05	22457.44
673.19	22204.66
673.33	21942.52
673.47	21949.54
673.61	21956.57
673.75	21809.11
673.89	22043.17
674.03	21642.93
674.17	21626.55
674.31	21799.75
674.45	21811.45
674.59	21479.10
674.73	21998.70
674.87	21472.07
675.01	21095.25
675.15	21284.83
675.29	21233.34
675.43	20891.62
675.56	21268.45
675.70	21069.50
675.84	21006.31
675.98	20570.97
676.12	21074.18
676.26	21198.23
676.40	20950.14
676.54	21060.14
676.68	20999.29
676.82	20753.53
676.96	20688.00
677.10	20767.57
677.23	20629.48
677.37	20318.19
677.51	20423.51
677.65	20585.01
677.79	20240.95
677.93	19934.34
678.07	20002.22
678.21	19840.72
678.34	20056.05
678.48	19824.34
678.62	19917.96
678.76	19915.62
678.90	19887.53
679.04	19833.70
679.18	19765.82
679.31	19749.44
679.45	19510.71
679.59	19466.24
679.73	19491.98
679.87	19503.68
680.00	19538.79
680.14	19433.47
680.28	19218.14
680.42	19644.12
680.56	19454.53
680.70	19377.30
680.83	19152.60
680.97	19274.31
681.11	19030.90
681.25	18883.44
681.39	18927.91
681.52	18981.74
681.66	18827.27
681.80	18656.41
681.94	18539.38
682.07	18724.29
682.21	18614.28
682.35	18628.32
682.49	18424.70
682.62	18244.48
682.76	18120.43
682.90	18429.38
683.04	18366.18
683.17	18523.00
683.31	18342.78
683.45	18410.65
683.59	18164.90
683.72	18200.01
683.86	17923.82
684.00	17975.31
684.13	17877.01
684.27	17867.65
684.41	17750.62
684.55	17429.97
684.68	17577.42
684.82	17479.12
684.96	17497.84
685.09	17275.49
685.23	17378.48
685.37	17310.60
685.50	17638.28
685.64	17467.42
685.78	17261.45
685.91	17303.58
686.05	16985.27
686.19	17394.86
686.32	17394.86
686.46	16882.28
686.60	16713.77
686.73	16863.56
686.87	16666.95
687.01	16322.90
687.14	16847.18
687.28	16554.61
687.42	16400.13
687.55	15957.77
687.69	16379.07
687.82	16318.22
687.96	16503.12
688.10	16346.30
688.23	16198.85
688.37	16243.32
688.50	16215.23
688.64	16130.97
688.78	16215.23
688.91	16119.27
689.05	16070.12
689.18	16177.78
689.32	15492.01
689.46	15681.59
689.59	15562.22
689.73	15599.67
689.86	15655.84
690.00	15740.10
690.13	15459.24
690.27	15442.85
690.41	15700.31
690.54	15321.15
690.68	15152.63
690.81	15353.91
690.95	15314.13
691.08	15396.04
691.22	15365.62
691.35	15115.18
691.49	15105.82
691.62	15241.57
691.76	14920.92
691.89	14672.82
692.03	14703.25
692.16	14527.71
692.30	14478.55
692.43	14586.22
692.57	14544.09
692.70	14361.53
692.84	14490.26
692.97	14321.74
693.11	14471.53
693.24	14431.74
693.38	14263.22
693.51	14253.86
693.65	14005.77
693.78	14125.13
693.92	14010.45
694.05	14024.49
694.19	14033.85
694.32	14211.73
694.45	13923.85
694.59	13584.47
694.72	13832.57
694.86	13336.37
694.99	13345.73
695.13	13591.49
695.26	13652.34
695.39	13570.43
695.53	13408.93
695.66	13256.79
695.80	13345.73
695.93	13186.58
696.07	13078.91
696.20	13029.76
696.33	13144.45
696.47	13055.51
696.60	13219.35
696.73	12723.15
696.87	12699.75
697.00	12704.43
697.14	12765.28
697.27	12393.14
697.40	12589.74
697.54	12573.36
697.67	12294.83
697.80	12365.05
697.94	12505.48
698.07	12231.64
698.21	12142.70
698.34	12280.79
698.47	12203.55
698.61	12196.53
698.74	12351.01
698.87	12056.10
699.01	12355.69
699.14	11981.20
699.27	11978.86
699.40	11861.84
699.54	12025.67
699.67	11693.32
699.80	11882.90
699.94	11475.65
700.07	11616.08
700.20	11442.88
700.34	11641.82
700.47	11499.05
700.60	11576.29
700.73	11365.64
700.87	11468.62
701.00	11171.38
701.13	11304.79
701.26	11335.21
701.40	11250.96
701.53	11028.60
701.66	11363.30
701.79	10979.45
701.93	10920.94
702.06	10794.55
702.19	10724.33
702.32	10939.66
702.46	10918.60
702.59	10789.87
702.72	10555.82
702.85	10759.44
702.99	10569.86
703.12	10691.57
703.25	10429.43
703.38	10635.39
703.51	10368.57
703.65	10635.39
703.78	10417.72
703.91	10186.01
704.04	10403.68
704.17	10370.91
704.31	10274.95
704.44	10155.58
704.57	10061.96
704.70	9853.66
704.83	10094.73
704.96	9966.00
705.10	9692.16
705.23	9905.15
>>>>>End Processed Spectral Data<<<<<
