SpectraSuite Data File
++++++++++++++++++++++++++++++++++++
Date: Fri Oct 18 13:57:59 GMT-05:00 2013
User: bianchi
Dark Spectrum Present: No
Reference Spectrum Present: No
Number of Sampled Component Spectra: 1
Spectrometers: USB2+H05261
Integration Time (usec): 50000 (USB2+H05261)
Spectra Averaged: 1 (USB2+H05261)
Boxcar Smoothing: 0 (USB2+H05261)
Correct for Electrical Dark: No (USB2+H05261)
Strobe/Lamp Enabled: No (USB2+H05261)
Correct for Detector Non-linearity: No (USB2+H05261)
Correct for Stray Light: No (USB2+H05261)
Number of Pixels in Processed Spectrum: 2048
>>>>>Begin Processed Spectral Data<<<<<
365.73	0.00
365.92	0.00
366.12	0.00
366.32	0.00
366.52	0.00
366.72	0.00
366.91	0.00
367.11	0.00
367.31	0.00
367.51	0.00
367.70	0.00
367.90	0.00
368.10	0.00
368.30	0.00
368.49	0.00
368.69	0.00
368.89	0.00
369.09	0.00
369.28	0.00
369.48	0.00
369.68	0.00
369.87	0.00
370.07	0.00
370.27	0.00
370.47	0.00
370.66	42.13
370.86	126.39
371.06	105.32
371.25	248.10
371.45	159.16
371.65	159.16
371.84	154.48
372.04	156.82
372.24	173.20
372.44	182.56
372.63	234.05
372.83	180.22
373.03	217.67
373.22	156.82
373.42	257.46
373.62	245.76
373.81	194.26
374.01	292.57
374.21	243.42
374.40	212.99
374.60	250.44
374.79	231.71
374.99	262.14
375.19	273.84
375.38	297.25
375.58	299.59
375.78	306.61
375.97	248.10
376.17	280.86
376.37	320.65
376.56	203.63
376.76	271.50
376.95	271.50
377.15	257.46
377.35	177.88
377.54	264.48
377.74	273.84
377.93	276.18
378.13	320.65
378.33	330.02
378.52	278.52
378.72	315.97
378.91	374.49
379.11	320.65
379.31	243.42
379.50	266.82
379.70	262.14
379.89	358.10
380.09	320.65
380.28	276.18
380.48	334.70
380.68	341.72
380.87	332.36
381.07	348.74
381.26	325.33
381.46	252.78
381.65	292.57
381.85	313.63
382.04	365.12
382.24	306.61
382.43	367.46
382.63	285.55
382.83	341.72
383.02	416.62
383.22	397.89
383.41	311.29
383.61	344.06
383.80	447.04
384.00	372.15
384.19	372.15
384.39	435.34
384.58	358.10
384.78	388.53
384.97	372.15
385.17	388.53
385.36	440.02
385.56	374.49
385.75	339.38
385.95	411.93
386.14	400.23
386.34	332.36
386.53	376.83
386.72	369.80
386.92	320.65
387.11	397.89
387.31	369.80
387.50	395.55
387.70	479.81
387.89	449.38
388.09	468.11
388.28	458.74
388.48	390.87
388.67	404.91
388.86	479.81
389.06	496.19
389.25	493.85
389.45	444.70
389.64	472.79
389.84	507.90
390.03	486.83
390.22	500.87
390.42	498.53
390.61	512.58
390.81	451.72
391.00	519.60
391.19	564.07
391.39	528.96
391.58	554.71
391.78	482.15
391.97	507.90
392.16	535.98
392.36	538.32
392.55	428.32
392.75	627.26
392.94	566.41
393.13	575.77
393.33	498.53
393.52	587.47
393.71	564.07
393.91	592.16
394.10	517.26
394.29	634.29
394.49	606.20
394.68	580.45
394.88	650.67
395.07	636.63
395.26	580.45
395.46	627.26
395.65	643.65
395.84	615.56
396.04	718.54
396.23	629.60
396.42	627.26
396.62	730.25
396.81	664.71
397.00	725.57
397.19	676.41
397.39	669.39
397.58	690.46
397.77	690.46
397.97	704.50
398.16	678.76
398.35	774.72
398.55	753.65
398.74	683.44
398.93	685.78
399.12	741.95
399.32	695.14
399.51	711.52
399.70	849.61
399.90	650.67
400.09	816.85
400.28	788.76
400.47	751.31
400.67	821.53
400.86	833.23
401.05	734.93
401.24	770.04
401.44	809.83
401.63	851.96
401.82	802.80
402.01	847.27
402.21	798.12
402.40	835.57
402.59	800.46
402.78	830.89
402.97	903.45
403.17	842.59
403.36	847.27
403.55	835.57
403.74	933.87
403.93	966.64
404.13	976.00
404.32	866.00
404.51	903.45
404.70	1025.15
404.89	903.45
405.09	910.47
405.28	966.64
405.47	875.36
405.66	980.68
405.85	1013.45
406.05	1064.94
406.24	1076.65
406.43	1043.88
406.62	1048.56
406.81	1006.43
407.00	1029.84
407.20	990.05
407.39	1029.84
407.58	1076.65
407.77	1067.28
407.96	1057.92
408.15	1130.48
408.34	1135.16
408.54	1053.24
408.73	1083.67
408.92	1086.01
409.11	1191.33
409.30	1146.86
409.49	1221.76
409.68	1200.69
409.87	1135.16
410.07	1200.69
410.26	1299.00
410.45	1219.42
410.64	1104.73
410.83	1226.44
411.02	1277.93
411.21	1313.04
411.40	1355.17
411.59	1310.70
411.78	1373.89
411.98	1247.51
412.17	1301.34
412.36	1266.23
412.55	1343.47
412.74	1404.32
412.93	1327.08
413.12	1380.92
413.31	1451.13
413.50	1401.98
413.69	1516.67
413.88	1521.35
414.07	1416.02
414.26	1432.41
414.45	1458.15
414.64	1507.30
414.83	1584.54
415.02	1497.94
415.22	1610.29
415.41	1636.03
415.60	1519.01
415.79	1544.75
415.98	1645.40
416.17	1619.65
416.36	1565.82
416.55	1605.61
416.74	1661.78
416.93	1619.65
417.12	1753.06
417.31	1724.97
417.50	1614.97
417.69	1881.79
417.88	1774.13
418.07	1743.70
418.26	1818.60
418.45	1689.87
418.64	1881.79
418.83	1863.07
419.02	1832.64
419.21	1809.23
419.39	1842.00
419.58	1870.09
419.77	1842.00
419.96	1827.96
420.15	1907.54
420.34	1966.05
420.53	2038.61
420.72	2104.14
420.91	1926.26
421.10	1987.11
421.29	1944.99
421.48	1867.75
421.67	2031.58
421.86	2073.71
422.05	2033.93
422.24	1895.83
422.43	2047.97
422.61	2052.65
422.80	2078.40
422.99	2047.97
423.18	2141.59
423.37	2101.80
423.56	2031.58
423.75	1900.52
423.94	2062.01
424.13	1942.64
424.32	1949.67
424.50	1987.11
424.69	2071.37
424.88	2069.03
425.07	2085.42
425.26	2087.76
425.45	2012.86
425.64	2064.35
425.83	1989.46
426.01	2167.34
426.20	2045.63
426.39	2050.31
426.58	2165.00
426.77	2153.29
426.96	2101.80
427.15	2090.10
427.33	2195.42
427.52	2092.44
427.71	2183.72
427.90	2167.34
428.09	2260.96
428.28	2258.62
428.46	2293.72
428.65	2265.64
428.84	2253.94
429.03	2389.69
429.22	2223.51
429.40	2253.94
429.59	2401.39
429.78	2235.21
429.97	2349.90
430.16	2244.57
430.34	2356.92
430.53	2333.51
430.72	2291.38
430.91	2239.89
431.10	2410.75
431.28	2457.56
431.47	2469.27
431.66	2509.05
431.85	2359.26
432.03	2410.75
432.22	2506.71
432.41	2380.32
432.60	2502.03
432.79	2464.58
432.97	2560.55
433.16	2511.39
433.35	2495.01
433.54	2532.46
433.72	2665.87
433.91	2532.46
434.10	2466.92
434.28	2562.89
434.47	2595.65
434.66	2766.51
434.85	2616.72
435.03	2712.68
435.22	2614.38
435.41	2609.70
435.59	2747.79
435.78	2649.49
435.97	2825.03
436.16	2693.96
436.34	2558.21
436.53	2654.17
436.72	2810.98
436.90	2731.41
437.09	2810.98
437.28	2717.36
437.46	2810.98
437.65	2810.98
437.84	2913.97
438.02	2857.79
438.21	2832.05
438.40	2698.64
438.58	2806.30
438.77	2881.20
438.96	2876.52
439.14	2920.99
439.33	3030.99
439.52	3047.38
439.70	3054.40
439.89	3119.93
440.08	3070.78
440.26	3077.80
440.45	3171.43
440.63	3117.59
440.82	3164.40
441.01	3145.68
441.19	3187.81
441.38	3314.20
441.57	3222.92
441.75	3251.00
441.94	3192.49
442.12	3253.34
442.31	3445.27
442.50	3295.47
442.68	3314.20
442.87	3370.37
443.05	3452.29
443.24	3293.13
443.43	3344.63
443.61	3391.44
443.80	3665.28
443.98	3396.12
444.17	3342.28
444.35	3534.21
444.54	3463.99
444.73	3557.61
444.91	3412.50
445.10	3499.10
445.28	3494.42
445.47	3496.76
445.65	3536.55
445.84	3501.44
446.02	3517.83
446.21	3466.33
446.39	3557.61
446.58	3595.06
446.77	3475.70
446.95	3534.21
447.14	3557.61
447.32	3574.00
447.51	3691.02
447.69	3520.17
447.88	3438.25
448.06	3506.12
448.25	3559.95
448.43	3496.76
448.62	3634.85
448.80	3571.66
448.99	3557.61
449.17	3630.17
449.36	3604.42
449.54	3698.05
449.73	3754.22
449.91	3812.73
450.10	3702.73
450.28	3775.28
450.46	3861.88
450.65	3819.75
450.83	3805.71
451.02	3840.82
451.20	3868.91
451.39	3822.09
451.57	3756.56
451.76	3911.04
451.94	3817.41
452.13	3953.16
452.31	3927.42
452.49	3950.82
452.68	3915.72
452.86	3946.14
453.05	3911.04
453.23	4035.08
453.42	3953.16
453.60	3866.56
453.78	3964.87
453.97	3850.18
454.15	3988.27
454.34	3817.41
454.52	3992.95
454.70	4131.05
454.89	3927.42
455.07	4142.75
455.26	4077.21
455.44	4109.98
455.62	4175.52
455.81	4205.94
455.99	4166.15
456.17	4292.54
456.36	4241.05
456.54	4205.94
456.73	4311.27
456.91	4519.57
457.09	4292.54
457.28	4561.70
457.46	4421.27
457.64	4386.16
457.83	4510.21
458.01	4351.06
458.19	4486.81
458.38	4575.75
458.56	4477.44
458.74	4500.85
458.93	4372.12
459.11	4285.52
459.29	4528.94
459.48	4454.04
459.66	4484.47
459.84	4547.66
460.03	4723.20
460.21	4685.75
460.39	4468.08
460.57	4734.90
460.76	4568.73
460.94	4599.15
461.12	4685.75
461.31	4746.61
461.49	4674.05
461.67	4643.62
461.85	4791.08
462.04	4809.80
462.22	4931.51
462.40	4791.08
462.59	4833.21
462.77	4805.12
462.95	4603.83
463.13	4833.21
463.32	4957.25
463.50	5001.72
463.68	5006.41
463.86	5015.77
464.05	4968.96
464.23	5046.20
464.41	4966.62
464.59	4856.61
464.78	5006.41
464.96	4985.34
465.14	4975.98
465.32	5078.96
465.50	5093.01
465.69	5184.29
465.87	5043.85
466.05	5139.82
466.23	5062.58
466.41	5177.26
466.60	5170.24
466.78	5315.36
466.96	5069.60
467.14	5100.03
467.32	5156.20
467.51	5341.10
467.69	5062.58
467.87	5203.01
468.05	5238.12
468.23	5247.48
468.41	5322.38
468.60	5310.68
468.78	5420.68
468.96	5502.60
469.14	5547.07
469.32	5380.89
469.50	5310.68
469.69	5462.81
469.87	5570.48
470.05	5423.02
470.23	5600.90
470.41	5547.07
470.59	5809.21
470.77	5593.88
470.95	5593.88
471.14	5570.48
471.32	5582.18
471.50	5769.42
471.68	5638.35
471.86	5717.93
472.04	5764.74
472.22	6249.23
472.40	5820.91
472.58	5874.74
472.77	5792.83
472.95	6040.92
473.13	6141.57
473.31	5921.56
473.49	5757.72
473.67	6015.18
473.85	6122.84
474.03	6064.33
474.21	6092.41
474.39	5954.32
474.57	6289.02
474.75	6342.85
474.93	6251.57
475.12	6246.89
475.30	6242.21
475.48	6179.01
475.66	6282.00
475.84	6502.01
476.02	6443.49
476.20	6569.88
476.38	6518.39
476.56	6675.21
476.74	6754.79
476.92	6609.67
477.10	6555.84
477.28	6745.42
477.46	6743.08
477.64	6700.95
477.82	7150.34
478.00	7234.60
478.18	7115.23
478.36	7250.98
478.54	7279.07
478.72	7178.42
478.90	7433.54
479.08	7384.39
479.26	7393.75
479.44	7466.31
479.62	7693.34
479.80	7522.48
479.98	7712.07
480.16	7742.49
480.34	7632.49
480.52	7747.17
480.70	7875.90
480.88	7859.52
481.06	7789.30
481.24	7854.84
481.41	8037.40
481.59	8119.32
481.77	8198.90
481.95	8121.66
482.13	8205.92
482.31	8119.32
482.49	8388.48
482.67	8697.43
482.85	8341.67
483.03	8695.09
483.21	8657.64
483.39	8547.64
483.57	8681.05
483.74	8982.98
483.92	9041.49
484.10	8980.64
484.28	9207.67
484.46	9247.46
484.64	9376.19
484.82	9085.96
485.00	9338.74
485.18	9509.60
485.35	9495.55
485.53	9799.82
485.71	9657.05
485.89	9827.91
486.07	9900.47
486.25	9947.28
486.43	9708.54
486.61	9891.10
486.78	9989.41
486.96	10143.88
487.14	10347.51
487.32	10487.94
487.50	10253.89
487.68	10623.69
487.85	10436.45
488.03	10803.91
488.21	10965.41
488.39	10794.55
488.57	10874.13
488.75	11052.01
488.92	11218.19
489.10	11213.51
489.28	11243.93
489.46	11229.89
489.64	11262.66
489.81	11379.68
489.99	11531.82
490.17	11669.91
490.35	11609.06
490.53	11819.71
490.70	11946.09
490.88	11875.88
491.06	11948.43
491.24	11983.54
491.41	12088.87
491.59	12233.98
491.77	12236.32
491.95	12306.54
492.13	12374.41
492.30	12585.06
492.48	12458.67
492.66	12432.93
492.84	12493.78
493.01	12840.18
493.19	12849.54
493.37	13053.17
493.54	12868.27
493.72	13128.06
493.90	13088.28
494.08	13369.14
494.25	13394.89
494.43	13280.20
494.61	13870.01
494.79	13488.51
494.96	13532.98
495.14	13722.56
495.32	13774.05
495.49	13752.99
495.67	13912.14
495.85	14118.11
496.02	14120.45
496.20	14312.38
496.38	14338.12
496.55	14223.44
496.73	14452.81
496.91	14363.87
497.09	14436.42
497.26	14719.63
497.44	14508.98
497.62	14796.87
497.79	15019.22
497.97	14864.74
498.14	14946.66
498.32	15075.39
498.50	14986.45
498.67	15243.91
498.85	15225.18
499.03	15108.16
499.20	15262.63
499.38	15288.38
499.56	15606.69
499.73	15688.61
499.91	15815.00
500.08	15810.32
500.26	15571.58
500.44	15749.46
500.61	15850.11
500.79	15674.57
500.97	15950.75
501.14	16322.90
501.32	16004.58
501.49	16231.62
501.67	16194.17
501.84	16273.74
502.02	16379.07
502.20	16088.84
502.37	16432.90
502.55	16641.21
502.72	16524.18
502.90	16367.37
503.07	16332.26
503.25	16580.36
503.43	16526.52
503.60	17055.48
503.78	16919.73
503.95	16975.91
504.13	17029.74
504.30	17207.62
504.48	16847.18
504.65	17118.68
504.83	17216.98
505.01	17397.20
505.18	17839.56
505.36	17652.32
505.53	17284.86
505.71	17406.56
505.88	17439.33
506.06	17076.55
506.23	17654.66
506.41	17741.26
506.58	18094.68
506.76	17413.59
506.93	17664.02
507.11	17647.64
507.28	17745.94
507.46	17816.16
507.63	17858.29
507.81	18171.92
507.98	18022.12
508.16	18354.48
508.33	18127.45
508.50	18443.42
508.68	18300.65
508.85	18803.86
509.03	18391.93
509.20	18668.11
509.38	18698.54
509.55	18967.70
509.73	19250.91
509.90	18810.89
510.08	18693.86
510.25	18508.96
510.42	18937.27
510.60	19068.34
510.77	19246.23
510.95	19477.94
511.12	19077.71
511.30	19145.58
511.47	19159.63
511.64	19307.08
511.82	19630.07
511.99	19180.69
512.17	19293.04
512.34	19765.82
512.51	19344.53
512.69	19571.56
512.86	19475.60
513.04	19742.42
513.21	19901.58
513.38	20072.43
513.56	20140.31
513.73	19866.47
513.90	20063.07
514.08	19463.90
514.25	20121.59
514.43	19889.87
514.60	20425.86
514.77	20255.00
514.95	20393.09
515.12	19936.68
515.29	20432.88
515.47	20519.48
515.64	20659.91
515.81	20568.63
515.99	20648.21
516.16	20975.88
516.33	20903.32
516.51	21209.93
516.68	20503.09
516.85	20779.28
517.03	21050.78
517.20	21015.67
517.37	21205.25
517.54	21015.67
517.72	21036.74
517.89	20966.52
518.06	21202.91
518.24	21144.40
518.41	21010.99
518.58	21390.16
518.75	21422.92
518.93	21373.77
519.10	21378.45
519.27	21350.37
519.45	21495.48
519.62	21341.00
519.79	21532.93
519.96	21678.04
520.14	21785.71
520.31	21455.69
520.48	21685.06
520.65	21785.71
520.83	22043.17
521.00	22075.93
521.17	21710.81
521.34	21947.20
521.52	22132.11
521.69	22146.15
521.86	22188.28
522.03	21989.33
522.20	22190.62
522.38	22218.71
522.55	22249.13
522.72	22317.01
522.89	22195.30
523.07	22508.93
523.24	22480.85
523.41	22469.14
523.58	22429.35
523.75	22625.96
523.92	22632.98
524.10	22485.53
524.27	23262.58
524.44	22944.27
524.61	23110.45
524.78	23154.92
524.96	22953.63
525.13	22834.27
525.30	23054.28
525.47	23295.35
525.64	23133.86
525.81	23138.54
525.98	23370.25
526.16	23477.91
526.33	22857.67
526.50	23253.22
526.67	23012.15
526.84	23328.12
527.01	23208.75
527.18	23405.36
527.36	23676.86
527.53	23475.57
527.70	23953.04
527.87	23711.97
528.04	23777.50
528.21	24081.77
528.38	23662.82
528.55	23798.57
528.72	24077.09
528.89	23962.40
529.07	24320.51
529.24	24222.20
529.41	24098.16
529.58	23999.85
529.75	24011.56
529.92	23927.30
530.09	24011.56
530.26	24100.50
530.43	24444.56
530.60	24137.94
530.77	24168.37
530.94	24865.85
531.11	24301.78
531.28	24285.40
531.46	24236.25
531.63	24273.70
531.80	24404.77
531.97	24467.96
532.14	24231.57
532.31	24739.46
532.48	24744.14
532.65	25020.33
532.82	24854.15
532.99	24854.15
533.16	24489.03
533.33	25104.59
533.50	25446.30
533.67	25003.94
533.84	24980.54
534.01	25326.94
534.18	24805.00
534.35	25249.70
534.52	24924.36
534.69	25099.90
534.86	25127.99
535.03	25235.66
535.20	25151.40
535.37	25340.98
535.54	25399.49
535.71	25013.31
535.88	25577.37
536.05	25216.93
536.22	25352.68
536.38	25427.58
536.55	25542.27
536.72	25551.63
536.89	25352.68
537.06	25497.80
537.23	25462.69
537.40	25532.90
537.57	26054.84
537.74	25558.65
537.91	25790.36
538.08	25820.79
538.25	25951.86
538.42	25734.19
538.59	26080.59
538.75	25736.53
538.92	25593.76
539.09	26022.08
539.26	25914.41
539.43	25790.36
539.60	26087.61
539.77	26101.65
539.94	26593.17
540.11	26270.17
540.28	26403.58
540.44	26132.08
540.61	26038.46
540.78	26043.14
540.95	26206.98
541.12	26211.66
541.29	26178.89
541.46	26380.18
541.62	26148.46
541.79	26274.85
541.96	25937.82
542.13	26148.46
542.30	26719.56
542.47	26525.29
542.63	26579.12
542.80	26867.01
542.97	26859.99
543.14	27192.34
543.31	26691.47
543.48	27016.80
543.64	26962.97
543.81	27360.86
543.98	27204.05
544.15	27096.38
544.32	27402.99
544.48	27379.59
544.65	27138.51
544.82	27278.94
544.99	26801.47
545.16	27253.20
545.32	27056.59
545.49	27529.38
545.66	27627.68
545.83	27845.35
546.00	27592.58
546.16	27522.36
546.33	26700.83
546.50	27363.20
546.67	27733.01
546.83	27276.60
547.00	27344.48
547.17	28037.28
547.34	27651.09
547.50	27639.39
547.67	28086.43
547.84	27786.84
548.00	27772.80
548.17	27969.40
548.34	27931.95
548.51	28034.94
548.67	28079.41
548.84	28194.09
549.01	28053.66
549.18	28128.56
549.34	28283.03
549.51	28016.21
549.68	27740.03
549.84	28032.60
550.01	27733.01
550.18	27938.97
550.34	28156.64
550.51	28081.75
550.68	28367.29
550.84	28313.46
551.01	28215.16
551.18	27931.95
551.34	28032.60
551.51	27978.76
551.68	28563.90
551.84	28268.99
552.01	27962.38
552.18	28231.54
552.34	28418.78
552.51	28250.27
552.68	28594.32
552.84	28343.89
553.01	28364.95
553.18	28456.23
553.34	28610.71
553.51	28884.55
553.67	28751.14
553.84	28858.81
554.01	28809.65
554.17	28912.64
554.34	28624.75
554.51	28893.91
554.67	28811.99
554.84	29050.73
555.00	28704.33
555.17	28896.25
555.33	29013.28
555.50	28629.43
555.67	28804.97
555.83	28858.81
556.00	28826.04
556.16	29064.77
556.33	28781.57
556.50	29228.61
556.66	29006.26
556.83	28800.29
556.99	29757.57
557.16	29219.25
557.32	28856.46
557.49	29488.41
557.65	28830.72
557.82	29223.93
557.98	29034.35
558.15	29125.63
558.32	29076.48
558.48	29156.05
558.65	29252.02
558.81	29577.35
558.98	29483.73
559.14	29134.99
559.31	29153.71
559.47	29015.62
559.64	28936.04
559.80	29427.56
559.97	29359.68
560.13	29310.53
560.30	29874.60
560.46	29518.84
560.63	29310.53
560.79	29692.04
560.96	29411.17
561.12	29483.73
561.29	29174.78
561.45	29347.98
561.61	29619.48
561.78	29364.36
561.94	29610.12
562.11	29883.96
562.27	29848.85
562.44	29469.69
562.60	29680.33
562.77	29628.84
562.93	29610.12
563.10	29982.26
563.26	29977.58
563.42	30190.57
563.59	29834.81
563.75	29680.33
563.92	29867.58
564.08	29701.40
564.24	29638.20
564.41	29710.76
564.57	29741.19
564.74	29783.32
564.90	29993.97
565.07	30052.48
565.23	30291.21
565.39	29717.78
565.56	30176.53
565.72	30050.14
565.88	29970.56
566.05	30022.05
566.21	30197.59
566.38	29802.04
566.54	29626.50
566.70	30024.39
566.87	30415.26
567.03	30085.25
567.19	30256.11
567.36	30232.70
567.52	30003.33
567.68	30115.67
567.85	30209.29
568.01	30293.55
568.17	29902.68
568.34	30036.09
568.50	30209.29
568.66	30157.80
568.83	30389.52
568.99	30251.42
569.15	30185.89
569.32	29858.21
569.48	29914.39
569.64	30380.15
569.81	30714.85
569.97	30274.83
570.13	30305.26
570.30	30314.62
570.46	30394.20
570.62	30485.48
570.78	29961.20
570.95	29961.20
571.11	30349.73
571.27	30101.63
571.43	29593.73
571.60	30122.69
571.76	30110.99
571.92	30614.21
572.09	30321.64
572.25	30588.46
572.41	30199.93
572.57	30375.47
572.74	30026.73
572.90	29972.90
573.06	30167.16
573.22	30354.41
573.38	30181.21
573.55	30256.11
573.71	30270.15
573.87	30668.04
574.03	30661.02
574.20	30050.14
574.36	30377.81
574.52	29970.56
574.68	30361.43
574.84	30661.02
575.01	30600.16
575.17	30487.82
575.33	30412.92
575.49	30595.48
575.65	30583.78
575.82	30764.00
575.98	30213.98
576.14	30658.68
576.30	30312.28
576.46	30661.02
576.62	30211.64
576.79	30522.93
576.95	30078.22
577.11	30766.34
577.27	30778.04
577.43	30604.84
577.59	30396.54
577.75	30319.30
577.92	30492.50
578.08	30099.29
578.24	30239.72
578.40	30764.00
578.56	30852.94
578.72	30658.68
578.88	30721.87
579.04	30984.01
579.21	30522.93
579.37	31000.40
579.53	30639.95
579.69	30183.55
579.85	30485.48
580.01	30382.49
580.17	30305.26
580.33	30288.87
580.49	30312.28
580.65	30796.77
580.82	30775.70
580.98	30909.11
581.14	30682.08
581.30	30780.39
581.46	30455.05
581.62	30066.52
581.78	30443.35
581.94	30485.48
582.10	30551.01
582.26	30401.22
582.42	30719.53
582.58	30941.88
582.74	30665.70
582.90	30721.87
583.06	30583.78
583.22	30476.12
583.38	30906.77
583.54	30422.28
583.70	30747.62
583.86	30965.29
584.02	30153.12
584.18	30642.29
584.34	30913.80
584.50	30878.69
584.66	30380.15
584.82	30995.71
584.98	30651.66
585.14	30213.98
585.30	30525.27
585.46	30593.14
585.62	30562.72
585.78	30771.02
585.94	30520.59
586.10	30712.51
586.26	30792.09
586.42	31012.10
586.58	30733.57
586.74	30817.83
586.90	30827.20
587.06	30338.02
587.22	30878.69
587.38	30813.15
587.54	30852.94
587.70	30984.01
587.86	31009.76
588.02	30951.24
588.18	30962.95
588.34	31372.54
588.49	30967.63
588.65	30934.86
588.81	30541.65
588.97	31189.98
589.13	30602.50
589.29	31201.68
589.45	30764.00
589.61	31129.12
589.77	31206.36
589.93	31168.91
590.08	30871.67
590.24	31168.91
590.40	30888.05
590.56	31211.04
590.72	31096.36
590.88	30866.98
591.04	31166.57
591.20	31131.47
591.35	31201.68
591.51	31658.09
591.67	31330.41
591.83	31075.29
591.99	31152.53
592.15	31527.02
592.31	31307.01
592.46	30895.07
592.62	31002.74
592.78	30738.26
592.94	30735.92
593.10	30852.94
593.26	31372.54
593.41	31356.16
593.57	31386.58
593.73	31309.35
593.89	31030.82
594.05	31192.32
594.20	31049.55
594.36	31084.65
594.52	31147.85
594.68	30820.17
594.84	31356.16
594.99	31552.76
595.15	31168.91
595.31	31466.16
595.47	31253.17
595.62	31627.66
595.78	31171.25
595.94	30991.03
596.10	31206.36
596.25	31023.80
596.41	31042.53
596.57	31108.06
596.73	31468.50
596.88	31239.13
597.04	31276.58
597.20	31793.84
597.36	31494.25
597.51	31435.74
597.67	31311.69
597.83	31321.05
597.99	31030.82
598.14	31552.76
598.30	31133.81
598.46	31108.06
598.61	31267.22
598.77	31494.25
598.93	31637.02
599.09	31833.63
599.24	31714.26
599.40	31318.71
599.56	31421.69
599.71	31695.53
599.87	31229.77
600.03	31234.45
600.18	31194.66
600.34	31168.91
600.50	31126.78
600.65	31112.74
600.81	31529.36
600.97	31821.92
601.12	31480.21
601.28	31496.59
601.44	31557.44
601.59	31302.32
601.75	31470.84
601.91	31587.87
602.06	31693.19
602.22	31009.76
602.37	31480.21
602.53	31473.18
602.69	31168.91
602.84	31267.22
603.00	31562.12
603.16	31817.24
603.31	31402.97
603.47	31431.05
603.62	31236.79
603.78	31084.65
603.94	31096.36
604.09	31323.39
604.25	31342.11
604.40	31199.34
604.56	31297.64
604.71	31571.49
604.87	31384.24
605.03	31590.21
605.18	31461.48
605.34	31138.49
605.49	30918.48
605.65	31117.42
605.80	31302.32
605.96	31452.12
606.12	31182.96
606.27	31178.28
606.43	30986.35
606.58	31255.51
606.74	30958.27
606.89	31747.03
607.05	31651.06
607.20	31182.96
607.36	31264.88
607.51	31309.35
607.67	30979.33
607.82	31075.29
607.98	31012.10
608.13	31693.19
608.29	31061.25
608.44	31152.53
608.60	31091.68
608.75	31407.65
608.91	31440.42
609.06	31014.44
609.22	31475.52
609.37	30918.48
609.53	31274.24
609.68	31208.70
609.84	31000.40
609.99	30939.54
610.15	30759.32
610.30	30558.03
610.46	30771.02
610.61	31299.98
610.76	30974.65
610.92	31445.10
611.07	31136.15
611.23	30771.02
611.38	31079.97
611.54	30766.34
611.69	30756.98
611.84	31318.71
612.00	30639.95
612.15	30876.35
612.31	31285.94
612.46	30796.77
612.62	30991.03
612.77	30604.84
612.92	30930.18
613.08	30756.98
613.23	31061.25
613.39	30604.84
613.54	30679.74
613.69	30796.77
613.85	30455.05
614.00	30801.45
614.15	31164.23
614.31	30764.00
614.46	31061.25
614.62	30768.68
614.77	30618.89
614.92	30618.89
615.08	31002.74
615.23	30918.48
615.38	30878.69
615.54	30675.06
615.69	30354.41
615.84	30635.27
616.00	30469.09
616.15	30731.23
616.30	30604.84
616.46	30562.72
616.61	30927.84
616.76	30857.62
616.92	30611.87
617.07	30340.36
617.22	30504.20
617.37	30265.47
617.53	30543.99
617.68	30202.27
617.83	30328.66
617.99	30309.94
618.14	30183.55
618.29	30288.87
618.45	30307.60
618.60	30480.80
618.75	30525.27
618.90	30450.37
619.06	30534.63
619.21	29949.50
619.36	30604.84
619.51	30036.09
619.67	30089.93
619.82	30295.89
619.97	30253.76
620.12	30139.08
620.28	29968.22
620.43	30298.23
620.58	30651.66
620.73	30312.28
620.89	29921.41
621.04	30403.56
621.19	30338.02
621.34	30050.14
621.49	30279.51
621.65	29991.62
621.80	29951.84
621.95	29778.64
622.10	30529.95
622.25	29827.79
622.41	29820.77
622.56	29647.57
622.71	30300.58
622.86	29876.94
623.01	30515.90
623.16	29954.18
623.32	30043.12
623.47	30316.96
623.62	29818.42
623.77	29654.59
623.92	30010.35
624.07	30000.99
624.23	29312.87
624.38	30064.18
624.53	29820.77
624.68	30139.08
624.83	29743.53
624.98	29762.25
625.13	29722.46
625.29	29591.39
625.44	29954.18
625.59	29635.86
625.74	29570.33
625.89	29628.84
626.04	29364.36
626.19	29582.03
626.34	29390.11
626.49	29474.37
626.65	29240.31
626.80	29507.13
626.95	29589.05
627.10	29612.46
627.25	29809.06
627.40	29441.60
627.55	29565.65
627.70	29352.66
627.85	29212.23
628.00	29390.11
628.15	29467.34
628.30	28975.83
628.45	29495.43
628.60	29558.63
628.76	29186.48
628.91	29106.90
629.06	29088.18
629.21	29291.80
629.36	29797.36
629.51	29277.76
629.66	28922.00
629.81	28732.42
629.96	29125.63
630.11	29010.94
630.26	28936.04
630.41	28877.53
630.56	28823.70
630.71	29319.89
630.86	29088.18
631.01	29034.35
631.16	29153.71
631.31	28704.33
631.46	28863.49
631.61	29142.01
631.76	28760.50
631.91	28922.00
632.06	28734.76
632.21	28510.07
632.36	29207.55
632.51	28617.73
632.66	28847.10
632.81	28704.33
632.96	28432.83
633.10	28575.60
633.25	28936.04
633.40	28851.78
633.55	28767.52
633.70	28568.58
633.85	28109.83
634.00	28687.95
634.15	28549.85
634.30	28327.50
634.45	28521.77
634.60	28629.43
634.75	28601.35
634.90	28243.24
635.05	28423.47
635.19	28423.47
635.34	28790.93
635.49	28872.85
635.64	28329.84
635.79	28716.03
635.94	28496.02
636.09	28599.01
636.24	28512.41
636.39	28168.35
636.53	28297.08
636.68	27896.85
636.83	28355.59
636.98	28657.52
637.13	28287.71
637.28	28444.53
637.43	28622.41
637.57	28343.89
637.72	28236.22
637.87	27908.55
638.02	28238.56
638.17	28236.22
638.32	28095.79
638.46	27976.42
638.61	27831.31
638.76	27953.02
638.91	27962.38
639.06	27601.94
639.20	28203.46
639.35	27990.47
639.50	28566.24
639.65	28133.24
639.80	28313.46
639.94	27962.38
640.09	28034.94
640.24	27950.68
640.39	28191.75
640.54	27747.05
640.68	27651.09
640.83	27999.83
640.98	27395.97
641.13	27878.12
641.27	28229.20
641.42	27929.61
641.57	27733.01
641.72	27728.33
641.86	27997.49
642.01	27597.26
642.16	27679.18
642.31	27220.43
642.45	27557.47
642.60	27391.29
642.75	27473.21
642.90	27690.88
643.04	27716.62
643.19	27267.24
643.34	27108.08
643.48	27491.93
643.63	27756.41
643.78	27250.86
643.93	27388.95
644.07	27386.61
644.22	27442.78
644.37	27627.68
644.51	27484.91
644.66	27365.54
644.81	27110.43
644.95	27316.39
645.10	27246.18
645.25	26668.06
645.39	27658.11
645.54	26981.70
645.69	27344.48
645.83	27379.59
645.98	27307.03
646.13	27267.24
646.27	27108.08
646.42	27285.97
646.57	27421.72
646.71	26829.56
646.86	27419.38
647.00	26986.38
647.15	27058.93
647.30	27302.35
647.44	26871.69
647.59	26909.14
647.74	26867.01
647.88	26991.06
648.03	27307.03
648.17	27417.04
648.32	26920.84
648.47	27257.88
648.61	27037.87
648.76	26600.19
648.90	26845.94
649.05	26934.88
649.20	27030.85
649.34	26792.11
649.49	26684.45
649.63	27098.72
649.78	26782.75
649.92	26874.03
650.07	26848.29
650.21	26525.29
650.36	26588.49
650.51	26462.10
650.65	26796.79
650.80	26874.03
650.94	26738.28
651.09	26792.11
651.23	26426.99
651.38	26775.73
651.52	26911.48
651.67	26544.02
651.81	26686.79
651.96	26658.70
652.10	26574.44
652.25	26780.41
652.39	26714.87
652.54	26799.13
652.68	26342.73
652.83	26349.75
652.97	26597.85
653.12	26581.46
653.26	26108.68
653.41	26108.68
653.55	26438.69
653.70	26321.66
653.84	26441.03
653.99	26293.58
654.13	26221.02
654.27	26265.49
654.42	26490.18
654.56	26239.75
654.71	26345.07
654.85	26391.88
655.00	26405.92
655.14	26412.95
655.29	26183.57
655.43	26026.76
655.57	26087.61
655.72	26466.78
655.86	26253.79
656.01	25949.52
656.15	26113.36
656.30	26106.34
656.44	25795.04
656.58	25865.26
656.73	25797.38
656.87	26106.34
657.01	25790.36
657.16	25991.65
657.30	25661.63
657.45	25827.81
657.59	26064.21
657.73	25830.15
657.88	26092.29
658.02	25537.59
658.16	25914.41
658.31	25549.29
658.45	25539.93
658.60	25378.43
658.74	25853.56
658.88	25874.62
659.03	25710.78
659.17	25944.84
659.31	25727.17
659.46	25687.38
659.60	25909.73
659.74	25642.91
659.89	25500.14
660.03	25462.69
660.17	25343.32
660.32	25149.06
660.46	25511.84
660.60	25233.32
660.74	25277.79
660.89	25329.28
661.03	24985.22
661.17	25081.18
661.32	25301.19
661.46	25516.52
661.60	25469.71
661.74	25378.43
661.89	25214.59
662.03	25294.17
662.17	25242.68
662.31	24826.06
662.46	25062.46
662.60	24814.36
662.74	24973.52
662.88	24650.52
663.03	24594.35
663.17	24737.12
663.31	24641.16
663.45	24664.57
663.60	24446.90
663.74	24601.37
663.88	24596.69
664.02	24704.35
664.17	24814.36
664.31	24482.00
664.45	24114.54
664.59	24683.29
664.73	24601.37
664.88	24687.97
665.02	23782.18
665.16	24088.79
665.30	24699.67
665.44	24407.11
665.59	23941.34
665.73	24086.45
665.87	24002.19
666.01	24112.20
666.15	24360.30
666.29	24170.71
666.44	23953.04
666.58	23957.72
666.72	23828.99
666.86	24149.65
667.00	23782.18
667.14	23735.37
667.28	24112.20
667.43	23608.98
667.57	24044.32
667.71	23466.21
667.85	23618.35
667.99	23726.01
668.13	23335.14
668.27	23543.45
668.41	23571.54
668.56	23515.36
668.70	23538.77
668.84	23683.88
668.98	23332.80
669.12	23704.95
669.26	23239.18
669.40	23550.47
669.54	23683.88
669.68	23339.82
669.82	23316.42
669.96	22958.31
670.10	22817.88
670.25	23061.30
670.39	23173.64
670.53	23307.05
670.67	22993.42
670.81	23054.28
670.95	23047.26
671.09	22710.22
671.23	23096.41
671.37	22993.42
671.51	22747.67
671.65	23019.17
671.79	22799.16
671.93	22443.40
672.07	22515.95
672.21	22478.50
672.35	22342.75
672.49	22199.98
672.63	22471.48
672.77	22061.89
672.91	22483.19
673.05	22001.04
673.19	22398.93
673.33	22515.95
673.47	22408.29
673.61	22218.71
673.75	22300.62
673.89	22286.58
674.03	21949.54
674.17	22047.85
674.31	22111.04
674.45	22040.82
674.59	21940.18
674.73	21884.01
674.87	21727.19
675.01	21528.25
675.15	22026.78
675.29	21619.53
675.43	21678.04
675.56	21839.54
675.70	21383.13
675.84	21429.94
675.98	21106.95
676.12	21624.21
676.26	21717.83
676.40	21462.71
676.54	21247.38
676.68	21266.11
676.82	20870.56
676.96	21200.57
677.10	21294.19
677.23	20922.05
677.37	20613.10
677.51	20678.63
677.65	20870.56
677.79	20760.55
677.93	20688.00
678.07	20503.09
678.21	20847.15
678.34	20395.43
678.48	20252.66
678.62	20147.33
678.76	20400.11
678.90	20034.99
679.04	20266.70
679.18	20116.90
679.31	19957.75
679.45	19803.27
679.59	19948.39
679.73	19920.30
679.87	19665.18
680.00	19384.32
680.14	19667.52
680.28	20081.80
680.42	19585.60
680.56	19646.46
680.70	19616.03
680.83	19520.07
680.97	19688.59
681.11	19419.42
681.25	19124.52
681.39	19229.84
681.52	19028.56
681.66	19229.84
681.80	19040.26
681.94	19049.62
682.07	18986.43
682.21	19000.47
682.35	18618.96
682.49	18546.40
682.62	18773.44
682.76	18618.96
682.90	18649.39
683.04	18724.29
683.17	18633.00
683.31	18373.21
683.45	18738.33
683.59	18342.78
683.72	18291.29
683.86	18228.09
684.00	18211.71
684.13	17965.95
684.27	18202.35
684.41	18012.76
684.55	17776.37
684.68	17682.75
684.82	17703.81
684.96	17467.42
685.09	17776.37
685.23	17710.83
685.37	17741.26
685.50	17525.93
685.64	17689.77
685.78	17647.64
685.91	17284.86
686.05	17638.28
686.19	17195.92
686.32	17439.33
686.46	17106.98
686.60	17083.57
686.73	16889.31
686.87	16901.01
687.01	16950.16
687.14	16872.92
687.28	16863.56
687.42	16624.83
687.55	16507.80
687.69	16641.21
687.82	16479.71
687.96	16507.80
688.10	16514.82
688.23	16383.75
688.37	16624.83
688.50	16500.78
688.64	16049.05
688.78	16393.11
688.91	16343.96
689.05	16369.71
689.18	15983.52
689.32	15695.63
689.46	15775.21
689.59	15925.00
689.73	16032.67
689.86	15749.46
690.00	15639.46
690.13	16006.92
690.27	15627.76
690.41	15627.76
690.54	15382.00
690.68	15496.69
690.81	15480.30
690.95	15463.92
691.08	15552.86
691.22	15534.14
691.35	15470.94
691.49	15433.49
691.62	15206.46
691.76	15028.58
691.89	14993.47
692.03	14778.14
692.16	14972.41
692.30	14719.63
692.43	14623.67
692.57	14523.02
692.70	14831.97
692.84	14705.59
692.97	14499.62
693.11	14527.71
693.24	14548.77
693.38	14581.54
693.51	14548.77
693.65	14516.00
693.78	14438.76
693.92	14218.75
694.05	14204.71
694.19	14244.50
694.32	14066.62
694.45	14078.32
694.59	13823.20
694.72	13844.27
694.86	13727.24
694.99	13357.44
695.13	13806.82
695.26	13650.00
695.39	13317.65
695.53	13783.41
695.66	13509.57
695.80	13593.83
695.93	13495.53
696.07	13671.07
696.20	13589.15
696.33	13322.33
696.47	13212.32
696.60	13345.73
696.73	13319.99
696.87	13266.16
697.00	13224.03
697.14	13043.81
697.27	12819.11
697.40	12573.36
697.54	12720.81
697.67	12788.69
697.80	12702.09
697.94	12479.74
698.07	12547.61
698.21	12334.62
698.34	12568.68
698.47	12622.51
698.61	12526.55
698.74	12507.82
698.87	12367.39
699.01	12290.15
699.14	12046.74
699.27	11995.25
699.40	12210.57
699.54	12002.27
699.67	12081.85
699.80	11775.24
699.94	11861.84
700.07	11999.93
700.20	11606.72
700.34	11595.01
700.47	11550.54
700.60	11630.12
700.73	11569.27
700.87	11489.69
701.00	11367.98
701.13	11702.68
701.26	11487.35
701.40	11438.20
701.53	11269.68
701.66	11208.83
701.79	11014.56
701.93	11101.16
702.06	11096.48
702.19	11162.01
702.32	11122.23
702.46	10860.09
702.59	10843.70
702.72	10663.48
702.85	10640.08
702.99	10703.27
703.12	10803.91
703.25	10530.07
703.38	10719.65
703.51	10415.38
703.65	10539.43
703.78	10621.35
703.91	10331.12
704.04	10494.96
704.17	10366.23
704.31	10415.38
704.44	10483.26
704.57	10204.74
704.70	10216.44
704.83	10068.98
704.96	10171.97
705.10	10033.88
705.23	10064.30
>>>>>End Processed Spectral Data<<<<<
