SpectraSuite Data File
++++++++++++++++++++++++++++++++++++
Date: Fri Oct 18 13:57:56 GMT-05:00 2013
User: bianchi
Dark Spectrum Present: No
Reference Spectrum Present: No
Number of Sampled Component Spectra: 1
Spectrometers: USB2+H05261
Integration Time (usec): 50000 (USB2+H05261)
Spectra Averaged: 1 (USB2+H05261)
Boxcar Smoothing: 0 (USB2+H05261)
Correct for Electrical Dark: No (USB2+H05261)
Strobe/Lamp Enabled: No (USB2+H05261)
Correct for Detector Non-linearity: No (USB2+H05261)
Correct for Stray Light: No (USB2+H05261)
Number of Pixels in Processed Spectrum: 2048
>>>>>Begin Processed Spectral Data<<<<<
365.73	0.00
365.92	0.00
366.12	0.00
366.32	0.00
366.52	0.00
366.72	0.00
366.91	0.00
367.11	0.00
367.31	0.00
367.51	0.00
367.70	0.00
367.90	0.00
368.10	0.00
368.30	0.00
368.49	0.00
368.69	0.00
368.89	0.00
369.09	0.00
369.28	0.00
369.48	0.00
369.68	0.00
369.87	0.00
370.07	0.00
370.27	0.00
370.47	0.00
370.66	70.22
370.86	51.49
371.06	173.20
371.25	203.63
371.45	191.92
371.65	145.11
371.84	161.50
372.04	149.79
372.24	194.26
372.44	102.98
372.63	234.05
372.83	147.45
373.03	276.18
373.22	201.29
373.42	245.76
373.62	257.46
373.81	250.44
374.01	280.86
374.21	215.33
374.40	234.05
374.60	220.01
374.79	241.08
374.99	245.76
375.19	229.37
375.38	238.73
375.58	306.61
375.78	262.14
375.97	304.27
376.17	224.69
376.37	234.05
376.56	212.99
376.76	168.52
376.95	294.91
377.15	278.52
377.35	297.25
377.54	245.76
377.74	283.20
377.93	180.22
378.13	259.80
378.33	250.44
378.52	304.27
378.72	337.04
378.91	299.59
379.11	386.19
379.31	234.05
379.50	341.72
379.70	355.76
379.89	306.61
380.09	330.02
380.28	297.25
380.48	337.04
380.68	315.97
380.87	287.89
381.07	322.99
381.26	346.40
381.46	376.83
381.65	315.97
381.85	320.65
382.04	294.91
382.24	299.59
382.43	418.96
382.63	360.44
382.83	416.62
383.02	325.33
383.22	451.72
383.41	416.62
383.61	332.36
383.80	407.25
384.00	344.06
384.19	262.14
384.39	374.49
384.58	337.04
384.78	355.76
384.97	400.23
385.17	308.95
385.36	369.80
385.56	367.46
385.75	390.87
385.95	451.72
386.14	498.53
386.34	400.23
386.53	477.47
386.72	374.49
386.92	425.98
387.11	458.74
387.31	433.00
387.50	376.83
387.70	402.57
387.89	433.00
388.09	407.25
388.28	360.44
388.48	425.98
388.67	423.64
388.86	468.11
389.06	395.55
389.25	468.11
389.45	521.94
389.64	454.06
389.84	437.68
390.03	503.22
390.22	552.37
390.42	496.19
390.61	510.24
390.81	554.71
391.00	566.41
391.19	566.41
391.39	528.96
391.58	503.22
391.78	526.62
391.97	550.03
392.16	512.58
392.36	594.50
392.55	594.50
392.75	561.73
392.94	540.66
393.13	561.73
393.33	528.96
393.52	545.34
393.71	573.43
393.91	603.86
394.10	601.52
394.29	624.92
394.49	552.37
394.68	578.11
394.88	653.01
395.07	606.20
395.26	550.03
395.46	601.52
395.65	580.45
395.84	592.16
396.04	685.78
396.23	596.84
396.42	681.10
396.62	695.14
396.81	692.80
397.00	744.29
397.19	683.44
397.39	688.12
397.58	641.31
397.77	767.70
397.97	711.52
398.16	685.78
398.35	674.07
398.55	627.26
398.74	657.69
398.93	671.73
399.12	727.91
399.32	629.60
399.51	678.76
399.70	816.85
399.90	767.70
400.09	777.06
400.28	795.78
400.47	702.16
400.67	748.97
400.86	779.40
401.05	800.46
401.24	772.38
401.44	798.12
401.63	854.30
401.82	758.33
402.01	791.10
402.21	875.36
402.40	772.38
402.59	851.96
402.78	917.49
402.97	854.30
403.17	844.93
403.36	940.90
403.55	866.00
403.74	985.37
403.93	990.05
404.13	922.17
404.32	940.90
404.51	1011.11
404.70	997.07
404.89	980.68
405.09	980.68
405.28	978.34
405.47	908.13
405.66	968.98
405.85	992.39
406.05	903.45
406.24	1069.62
406.43	987.71
406.62	1139.84
406.81	1093.03
407.00	1027.50
407.20	1006.43
407.39	978.34
407.58	1083.67
407.77	1121.12
407.96	1114.10
408.15	1067.28
408.34	1137.50
408.54	1109.41
408.73	1025.15
408.92	1036.86
409.11	1186.65
409.30	1203.04
409.49	1123.46
409.68	1149.20
409.87	1137.50
410.07	1172.61
410.26	1224.10
410.45	1205.38
410.64	1242.82
410.83	1247.51
411.02	1233.46
411.21	1331.76
411.40	1266.23
411.59	1324.74
411.78	1322.40
411.98	1301.34
412.17	1306.02
412.36	1334.11
412.55	1320.06
412.74	1315.38
412.93	1357.51
413.12	1310.70
413.31	1472.20
413.50	1362.19
413.69	1500.28
413.88	1453.47
414.07	1554.12
414.26	1516.67
414.45	1418.36
414.64	1547.09
414.83	1490.92
415.02	1453.47
415.22	1563.48
415.41	1542.41
415.60	1437.09
415.79	1563.48
415.98	1603.27
416.17	1633.69
416.36	1621.99
416.55	1661.78
416.74	1582.20
416.93	1666.46
417.12	1708.59
417.31	1767.10
417.50	1673.48
417.69	1788.17
417.88	1671.14
418.07	1811.57
418.26	1732.00
418.45	1699.23
418.64	1778.81
418.83	1891.15
419.02	1888.81
419.21	1858.39
419.39	1905.20
419.58	1818.60
419.77	1919.24
419.96	1923.92
420.15	1956.69
420.34	1956.69
420.53	1954.35
420.72	1928.60
420.91	1870.09
421.10	1961.37
421.29	2054.99
421.48	1949.67
421.67	2008.18
421.86	2076.06
422.05	1968.39
422.24	2127.55
422.43	2031.58
422.61	1921.58
422.80	2017.54
422.99	2085.42
423.18	2010.52
423.37	2050.31
423.56	2071.37
423.75	2073.71
423.94	1954.35
424.13	1968.39
424.32	1926.26
424.50	2115.84
424.69	2139.25
424.88	2097.12
425.07	2101.80
425.26	2029.24
425.45	2207.13
425.64	1987.11
425.83	2111.16
426.01	2010.52
426.20	2029.24
426.39	2005.84
426.58	1935.62
426.77	2157.97
426.96	2211.81
427.15	2202.44
427.33	2179.04
427.52	2162.66
427.71	2127.55
427.90	2045.63
428.09	2253.94
428.28	2186.06
428.46	2239.89
428.65	2193.08
428.84	2305.43
429.03	2352.24
429.22	2345.22
429.40	2209.47
429.59	2401.39
429.78	2279.68
429.97	2228.19
430.16	2326.49
430.34	2349.90
430.53	2345.22
430.72	2368.62
430.91	2392.03
431.10	2293.72
431.28	2455.22
431.47	2506.71
431.66	2338.20
431.85	2462.24
432.03	2389.69
432.22	2504.37
432.41	2431.82
432.60	2553.52
432.79	2382.67
432.97	2530.12
433.16	2506.71
433.35	2537.14
433.54	2490.33
433.72	2579.27
433.91	2459.90
434.10	2567.57
434.28	2546.50
434.47	2668.21
434.66	2576.93
434.85	2686.94
435.03	2586.29
435.22	2621.40
435.41	2663.53
435.59	2775.88
435.78	2649.49
435.97	2719.70
436.16	2778.22
436.34	2619.06
436.53	2782.90
436.72	2726.72
436.90	2754.81
437.09	2827.37
437.28	2738.43
437.46	2731.41
437.65	2946.73
437.84	2892.90
438.02	2925.67
438.21	2778.22
438.40	2719.70
438.58	2888.22
438.77	2935.03
438.96	2867.16
439.14	2988.86
439.33	3009.93
439.52	2986.52
439.70	3016.95
439.89	3117.59
440.08	3019.29
440.26	3126.96
440.45	2911.63
440.63	3096.53
440.82	3054.40
441.01	3070.78
441.19	3424.20
441.38	3325.90
441.57	3269.73
441.75	3215.90
441.94	3269.73
442.12	3309.52
442.31	3548.25
442.50	3421.86
442.68	3337.60
442.87	3318.88
443.05	3370.37
443.24	3492.08
443.43	3698.05
443.61	3499.10
443.80	3536.55
443.98	3456.97
444.17	3351.65
444.35	3377.39
444.54	3569.32
444.73	3592.72
444.91	3499.10
445.10	3454.63
445.28	3438.25
445.47	3506.12
445.65	3592.72
445.84	3471.01
446.02	3492.08
446.21	3492.08
446.39	3520.17
446.58	3625.49
446.77	3421.86
446.95	3478.04
447.14	3431.23
447.32	3550.59
447.51	3550.59
447.69	3581.02
447.88	3559.95
448.06	3630.17
448.25	3531.87
448.43	3583.36
448.62	3735.50
448.80	3574.00
448.99	3599.74
449.17	3590.38
449.36	3611.45
449.54	3693.37
449.73	3681.66
449.91	3735.50
450.10	3754.22
450.28	3775.28
450.46	3794.01
450.65	3969.55
450.83	3824.44
451.02	3934.44
451.20	3857.20
451.39	3798.69
451.57	3794.01
451.76	3808.05
451.94	3904.01
452.13	4011.68
452.31	4016.36
452.49	3796.35
452.68	4007.00
452.86	3854.86
453.05	3772.94
453.23	3997.64
453.42	3995.29
453.60	3955.51
453.78	4014.02
453.97	3950.82
454.15	4065.51
454.34	3985.93
454.52	4028.06
454.70	3978.91
454.89	4124.02
455.07	4196.58
455.26	4095.94
455.44	4210.62
455.62	4184.88
455.81	4154.45
455.99	4131.05
456.17	4397.87
456.36	4166.15
456.54	4393.19
456.73	4248.07
456.91	4332.33
457.09	4374.46
457.28	4580.43
457.46	4411.91
457.64	4344.03
457.83	4299.56
458.01	4184.88
458.19	4538.30
458.38	4463.40
458.56	4617.88
458.74	4482.13
458.93	4592.13
459.11	4479.79
459.29	4557.02
459.48	4517.23
459.66	4571.07
459.84	4683.41
460.03	4704.48
460.21	4557.02
460.39	4638.94
460.57	4704.48
460.76	4594.47
460.94	4652.98
461.12	4739.58
461.31	4847.25
461.49	4770.01
461.67	4915.12
461.85	4992.36
462.04	4858.95
462.22	5095.35
462.40	4870.65
462.59	5057.90
462.77	4952.57
462.95	5041.51
463.13	4706.82
463.32	4959.60
463.50	4908.10
463.68	4905.76
463.86	5053.22
464.05	4954.91
464.23	4793.42
464.41	4905.76
464.59	4849.59
464.78	5050.88
464.96	4957.25
465.14	4968.96
465.32	5064.92
465.50	5139.82
465.69	5090.67
465.87	5074.28
466.05	5118.75
466.23	5163.22
466.41	5057.90
466.60	5142.16
466.78	5114.07
466.96	5226.42
467.14	5146.84
467.32	5200.67
467.51	5284.93
467.69	5188.97
467.87	5228.76
468.05	5242.80
468.23	5186.63
468.41	5256.84
468.60	5432.38
468.78	5481.53
468.96	5291.95
469.14	5341.10
469.32	5341.10
469.50	5256.84
469.69	5600.90
469.87	5579.84
470.05	5645.37
470.23	5495.58
470.41	5526.00
470.59	5427.70
470.77	5570.48
470.95	5664.10
471.14	5605.58
471.32	5678.14
471.50	5717.93
471.68	5781.12
471.86	5748.36
472.04	5715.59
472.22	5912.19
472.40	5694.52
472.58	5799.85
472.77	5856.02
472.95	5823.25
473.13	6024.54
473.31	5975.39
473.49	5937.94
473.67	5916.87
473.85	6132.20
474.03	6162.63
474.21	6200.08
474.39	6319.45
474.57	6179.01
474.75	6286.68
474.93	6380.30
475.12	6221.14
475.30	6258.59
475.48	6310.08
475.66	6413.07
475.84	6525.41
476.02	6473.92
476.20	6380.30
476.38	6612.01
476.56	6523.07
476.74	6623.72
476.92	6459.88
477.10	6609.67
477.28	6752.45
477.46	6710.32
477.64	6754.79
477.82	7068.42
478.00	7155.02
478.18	7021.61
478.36	7028.63
478.54	7316.51
478.72	7190.13
478.90	7279.07
479.08	7152.68
479.26	7379.71
479.44	7550.57
479.62	7485.03
479.80	7669.94
479.98	7529.50
480.16	7665.25
480.34	7672.28
480.52	7808.03
480.70	7836.11
480.88	7508.44
481.06	7889.95
481.24	7822.07
481.41	7756.54
481.59	8212.94
481.77	8285.50
481.95	8109.96
482.13	8315.92
482.31	8156.77
482.49	8475.08
482.67	8650.62
482.85	8641.26
483.03	8622.53
483.21	8807.44
483.39	8784.03
483.57	8849.57
483.74	8772.33
483.92	8812.12
484.10	8987.66
484.28	9008.72
484.46	9217.03
484.64	9291.93
484.82	9259.16
485.00	9455.76
485.18	9282.56
485.35	9413.63
485.53	9427.68
485.71	9731.95
485.89	9811.53
486.07	9841.95
486.25	9713.22
486.43	9884.08
486.61	10050.26
486.78	10003.45
486.96	10434.11
487.14	10375.59
487.32	10265.59
487.50	10342.83
487.68	10399.00
487.85	10717.31
488.03	10551.14
488.21	10738.38
488.39	10703.27
488.57	10867.11
488.75	10862.43
488.92	11070.73
489.10	11040.31
489.28	11126.91
489.46	11274.36
489.64	11391.39
489.81	11587.99
489.99	11676.93
490.17	11552.88
490.35	11571.61
490.53	11592.67
490.70	11866.52
490.88	11946.09
491.06	12114.61
491.24	11997.59
491.41	12264.41
491.59	12259.73
491.77	12219.94
491.95	12404.84
492.13	12498.46
492.30	12486.76
492.48	12716.13
492.66	12437.61
492.84	12758.26
493.01	12781.67
493.19	12905.71
493.37	13057.85
493.54	12795.71
493.72	13238.07
493.90	13387.86
494.08	13315.31
494.25	13486.17
494.43	13411.27
494.61	13703.84
494.79	13593.83
494.96	13692.13
495.14	13523.62
495.32	14061.94
495.49	13977.68
495.67	13989.38
495.85	14340.46
496.02	14092.37
496.20	14263.22
496.38	14267.91
496.55	14328.76
496.73	14340.46
496.91	14312.38
497.09	14520.68
497.26	14883.47
497.44	14747.72
497.62	14623.67
497.79	15028.58
497.97	14757.08
498.14	15220.50
498.32	15180.71
498.50	15222.84
498.67	15545.84
498.85	15424.13
499.03	15499.03
499.20	15412.43
499.38	15510.73
499.56	15466.26
499.73	15623.08
499.91	15602.01
500.08	15726.06
500.26	15735.42
500.44	16098.20
500.61	15852.45
500.79	15627.76
500.97	15925.00
501.14	16233.96
501.32	16107.57
501.49	16100.55
501.67	16112.25
501.84	16259.70
502.02	16404.81
502.20	16570.99
502.37	16491.41
502.55	16332.26
502.72	16549.93
502.90	16414.18
503.07	16643.55
503.25	16842.50
503.43	16599.08
503.60	16861.22
503.78	16971.22
503.95	16954.84
504.13	16807.39
504.30	17022.72
504.48	16830.79
504.65	17020.38
504.83	17151.45
505.01	17355.07
505.18	17378.48
505.36	17612.53
505.53	17317.62
505.71	17532.95
505.88	17872.33
506.06	17404.22
506.23	17642.96
506.41	17483.80
506.58	17516.57
506.76	17448.69
506.93	17989.36
507.11	17710.83
507.28	17841.90
507.46	18176.60
507.63	18015.10
507.81	17996.38
507.98	18033.83
508.16	18209.37
508.33	18178.94
508.50	18422.36
508.68	18291.29
508.85	18319.37
509.03	18661.09
509.20	19204.10
509.38	18647.05
509.55	18909.19
509.73	19089.41
509.90	18824.93
510.08	18735.99
510.25	18747.69
510.42	19300.06
510.60	19143.24
510.77	19304.74
510.95	19227.50
511.12	18944.30
511.30	19248.57
511.47	19206.44
511.64	19145.58
511.82	19377.30
511.99	19246.23
512.17	19744.76
512.34	19342.19
512.51	19784.55
512.69	19585.60
512.86	19686.25
513.04	19924.98
513.21	19623.05
513.38	19922.64
513.56	20013.92
513.73	19840.72
513.90	19887.53
514.08	19960.09
514.25	20133.29
514.43	20107.54
514.60	20339.26
514.77	20285.42
514.95	20173.08
515.12	19948.39
515.29	20278.40
515.47	20428.20
515.64	20376.70
515.81	20285.42
515.99	20470.33
516.16	20835.45
516.33	20915.03
516.51	20954.82
516.68	20922.05
516.85	20769.91
517.03	20826.09
517.20	20950.14
517.37	21120.99
517.54	21142.06
517.72	20910.35
517.89	20898.64
518.06	21020.35
518.24	21053.12
518.41	21158.44
518.58	21020.35
518.75	21088.23
518.93	21394.84
519.10	21439.31
519.27	21551.65
519.45	21624.21
519.62	21397.18
519.79	21544.63
519.96	21532.93
520.14	21860.60
520.31	21766.98
520.48	21759.96
520.65	21617.19
520.83	22005.72
521.00	22106.36
521.17	22068.91
521.34	21626.55
521.52	22064.23
521.69	22251.47
521.86	22097.00
522.03	22059.55
522.20	22258.49
522.38	21986.99
522.55	22530.00
522.72	22305.31
522.89	22237.43
523.07	22679.79
523.24	22712.56
523.41	22672.77
523.58	22136.79
523.75	22726.60
523.92	22567.45
524.10	22651.70
524.27	22679.79
524.44	22930.23
524.61	23075.34
524.78	22841.29
524.96	23028.53
525.13	23070.66
525.30	22768.73
525.47	23283.65
525.64	23438.12
525.81	23253.22
525.98	23309.40
526.16	23510.68
526.33	23192.37
526.50	23559.83
526.67	23180.67
526.84	22909.16
527.01	23197.05
527.18	23784.52
527.36	23267.27
527.53	23782.18
527.70	24009.22
527.87	23754.10
528.04	23793.89
528.21	23653.45
528.38	23655.79
528.55	23566.85
528.72	24002.19
528.89	24182.42
529.07	23742.39
529.24	23946.02
529.41	23992.83
529.58	23981.13
529.75	24044.32
529.92	24217.52
530.09	24049.00
530.26	24346.25
530.43	24203.48
530.60	24276.04
530.77	24109.86
530.94	24563.92
531.11	24517.11
531.28	24063.05
531.46	24290.08
531.63	24538.18
531.80	24692.65
531.97	24608.39
532.14	24959.47
532.31	25064.80
532.48	24758.19
532.65	24435.19
532.82	24280.72
532.99	24734.78
533.16	24687.97
533.33	24959.47
533.50	25177.14
533.67	24879.89
533.84	24823.72
534.01	24978.20
534.18	24816.70
534.35	25427.58
534.52	25095.22
534.69	25291.83
534.86	25455.67
535.03	25200.55
535.20	25228.63
535.37	25057.78
535.54	25378.43
535.71	25226.29
535.88	25706.10
536.05	25326.94
536.22	25916.75
536.38	25582.06
536.55	25415.88
536.72	25539.93
536.89	25612.48
537.06	25413.54
537.23	25582.06
537.40	25942.50
537.57	25408.86
537.74	25963.56
537.91	26040.80
538.08	26019.74
538.25	25750.57
538.42	26188.25
538.59	26148.46
538.75	25642.91
538.92	25862.92
539.09	26113.36
539.26	26218.68
539.43	25696.74
539.60	25848.88
539.77	26111.02
539.94	26455.08
540.11	26211.66
540.28	26132.08
540.44	26204.64
540.61	26036.12
540.78	26267.83
540.95	26494.86
541.12	26209.32
541.29	26541.68
541.46	26757.00
541.62	26623.59
541.79	26792.11
541.96	26174.21
542.13	26455.08
542.30	26508.91
542.47	26742.96
542.63	27000.42
542.80	26789.77
542.97	26738.28
543.14	26787.43
543.31	27037.87
543.48	26768.71
543.64	27035.53
543.81	27009.78
543.98	27372.57
544.15	27171.28
544.32	27314.05
544.48	27426.40
544.65	27042.55
544.82	26852.97
544.99	27262.56
545.16	27061.27
545.32	27545.76
545.49	27452.14
545.66	27690.88
545.83	27412.35
546.00	27562.15
546.16	27391.29
546.33	27431.08
546.50	26965.31
546.67	27569.17
546.83	27316.39
547.00	27857.06
547.17	27859.40
547.34	27742.37
547.50	27716.62
547.67	28039.62
547.84	27611.30
548.00	27725.99
548.17	27634.71
548.34	27531.72
548.51	28264.31
548.67	28011.53
548.84	27976.42
549.01	27929.61
549.18	27910.89
549.34	27681.52
549.51	28011.53
549.68	27868.76
549.84	27737.69
550.01	28081.75
550.18	27840.67
550.34	27976.42
550.51	28018.55
550.68	28540.49
550.84	28196.43
551.01	28079.41
551.18	28084.09
551.34	27934.29
551.51	28292.40
551.68	28173.03
551.84	28496.02
552.01	28364.95
552.18	28638.80
552.34	28065.36
552.51	28479.64
552.68	28198.77
552.84	28418.78
553.01	28685.61
553.18	28430.49
553.34	28610.71
553.51	28526.45
553.67	28800.29
553.84	28898.59
554.01	28559.22
554.17	28823.70
554.34	28772.21
554.51	28706.67
554.67	28652.84
554.84	28610.71
555.00	28517.09
555.17	28371.97
555.33	29057.75
555.50	29034.35
555.67	28919.66
555.83	28931.36
556.00	29034.35
556.16	28718.37
556.33	29081.16
556.50	29198.18
556.66	29362.02
556.83	28701.99
556.99	29504.79
557.16	29701.40
557.32	29153.71
557.49	29099.88
557.65	28952.43
557.82	28882.21
557.98	28711.35
558.15	28760.50
558.32	29694.38
558.48	29336.27
558.65	29624.16
558.81	29298.83
558.98	29778.64
559.14	29249.67
559.31	28814.34
559.47	29261.38
559.64	29195.84
559.80	29432.24
559.97	29626.50
560.13	29336.27
560.30	29420.53
560.46	29439.26
560.63	29247.33
560.79	29603.10
560.96	29589.05
561.12	29291.80
561.29	29572.67
561.45	29254.36
561.61	29855.87
561.78	29860.55
561.94	29748.21
562.11	29572.67
562.27	29680.33
562.44	29804.38
562.60	29750.55
562.77	29504.79
562.93	29645.23
563.10	29869.92
563.26	29462.66
563.42	30064.18
563.59	30169.51
563.75	29729.48
563.92	29759.91
564.08	29862.90
564.24	29640.54
564.41	29544.58
564.57	29523.52
564.74	29642.88
564.90	29869.92
565.07	30040.78
565.23	29890.98
565.39	30047.80
565.56	30253.76
565.72	29949.50
565.88	30281.85
566.05	30031.41
566.21	30059.50
566.38	30157.80
566.54	29902.68
566.70	30031.41
566.87	30429.30
567.03	30518.25
567.19	30211.64
567.36	30342.70
567.52	30120.35
567.68	29876.94
567.85	30066.52
568.01	30157.80
568.17	30492.50
568.34	30412.92
568.50	30223.34
568.66	29902.68
568.83	30288.87
568.99	30199.93
569.15	30188.23
569.32	30075.88
569.48	29947.15
569.64	30160.14
569.81	30106.31
569.97	30157.80
570.13	30045.46
570.30	30239.72
570.46	30359.09
570.62	30515.90
570.78	30361.43
570.95	30012.69
571.11	30298.23
571.27	30293.55
571.43	30588.46
571.60	30551.01
571.76	30426.96
571.92	30176.53
572.09	30471.43
572.25	30389.52
572.41	30281.85
572.57	30452.71
572.74	30553.35
572.90	30188.23
573.06	30143.76
573.22	30258.45
573.38	30387.18
573.55	30775.70
573.71	30834.22
573.87	30459.73
574.03	30476.12
574.20	30555.69
574.36	30183.55
574.52	30361.43
574.68	30567.40
574.84	30277.17
575.01	30520.59
575.17	30361.43
575.33	30235.04
575.49	30316.96
575.65	30377.81
575.82	30396.54
575.98	30401.22
576.14	30532.29
576.30	30569.74
576.46	30394.20
576.62	30267.81
576.79	30845.92
576.95	30185.89
577.11	30543.99
577.27	30625.91
577.43	30726.55
577.59	30670.38
577.75	30492.50
577.92	30370.79
578.08	30576.76
578.24	30646.97
578.40	30457.39
578.56	30621.23
578.72	30621.23
578.88	31220.41
579.04	30745.28
579.21	30387.18
579.37	31124.44
579.53	30974.65
579.69	30433.99
579.85	30415.26
580.01	30455.05
580.17	30974.65
580.33	30579.10
580.49	30808.47
580.65	30513.56
580.82	30740.60
580.98	30707.83
581.14	30691.44
581.30	30724.21
581.46	30831.88
581.62	30342.70
581.78	30771.02
581.94	30740.60
582.10	30642.29
582.26	30782.73
582.42	30951.24
582.58	30766.34
582.74	30761.66
582.90	30916.14
583.06	30871.67
583.22	30735.92
583.38	30733.57
583.54	30546.33
583.70	30618.89
583.86	30810.81
584.02	30478.46
584.18	31065.93
584.34	31075.29
584.50	30794.43
584.66	30817.83
584.82	30387.18
584.98	30843.58
585.14	30714.85
585.30	30487.82
585.46	30677.40
585.62	30511.22
585.78	30691.44
585.94	30649.32
586.10	30724.21
586.26	30822.51
586.42	30768.68
586.58	30604.84
586.74	30934.86
586.90	30604.84
587.06	30452.71
587.22	30876.35
587.38	30438.67
587.54	31021.46
587.70	31061.25
587.86	31096.36
588.02	31115.08
588.18	31122.10
588.34	31049.55
588.49	31007.42
588.65	30899.75
588.81	31077.63
588.97	30892.73
589.13	31012.10
589.29	30625.91
589.45	30937.20
589.61	31201.68
589.77	31197.00
589.93	31372.54
590.08	31241.47
590.24	31082.31
590.40	31061.25
590.56	31143.17
590.72	30780.39
590.88	30843.58
591.04	31002.74
591.20	31278.92
591.35	31318.71
591.51	31445.10
591.67	31070.61
591.83	31267.22
591.99	31302.32
592.15	31213.38
592.31	31321.05
592.46	31089.34
592.62	31260.20
592.78	30981.67
592.94	31222.75
593.10	30782.73
593.26	31363.18
593.41	31211.04
593.57	31290.62
593.73	31147.85
593.89	31014.44
594.05	31421.69
594.20	30843.58
594.36	31168.91
594.52	31009.76
594.68	31297.64
594.84	30864.64
594.99	31356.16
595.15	31103.38
595.31	31562.12
595.47	31459.14
595.62	31615.96
595.78	31711.92
595.94	31505.95
596.10	31204.02
596.25	31370.20
596.41	31056.57
596.57	30955.93
596.73	30885.71
596.88	31119.76
597.04	31330.41
597.20	31241.47
597.36	31065.93
597.51	31604.25
597.67	31208.70
597.83	31709.58
597.99	31115.08
598.14	31143.17
598.30	31110.40
598.46	31484.89
598.61	31278.92
598.77	30974.65
598.93	31400.63
599.09	31466.16
599.24	31583.19
599.40	31276.58
599.56	31234.45
599.71	31648.72
599.87	31189.98
600.03	31459.14
600.18	31487.23
600.34	31477.86
600.50	31171.25
600.65	31461.48
600.81	31627.66
600.97	31463.82
601.12	31791.50
601.28	31667.45
601.44	31777.45
601.59	31527.02
601.75	31608.93
601.91	31625.32
602.06	31477.86
602.22	31630.00
602.37	31311.69
602.53	31274.24
602.69	31468.50
602.84	31021.46
603.00	31578.51
603.16	31632.34
603.31	31220.41
603.47	31484.89
603.62	31304.67
603.78	31620.64
603.94	31091.68
604.09	31253.17
604.25	31428.71
604.40	30747.62
604.56	31381.90
604.71	31826.60
604.87	31307.01
605.03	31283.60
605.18	31501.27
605.34	31365.52
605.49	30881.03
605.65	31634.68
605.80	31250.83
605.96	31206.36
606.12	31337.43
606.27	31154.87
606.43	31522.34
606.58	31358.50
606.74	31208.70
606.89	31484.89
607.05	31529.36
607.20	31606.59
607.36	31105.72
607.51	31115.08
607.67	31302.32
607.82	31021.46
607.98	31227.43
608.13	31007.42
608.29	31262.54
608.44	31009.76
608.60	31110.40
608.75	31363.18
608.91	31143.17
609.06	31262.54
609.22	31473.18
609.37	30881.03
609.53	31409.99
609.68	31239.13
609.84	30904.43
609.99	31119.76
610.15	30984.01
610.30	31353.82
610.46	31398.29
610.61	31136.15
610.76	31377.22
610.92	31288.28
611.07	31559.78
611.23	30834.22
611.38	31112.74
611.54	30707.83
611.69	30883.37
611.84	30995.71
612.00	30689.10
612.15	30745.28
612.31	31316.37
612.46	31000.40
612.62	31381.90
612.77	31192.32
612.92	31271.90
613.08	31063.59
613.23	31014.44
613.39	30895.07
613.54	30810.81
613.69	30843.58
613.85	30724.21
614.00	30682.08
614.15	30965.29
614.31	30558.03
614.46	30782.73
614.62	30829.54
614.77	30976.99
614.92	30895.07
615.08	31133.81
615.23	30717.19
615.38	30899.75
615.54	30143.76
615.69	30611.87
615.84	30085.25
616.00	30658.68
616.15	30513.56
616.30	30558.03
616.46	30937.20
616.61	30600.16
616.76	30747.62
616.92	30668.04
617.07	30810.81
617.22	30426.96
617.37	30663.36
617.53	30775.70
617.68	30422.28
617.83	30539.31
617.99	30417.60
618.14	30309.94
618.29	30155.46
618.45	30623.57
618.60	30445.69
618.75	30396.54
618.90	30684.42
619.06	30511.22
619.21	30689.10
619.36	30216.32
619.51	30125.04
619.67	30038.44
619.82	30059.50
619.97	30333.34
620.12	30363.77
620.28	30113.33
620.43	30658.68
620.58	30331.00
620.73	30382.49
620.89	30155.46
621.04	30263.13
621.19	30354.41
621.34	30073.54
621.49	29879.28
621.65	30237.38
621.80	30204.61
621.95	29734.17
622.10	29876.94
622.25	30029.07
622.41	30115.67
622.56	30221.00
622.71	30015.03
622.86	29603.10
623.01	29764.59
623.16	29797.36
623.32	29841.83
623.47	30012.69
623.62	29881.62
623.77	30164.82
623.92	30043.12
624.07	30050.14
624.23	29816.08
624.38	29956.52
624.53	29710.76
624.68	29926.09
624.83	30139.08
624.98	30068.86
625.13	29972.90
625.29	30022.05
625.44	29589.05
625.59	29617.14
625.74	29263.72
625.89	29521.18
626.04	29551.60
626.19	29411.17
626.34	29525.86
626.49	29542.24
626.65	29617.14
626.80	29476.71
626.95	29788.00
627.10	29329.25
627.25	29357.34
627.40	29734.17
627.55	29362.02
627.70	29048.39
627.85	29273.08
628.00	29273.08
628.15	29303.51
628.30	29411.17
628.45	29156.05
628.60	29467.34
628.76	29053.07
628.91	29144.35
629.06	29352.66
629.21	29401.81
629.36	29397.13
629.51	29085.84
629.66	29329.25
629.81	29106.90
629.96	29050.73
630.11	28996.90
630.26	29120.95
630.41	28938.38
630.56	29001.58
630.71	28854.12
630.86	28971.15
631.01	28776.89
631.16	29275.42
631.31	29195.84
631.46	28947.75
631.61	28924.34
631.76	28896.25
631.91	29083.50
632.06	28879.87
632.21	28809.65
632.36	28933.70
632.51	28739.44
632.66	29024.98
632.81	28439.85
632.96	28945.41
633.10	29032.00
633.25	29142.01
633.40	28917.32
633.55	29088.18
633.70	28631.77
633.85	28561.56
634.00	28847.10
634.15	28386.02
634.30	28769.86
634.45	28414.10
634.60	28524.11
634.75	28685.61
634.90	28496.02
635.05	28608.37
635.19	28573.26
635.34	28872.85
635.49	28716.03
635.64	28364.95
635.79	28451.55
635.94	28315.80
636.09	28346.23
636.24	28451.55
636.39	28226.86
636.53	28655.18
636.68	28294.74
636.83	28563.90
636.98	28453.89
637.13	28173.03
637.28	28315.80
637.43	28271.33
637.57	28533.47
637.72	28063.02
637.87	28212.82
638.02	28418.78
638.17	28320.48
638.32	28177.71
638.46	27941.32
638.61	28119.20
638.76	27707.26
638.91	28086.43
639.06	28292.40
639.20	27976.42
639.35	28416.44
639.50	27868.76
639.65	28383.68
639.80	28154.30
639.94	27700.24
640.09	28254.95
640.24	27929.61
640.39	28088.77
640.54	27990.47
640.68	27885.14
640.83	27828.97
640.98	27683.86
641.13	27641.73
641.27	27625.34
641.42	27520.02
641.57	27632.36
641.72	27931.95
641.86	27618.32
642.01	27707.26
642.16	27550.45
642.31	27379.59
642.45	27789.18
642.60	27241.50
642.75	27421.72
642.90	27503.64
643.04	27697.90
643.19	27424.06
643.34	27555.13
643.48	27721.30
643.63	27880.46
643.78	27400.65
643.93	27779.82
644.07	27704.92
644.22	28105.15
644.37	27576.19
644.51	27714.28
644.66	27639.39
644.81	27101.06
644.95	27573.85
645.10	27119.79
645.25	27353.84
645.39	26920.84
645.54	27049.57
645.69	27300.01
645.83	27342.14
645.98	27316.39
646.13	27353.84
646.27	27763.43
646.42	27178.30
646.57	27545.76
646.71	27393.63
646.86	27393.63
647.00	27281.28
647.15	27173.62
647.30	26728.92
647.44	26948.93
647.59	27044.89
647.74	26969.99
647.88	26984.04
648.03	27087.02
648.17	27208.73
648.32	27175.96
648.47	27206.39
648.61	27002.76
648.76	27325.75
648.90	27475.55
649.05	27028.51
649.20	27002.76
649.34	26944.25
649.49	26939.57
649.63	26752.32
649.78	26740.62
649.92	26691.47
650.07	26625.93
650.21	26637.64
650.36	26918.50
650.51	26714.87
650.65	26749.98
650.80	26813.18
650.94	27007.44
651.09	26623.59
651.23	26373.16
651.38	26843.60
651.52	26333.37
651.67	26759.34
651.81	26380.18
651.96	26843.60
652.10	26506.57
652.25	26644.66
652.39	26829.56
652.54	26668.06
652.68	26731.26
652.83	26654.02
652.97	26689.13
653.12	26595.51
653.26	26466.78
653.41	26581.46
653.55	26300.60
653.70	26342.73
653.84	26532.31
653.99	26480.82
654.13	26302.94
654.27	26040.80
654.42	26394.22
654.56	26462.10
654.71	26434.01
654.85	26335.71
655.00	26656.36
655.14	26508.91
655.29	26092.29
655.43	26354.43
655.57	26080.59
655.72	26120.38
655.86	26155.49
656.01	26169.53
656.15	26122.72
656.30	26136.76
656.44	26118.04
656.58	25766.96
656.73	26167.19
656.87	25914.41
657.01	26075.91
657.16	25844.20
657.30	26050.16
657.45	26260.81
657.59	25923.77
657.73	25638.23
657.88	25951.86
658.02	25977.61
658.16	25891.01
658.31	25556.31
658.45	25621.84
658.60	25600.78
658.74	25708.44
658.88	25806.75
659.03	25743.55
659.17	25685.04
659.31	25568.01
659.46	25516.52
659.60	25647.59
659.74	25495.46
659.89	25312.89
660.03	25205.23
660.17	25905.05
660.32	25392.47
660.46	25303.53
660.60	25158.42
660.74	25301.19
660.89	25362.04
661.03	24830.74
661.17	24982.88
661.32	25275.45
661.46	25254.38
661.60	24926.71
661.74	25570.35
661.89	25242.68
662.03	25378.43
662.17	25303.53
662.31	25013.31
662.46	25062.46
662.60	24856.49
662.74	25387.79
662.88	24797.98
663.03	24797.98
663.17	24889.26
663.31	24049.00
663.45	24694.99
663.60	24332.21
663.74	24460.94
663.88	24730.10
664.02	24805.00
664.17	25039.05
664.31	24570.94
664.45	24893.94
664.59	24233.91
664.73	24594.35
664.88	24297.10
665.02	24240.93
665.16	24116.88
665.30	24276.04
665.44	24135.60
665.59	24294.76
665.73	23730.69
665.87	24060.71
666.01	24484.34
666.15	24154.33
666.29	24009.22
666.44	24301.78
666.58	23955.38
666.72	24229.23
666.86	24266.67
667.00	24189.44
667.14	23845.38
667.28	23920.28
667.43	23726.01
667.57	23784.52
667.71	23377.27
667.85	23962.40
667.99	23562.17
668.13	23917.93
668.27	23578.56
668.41	23838.36
668.56	23487.28
668.70	23669.84
668.84	23789.20
668.98	23494.30
669.12	23379.61
669.26	23632.39
669.40	23454.51
669.54	23667.50
669.68	23360.89
669.82	23410.04
669.96	22836.61
670.10	23089.38
670.25	23197.05
670.39	22995.76
670.53	23103.43
670.67	23084.70
670.81	22796.82
670.95	23042.57
671.09	23183.01
671.23	23271.95
671.37	22937.25
671.51	22855.33
671.65	23405.36
671.79	22918.53
671.93	22607.23
672.07	22703.20
672.21	22487.87
672.35	22478.50
672.49	22651.70
672.63	22684.47
672.77	22642.34
672.91	22792.14
673.05	22471.48
673.19	22480.85
673.33	22080.61
673.47	22553.40
673.61	22551.06
673.75	22312.33
673.89	22202.32
674.03	22003.38
674.17	21671.02
674.31	21673.36
674.45	21958.91
674.59	21769.32
674.73	21888.69
674.87	21563.36
675.01	21748.26
675.15	21305.90
675.29	21839.54
675.43	21600.80
675.56	21774.00
675.70	21383.13
675.84	21628.89
675.98	21226.32
676.12	21584.42
676.26	21734.21
676.40	21486.12
676.54	20964.18
676.68	21577.40
676.82	21153.76
676.96	21132.70
677.10	21212.28
677.23	20847.15
677.37	20695.02
677.51	20898.64
677.65	20776.94
677.79	20648.21
677.93	20915.03
678.07	20372.02
678.21	20315.85
678.34	20397.77
678.48	20453.94
678.62	20386.07
678.76	20372.02
678.90	20196.48
679.04	20414.15
679.18	20233.93
679.31	20137.97
679.45	20077.12
679.59	19859.45
679.73	19414.74
679.87	19875.83
680.00	19735.40
680.14	19791.57
680.28	19648.80
680.42	19803.27
680.56	19819.66
680.70	19501.34
680.83	19630.07
680.97	19180.69
681.11	19721.35
681.25	19557.52
681.39	19260.27
681.52	19208.78
681.66	19318.78
681.80	19208.78
681.94	19049.62
682.07	19082.39
682.21	18782.80
682.35	18712.58
682.49	18862.38
682.62	18785.14
682.76	18609.60
682.90	18974.72
683.04	18705.56
683.17	18523.00
683.31	18588.53
683.45	18588.53
683.59	18293.63
683.72	18415.34
683.86	18302.99
684.00	18321.71
684.13	18122.77
684.27	18127.45
684.41	17958.93
684.55	17671.04
684.68	17778.71
684.82	17933.18
684.96	17687.43
685.09	17853.61
685.23	17474.44
685.37	17785.73
685.50	17816.16
685.64	17762.33
685.78	17605.51
685.91	17862.97
686.05	17671.04
686.19	17432.31
686.32	17589.13
686.46	17565.72
686.60	16968.88
686.73	17067.19
686.87	17088.25
687.01	17020.38
687.14	16968.88
687.28	16783.98
687.42	16610.78
687.55	16664.61
687.69	16542.91
687.82	16554.61
687.96	16606.10
688.10	16407.16
688.23	16397.79
688.37	16624.83
688.50	16297.15
688.64	16449.28
688.78	16573.33
688.91	16264.38
689.05	16245.66
689.18	16166.08
689.32	15927.35
689.46	15878.19
689.59	15988.20
689.73	16231.62
689.86	15733.08
690.00	15721.38
690.13	15913.30
690.27	15559.88
690.41	15765.85
690.54	15999.90
690.68	15620.74
690.81	15606.69
690.95	15583.29
691.08	15293.06
691.22	15431.15
691.35	15267.31
691.49	15461.58
691.62	15403.07
691.76	15197.10
691.89	15218.16
692.03	14860.06
692.16	14574.52
692.30	14656.43
692.43	14909.21
692.57	14754.74
692.70	14752.40
692.84	14527.71
692.97	14518.34
693.11	14698.56
693.24	14492.60
693.38	14537.07
693.51	14216.41
693.65	14576.86
693.78	14394.29
693.92	14356.85
694.05	14064.28
694.19	13973.00
694.32	13980.02
694.45	13881.72
694.59	13893.42
694.72	13813.84
694.86	13774.05
694.99	13554.04
695.13	13664.05
695.26	13647.66
695.39	13497.87
695.53	13764.69
695.66	13692.13
695.80	13556.38
695.93	13432.33
696.07	13390.20
696.20	13406.59
696.33	13495.53
696.47	13338.71
696.60	13011.04
696.73	13062.53
696.87	13191.26
697.00	13076.57
697.14	12683.36
697.27	12805.07
697.40	12924.44
697.54	12875.29
697.67	12648.26
697.80	12772.30
697.94	12496.12
698.07	12484.42
698.21	12294.83
698.34	12425.90
698.47	12423.56
698.61	12538.25
698.74	12503.14
698.87	12255.04
699.01	12257.39
699.14	12035.03
699.27	12079.50
699.40	12102.91
699.54	12095.89
699.67	12065.46
699.80	12049.08
699.94	11847.79
700.07	11920.35
700.20	11707.36
700.34	11602.04
700.47	11606.72
700.60	11831.41
700.73	11513.10
700.87	11641.82
701.00	11604.38
701.13	11424.15
701.26	11609.06
701.40	11435.86
701.53	11726.08
701.66	11293.08
701.79	11157.33
701.93	11197.12
702.06	11138.61
702.19	11096.48
702.32	11241.59
702.46	10853.06
702.59	10721.99
702.72	10918.60
702.85	10698.59
702.99	10855.40
703.12	11150.31
703.25	10628.37
703.38	10611.99
703.51	10658.80
703.65	10719.65
703.78	10541.77
703.91	10417.72
704.04	10782.85
704.17	10637.73
704.31	10361.55
704.44	10499.64
704.57	10305.38
704.70	10171.97
704.83	10359.21
704.96	9961.32
705.10	9984.73
705.23	9825.57
>>>>>End Processed Spectral Data<<<<<
