SpectraSuite Data File
++++++++++++++++++++++++++++++++++++
Date: Fri Oct 18 13:58:14 GMT-05:00 2013
User: bianchi
Dark Spectrum Present: No
Reference Spectrum Present: No
Number of Sampled Component Spectra: 1
Spectrometers: USB2+H05261
Integration Time (usec): 50000 (USB2+H05261)
Spectra Averaged: 1 (USB2+H05261)
Boxcar Smoothing: 0 (USB2+H05261)
Correct for Electrical Dark: No (USB2+H05261)
Strobe/Lamp Enabled: No (USB2+H05261)
Correct for Detector Non-linearity: No (USB2+H05261)
Correct for Stray Light: No (USB2+H05261)
Number of Pixels in Processed Spectrum: 2048
>>>>>Begin Processed Spectral Data<<<<<
365.73	0.00
365.92	0.00
366.12	0.00
366.32	0.00
366.52	0.00
366.72	0.00
366.91	0.00
367.11	0.00
367.31	0.00
367.51	0.00
367.70	0.00
367.90	0.00
368.10	0.00
368.30	0.00
368.49	0.00
368.69	0.00
368.89	0.00
369.09	0.00
369.28	0.00
369.48	0.00
369.68	0.00
369.87	0.00
370.07	0.00
370.27	0.00
370.47	4.68
370.66	74.90
370.86	159.16
371.06	189.58
371.25	77.24
371.45	140.43
371.65	175.54
371.84	102.98
372.04	131.07
372.24	149.79
372.44	238.73
372.63	212.99
372.83	243.42
373.03	154.48
373.22	180.22
373.42	231.71
373.62	212.99
373.81	210.65
374.01	194.26
374.21	217.67
374.40	250.44
374.60	280.86
374.79	269.16
374.99	133.41
375.19	304.27
375.38	229.37
375.58	264.48
375.78	234.05
375.97	278.52
376.17	287.89
376.37	215.33
376.56	234.05
376.76	264.48
376.95	168.52
377.15	262.14
377.35	283.20
377.54	322.99
377.74	159.16
377.93	182.56
378.13	285.55
378.33	278.52
378.52	318.31
378.72	322.99
378.91	220.01
379.11	245.76
379.31	215.33
379.50	306.61
379.70	290.23
379.89	257.46
380.09	330.02
380.28	301.93
380.48	390.87
380.68	294.91
380.87	245.76
381.07	325.33
381.26	252.78
381.46	330.02
381.65	341.72
381.85	243.42
382.04	344.06
382.24	430.66
382.43	255.12
382.63	416.62
382.83	330.02
383.02	285.55
383.22	346.40
383.41	390.87
383.61	491.51
383.80	428.32
384.00	414.27
384.19	325.33
384.39	400.23
384.58	365.12
384.78	332.36
384.97	486.83
385.17	376.83
385.36	353.42
385.56	407.25
385.75	416.62
385.95	393.21
386.14	365.12
386.34	505.56
386.53	442.36
386.72	400.23
386.92	479.81
387.11	447.04
387.31	430.66
387.50	400.23
387.70	503.22
387.89	470.45
388.09	468.11
388.28	505.56
388.48	454.06
388.67	498.53
388.86	442.36
389.06	491.51
389.25	465.77
389.45	374.49
389.64	421.30
389.84	505.56
390.03	547.69
390.22	493.85
390.42	578.11
390.61	393.21
390.81	451.72
391.00	547.69
391.19	472.79
391.39	528.96
391.58	477.47
391.78	505.56
391.97	540.66
392.16	535.98
392.36	531.30
392.55	585.13
392.75	514.92
392.94	627.26
393.13	461.09
393.33	543.00
393.52	503.22
393.71	526.62
393.91	528.96
394.10	592.16
394.29	571.09
394.49	699.82
394.68	592.16
394.88	594.50
395.07	615.56
395.26	613.22
395.46	688.12
395.65	599.18
395.84	667.05
396.04	688.12
396.23	601.52
396.42	638.97
396.62	638.97
396.81	657.69
397.00	690.46
397.19	685.78
397.39	587.47
397.58	653.01
397.77	657.69
397.97	826.21
398.16	671.73
398.35	725.57
398.55	664.71
398.74	720.88
398.93	699.82
399.12	765.36
399.32	741.95
399.51	725.57
399.70	802.80
399.90	767.70
400.09	770.04
400.28	788.76
400.47	791.10
400.67	791.10
400.86	767.70
401.05	844.93
401.24	751.31
401.44	910.47
401.63	732.59
401.82	842.59
402.01	805.14
402.21	851.96
402.40	826.21
402.59	791.10
402.78	819.19
402.97	849.61
403.17	884.72
403.36	873.02
403.55	835.57
403.74	877.70
403.93	973.66
404.13	912.81
404.32	950.26
404.51	901.11
404.70	954.94
404.89	968.98
405.09	971.32
405.28	924.51
405.47	999.41
405.66	971.32
405.85	985.37
406.05	912.81
406.24	1050.90
406.43	940.90
406.62	978.34
406.81	1029.84
407.00	1048.56
407.20	1022.81
407.39	1034.52
407.58	1109.41
407.77	1118.78
407.96	1055.58
408.15	1146.86
408.34	1116.44
408.54	1064.94
408.73	1078.99
408.92	1043.88
409.11	1128.14
409.30	1078.99
409.49	1135.16
409.68	1100.05
409.87	1142.18
410.07	1242.82
410.26	1137.50
410.45	1196.01
410.64	1221.76
410.83	1252.19
411.02	1268.57
411.21	1221.76
411.40	1259.21
411.59	1320.06
411.78	1261.55
411.98	1261.55
412.17	1322.40
412.36	1376.24
412.55	1364.53
412.74	1315.38
412.93	1453.47
413.12	1240.48
413.31	1362.19
413.50	1380.92
413.69	1453.47
413.88	1460.49
414.07	1481.56
414.26	1488.58
414.45	1486.24
414.64	1430.07
414.83	1521.35
415.02	1530.71
415.22	1563.48
415.41	1591.56
415.60	1582.20
415.79	1647.74
415.98	1584.54
416.17	1687.53
416.36	1568.16
416.55	1607.95
416.74	1668.80
416.93	1666.46
417.12	1589.22
417.31	1708.59
417.50	1856.04
417.69	1734.34
417.88	1846.68
418.07	1753.06
418.26	1767.10
418.45	1741.36
418.64	1769.44
418.83	1842.00
419.02	1820.94
419.21	1778.81
419.39	1830.30
419.58	1734.34
419.77	1827.96
419.96	1930.94
420.15	1977.75
420.34	1921.58
420.53	1846.68
420.72	1982.43
420.91	1916.90
421.10	1944.99
421.29	2071.37
421.48	1914.56
421.67	1961.37
421.86	2033.93
422.05	2054.99
422.24	1944.99
422.43	1984.77
422.61	1987.11
422.80	1961.37
422.99	2057.33
423.18	2050.31
423.37	2118.18
423.56	1952.01
423.75	1998.82
423.94	1989.46
424.13	1930.94
424.32	1980.09
424.50	2085.42
424.69	2134.57
424.88	2073.71
425.07	2090.10
425.26	2036.27
425.45	1991.80
425.64	1996.48
425.83	2047.97
426.01	2066.69
426.20	2071.37
426.39	2190.74
426.58	2083.08
426.77	2092.44
426.96	2054.99
427.15	2146.27
427.33	2108.82
427.52	2083.08
427.71	2129.89
427.90	2148.61
428.09	2202.44
428.28	2083.08
428.46	2256.28
428.65	2286.70
428.84	2349.90
429.03	2349.90
429.22	2169.68
429.40	2221.17
429.59	2169.68
429.78	2218.83
429.97	2190.74
430.16	2375.64
430.34	2253.94
430.53	2326.49
430.72	2333.51
430.91	2356.92
431.10	2359.26
431.28	2387.35
431.47	2471.61
431.66	2420.11
431.85	2396.71
432.03	2478.63
432.22	2574.59
432.41	2499.69
432.60	2546.50
432.79	2455.22
432.97	2499.69
433.16	2448.20
433.35	2417.77
433.54	2546.50
433.72	2649.49
433.91	2588.63
434.10	2436.50
434.28	2633.10
434.47	2619.06
434.66	2647.15
434.85	2616.72
435.03	2597.99
435.22	2534.80
435.41	2806.30
435.59	2595.65
435.78	2686.94
435.97	2637.78
436.16	2672.89
436.34	2621.40
436.53	2675.23
436.72	2726.72
436.90	2703.32
437.09	2794.60
437.28	2626.08
437.46	2736.09
437.65	2724.38
437.84	2827.37
438.02	2850.77
438.21	2906.95
438.40	2820.35
438.58	2892.90
438.77	2864.82
438.96	2953.76
439.14	2984.18
439.33	2890.56
439.52	2897.58
439.70	3112.91
439.89	2977.16
440.08	3056.74
440.26	3080.14
440.45	3115.25
440.63	3157.38
440.82	3169.09
441.01	3131.64
441.19	3300.16
441.38	3297.81
441.57	3164.40
441.75	3166.74
441.94	3171.43
442.12	3330.58
442.31	3447.61
442.50	3468.67
442.68	3391.44
442.87	3288.45
443.05	3412.50
443.24	3410.16
443.43	3372.71
443.61	3316.54
443.80	3548.25
443.98	3346.97
444.17	3417.18
444.35	3407.82
444.54	3431.23
444.73	3468.67
444.91	3466.33
445.10	3515.48
445.28	3459.31
445.47	3435.91
445.65	3417.18
445.84	3592.72
446.02	3419.52
446.21	3351.65
446.39	3421.86
446.58	3552.93
446.77	3581.02
446.95	3386.76
447.14	3527.19
447.32	3592.72
447.51	3449.95
447.69	3536.55
447.88	3597.40
448.06	3686.34
448.25	3564.64
448.43	3679.32
448.62	3562.30
448.80	3609.11
448.99	3681.66
449.17	3590.38
449.36	3548.25
449.54	3726.13
449.73	3616.13
449.91	3838.48
450.10	3784.65
450.28	3681.66
450.46	3679.32
450.65	3705.07
450.83	3784.65
451.02	3850.18
451.20	3880.61
451.39	3805.71
451.57	3786.99
451.76	3707.41
451.94	3735.50
452.13	3676.98
452.31	3847.84
452.49	3749.54
452.68	3911.04
452.86	3953.16
453.05	4025.72
453.23	4023.38
453.42	3868.91
453.60	3859.54
453.78	3899.33
453.97	3929.76
454.15	3985.93
454.34	3960.19
454.52	4060.83
454.70	4025.72
454.89	4030.40
455.07	4025.72
455.26	4229.35
455.44	4196.58
455.62	4067.85
455.81	4194.24
455.99	4081.89
456.17	4095.94
456.36	4145.09
456.54	4285.52
456.73	4367.44
456.91	4278.50
457.09	4306.59
457.28	4311.27
457.46	4269.14
457.64	4447.02
457.83	4351.06
458.01	4262.12
458.19	4402.55
458.38	4400.21
458.56	4510.21
458.74	4454.04
458.93	4456.38
459.11	4416.59
459.29	4524.26
459.48	4456.38
459.66	4510.21
459.84	4582.77
460.03	4676.39
460.21	4634.26
460.39	4587.45
460.57	4650.64
460.76	4676.39
460.94	4608.51
461.12	4573.41
461.31	4664.69
461.49	4751.29
461.67	4559.36
461.85	4674.05
462.04	4842.57
462.22	4940.87
462.40	4901.08
462.59	4809.80
462.77	4992.36
462.95	4868.31
463.13	4865.97
463.32	4898.74
463.50	4903.42
463.68	4894.06
463.86	4929.17
464.05	4912.78
464.23	4844.91
464.41	5067.26
464.59	4980.66
464.78	5116.41
464.96	4943.21
465.14	4968.96
465.32	5053.22
465.50	4994.70
465.69	5067.26
465.87	5125.77
466.05	5048.54
466.23	5025.13
466.41	5093.01
466.60	5198.33
466.78	5205.35
466.96	5170.24
467.14	5179.61
467.32	5041.51
467.51	5259.18
467.69	5029.81
467.87	5116.41
468.05	5172.58
468.23	5107.05
468.41	5263.86
468.60	5341.10
468.78	5263.86
468.96	5256.84
469.14	5376.21
469.32	5437.06
469.50	5193.65
469.69	5502.60
469.87	5425.36
470.05	5507.28
470.23	5495.58
470.41	5406.64
470.59	5479.19
470.77	5591.54
470.95	5563.45
471.14	5448.77
471.32	5516.64
471.50	5516.64
471.68	5640.69
471.86	5610.26
472.04	5621.97
472.22	5809.21
472.40	5612.60
472.58	5841.98
472.77	5626.65
472.95	5802.19
473.13	6050.28
473.31	5951.98
473.49	5827.93
473.67	5933.26
473.85	5886.45
474.03	6148.59
474.21	6064.33
474.39	6040.92
474.57	6207.10
474.75	6216.46
474.93	6249.23
475.12	6157.95
475.30	6239.87
475.48	6118.16
475.66	6424.77
475.84	6359.24
476.02	6408.39
476.20	6373.28
476.38	6445.84
476.56	6614.35
476.74	6766.49
476.92	6642.44
477.10	6581.59
477.28	6867.13
477.46	6670.53
477.64	6705.63
477.82	6939.69
478.00	6995.86
478.18	6867.13
478.36	6930.33
478.54	7194.81
478.72	7185.44
478.90	7157.36
479.08	7232.26
479.26	7353.96
479.44	7403.11
479.62	7445.24
479.80	7522.48
479.98	7578.65
480.16	7676.96
480.34	7620.78
480.52	7859.52
480.70	7789.30
480.88	7662.91
481.06	7737.81
481.24	7929.74
481.41	7974.21
481.59	7936.76
481.77	8173.15
481.95	8093.57
482.13	8414.23
482.31	8229.32
482.49	8414.23
482.67	8196.56
482.85	8472.74
483.03	8608.49
483.21	8781.69
483.39	8809.78
483.57	8781.69
483.74	8683.39
483.92	8879.99
484.10	8968.93
484.28	9107.02
484.46	9376.19
484.64	9341.08
484.82	9001.70
485.00	9217.03
485.18	9254.48
485.35	9610.24
485.53	9493.21
485.71	9451.08
485.89	9745.99
486.07	9575.13
486.25	9804.50
486.43	9734.29
486.61	9966.00
486.78	9951.96
486.96	10101.75
487.14	10256.23
487.32	10183.67
487.50	10174.31
487.68	10274.95
487.85	10712.63
488.03	10619.01
488.21	10640.08
488.39	10714.97
488.57	10729.02
488.75	10869.45
488.92	11101.16
489.10	10991.16
489.28	11084.78
489.46	11309.47
489.64	11023.92
489.81	11328.19
489.99	11485.01
490.17	11386.71
490.35	11716.72
490.53	11485.01
490.70	11721.40
490.88	11676.93
491.06	11906.31
491.24	11728.42
491.41	11889.92
491.59	12086.53
491.77	12123.98
491.95	12320.58
492.13	12236.32
492.30	12437.61
492.48	12716.13
492.66	12596.76
492.84	12367.39
493.01	12676.34
493.19	12858.90
493.37	12688.04
493.54	12814.43
493.72	13107.00
493.90	13104.66
494.08	12947.84
494.25	13165.51
494.43	13334.03
494.61	13310.63
494.79	13540.00
494.96	13516.59
495.14	13540.00
495.32	13708.52
495.49	13823.20
495.67	13788.10
495.85	13916.83
496.02	13975.34
496.20	13862.99
496.38	14129.81
496.55	14024.49
496.73	14356.85
496.91	14087.68
497.09	14410.68
497.26	14408.34
497.44	14511.32
497.62	14693.88
497.79	14466.85
497.97	14626.01
498.14	14626.01
498.32	15044.96
498.50	15016.88
498.67	15145.61
498.85	15073.05
499.03	15353.91
499.20	15445.20
499.38	15438.17
499.56	15616.05
499.73	15447.54
499.91	15477.96
500.08	15590.31
500.26	15290.72
500.44	15620.74
500.61	15693.29
500.79	15922.66
500.97	15957.77
501.14	16217.57
501.32	16205.87
501.49	16098.20
501.67	15740.10
501.84	16091.18
502.02	16229.27
502.20	16182.46
502.37	16638.87
502.55	16109.91
502.72	16475.03
502.90	16477.37
503.07	16489.07
503.25	16655.25
503.43	16673.98
503.60	16720.79
503.78	16879.94
503.95	16896.33
504.13	16669.30
504.30	17081.23
504.48	16950.16
504.65	17121.02
504.83	17170.17
505.01	17284.86
505.18	17055.48
505.36	17245.07
505.53	17043.78
505.71	17448.69
505.88	17467.42
506.06	16973.56
506.23	17488.48
506.41	17376.14
506.58	17680.41
506.76	17612.53
506.93	17788.07
507.11	17266.13
507.28	17603.17
507.46	17834.88
507.63	17759.98
507.81	17951.91
507.98	17984.68
508.16	17902.76
508.33	18211.71
508.50	18134.47
508.68	17989.36
508.85	18153.20
509.03	18127.45
509.20	18382.57
509.38	18647.05
509.55	18478.53
509.73	18686.84
509.90	18565.13
510.08	18265.54
510.25	18654.07
510.42	18813.23
510.60	18890.46
510.77	18965.36
510.95	19047.28
511.12	18913.87
511.30	18836.63
511.47	19056.64
511.64	19012.17
511.82	19117.50
511.99	19084.73
512.17	19295.38
512.34	19318.78
512.51	19183.03
512.69	19669.86
512.86	19274.31
513.04	19583.26
513.21	19576.24
513.38	19679.22
513.56	19747.10
513.73	19529.43
513.90	19756.46
514.08	19690.93
514.25	19829.02
514.43	20187.12
514.60	20311.17
514.77	20201.16
514.95	20402.45
515.12	20081.80
515.29	20067.75
515.47	20428.20
515.64	20411.81
515.81	20580.33
515.99	20308.83
516.16	20711.40
516.33	20491.39
516.51	20615.44
516.68	20428.20
516.85	20531.18
517.03	20304.15
517.20	20680.97
517.37	20730.12
517.54	20900.98
517.72	20823.75
517.89	21003.97
518.06	20732.47
518.24	20636.50
518.41	20905.66
518.58	21378.45
518.75	21195.89
518.93	21692.08
519.10	21181.85
519.27	21481.44
519.45	20996.95
519.62	21242.70
519.79	21238.02
519.96	21418.24
520.14	21727.19
520.31	21399.52
520.48	21783.37
520.65	21607.83
520.83	21764.64
521.00	21462.71
521.17	21781.03
521.34	21762.30
521.52	21876.99
521.69	21743.58
521.86	22047.85
522.03	22188.28
522.20	22342.75
522.38	22209.34
522.55	21944.86
522.72	22017.42
522.89	22174.24
523.07	22319.35
523.24	22167.21
523.41	22558.08
523.58	22197.64
523.75	22394.25
523.92	22394.25
524.10	22466.80
524.27	22302.96
524.44	22574.47
524.61	22820.22
524.78	22963.00
524.96	22923.21
525.13	22742.99
525.30	22984.06
525.47	22988.74
525.64	22970.02
525.81	22885.76
525.98	23234.50
526.16	23215.77
526.33	22836.61
526.50	23372.59
526.67	23267.27
526.84	23075.34
527.01	23234.50
527.18	23438.12
527.36	23449.83
527.53	23403.02
527.70	23363.23
527.87	23686.22
528.04	23566.85
528.21	23674.52
528.38	23428.76
528.55	23393.65
528.72	23297.69
528.89	23655.79
529.07	23491.96
529.24	23555.15
529.41	23550.47
529.58	23922.62
529.75	23695.58
529.92	23962.40
530.09	23889.85
530.26	24088.79
530.43	23957.72
530.60	24135.60
530.77	23950.70
530.94	24350.93
531.11	23861.76
531.28	23922.62
531.46	24283.06
531.63	23812.61
531.80	24149.65
531.97	24322.85
532.14	24648.18
532.31	24519.45
532.48	24109.86
532.65	24709.04
532.82	24402.43
532.99	24533.50
533.16	24456.26
533.33	24458.60
533.50	24828.40
533.67	25039.05
533.84	24535.84
534.01	24519.45
534.18	24718.40
534.35	24938.41
534.52	24776.91
534.69	24910.32
534.86	25116.29
535.03	24823.72
535.20	25001.60
535.37	24790.95
535.54	25099.90
535.71	24699.67
535.88	25106.93
536.05	24648.18
536.22	25434.60
536.38	25230.98
536.55	25476.73
536.72	25303.53
536.89	25303.53
537.06	25741.21
537.23	25055.43
537.40	25146.72
537.57	25324.60
537.74	25436.94
537.91	25516.52
538.08	25486.09
538.25	25593.76
538.42	25483.75
538.59	25806.75
538.75	25701.42
538.92	25865.26
539.09	25788.02
539.26	25748.23
539.43	25678.02
539.60	25841.85
539.77	25848.88
539.94	26073.57
540.11	25776.32
540.28	25867.60
540.44	26082.93
540.61	25886.32
540.78	26188.25
540.95	26228.04
541.12	26129.74
541.29	25907.39
541.46	26136.76
541.62	25741.21
541.79	26064.21
541.96	25893.35
542.13	26244.43
542.30	26096.97
542.47	26356.77
542.63	26607.21
542.80	26654.02
542.97	26625.93
543.14	26710.19
543.31	26464.44
543.48	26576.78
543.64	27026.17
543.81	26904.46
543.98	26682.11
544.15	26946.59
544.32	26955.95
544.48	27178.30
544.65	27246.18
544.82	26855.31
544.99	26661.04
545.16	26792.11
545.32	26632.96
545.49	27325.75
545.66	27564.49
545.83	27632.36
546.00	27211.07
546.16	27063.61
546.33	27014.46
546.50	26906.80
546.67	27028.51
546.83	26780.41
547.00	27222.77
547.17	27367.88
547.34	27438.10
547.50	27496.61
547.67	27440.44
547.84	27578.53
548.00	27510.66
548.17	27817.27
548.34	27384.27
548.51	27651.09
548.67	27576.19
548.84	27328.10
549.01	27728.33
549.18	27702.58
549.34	27882.80
549.51	27564.49
549.68	27845.35
549.84	27566.83
550.01	28018.55
550.18	27545.76
550.34	27702.58
550.51	27992.81
550.68	28084.09
550.84	27950.68
551.01	27936.63
551.18	27721.30
551.34	27667.47
551.51	27997.49
551.68	28002.17
551.84	28056.00
552.01	27880.46
552.18	28116.86
552.34	28166.01
552.51	28446.87
552.68	28407.08
552.84	28294.74
553.01	28243.24
553.18	28416.44
553.34	28266.65
553.51	28060.68
553.67	28444.53
553.84	28428.15
554.01	28105.15
554.17	28439.85
554.34	28645.82
554.51	28208.14
554.67	28465.60
554.84	28500.70
555.00	28723.05
555.17	28327.50
555.33	28966.47
555.50	28889.23
555.67	28877.53
555.83	28697.31
556.00	28758.16
556.16	28563.90
556.33	28599.01
556.50	28418.78
556.66	28912.64
556.83	28858.81
556.99	29301.17
557.16	29088.18
557.32	28868.17
557.49	28837.74
557.65	28315.80
557.82	28996.90
557.98	28575.60
558.15	28772.21
558.32	29090.52
558.48	28723.05
558.65	29436.92
558.81	29177.12
558.98	29053.07
559.14	28837.74
559.31	28879.87
559.47	29151.37
559.64	29174.78
559.80	29057.75
559.97	29275.42
560.13	29177.12
560.30	29172.44
560.46	29486.07
560.63	29142.01
560.79	29092.86
560.96	29069.45
561.12	29490.75
561.29	29142.01
561.45	29523.52
561.61	29195.84
561.78	29165.42
561.94	29511.81
562.11	29413.51
562.27	29029.66
562.44	29252.02
562.60	29551.60
562.77	29195.84
562.93	29132.65
563.10	29563.31
563.26	29259.04
563.42	30082.91
563.59	29809.06
563.75	29851.19
563.92	29670.97
564.08	29212.23
564.24	29525.86
564.41	29455.64
564.57	29233.29
564.74	29509.47
564.90	29575.01
565.07	29717.78
565.23	29422.87
565.39	30052.48
565.56	29830.13
565.72	29474.37
565.88	29333.93
566.05	29462.66
566.21	29619.48
566.38	29958.86
566.54	29916.73
566.70	29788.00
566.87	29624.16
567.03	30256.11
567.19	29935.45
567.36	29642.88
567.52	29266.06
567.68	29806.72
567.85	29563.31
568.01	30232.70
568.17	29647.57
568.34	29865.24
568.50	29940.13
568.66	29944.81
568.83	29996.31
568.99	29919.07
569.15	29895.66
569.32	29549.26
569.48	30115.67
569.64	30064.18
569.81	29720.12
569.97	29958.86
570.13	29792.68
570.30	29729.48
570.46	29914.39
570.62	30153.12
570.78	30003.33
570.95	29605.44
571.11	29986.94
571.27	29537.56
571.43	29780.98
571.60	29926.09
571.76	30008.01
571.92	29855.87
572.09	30052.48
572.25	30059.50
572.41	30108.65
572.57	29914.39
572.74	29996.31
572.90	29823.11
573.06	29942.47
573.22	30160.14
573.38	30080.56
573.55	29937.79
573.71	30199.93
573.87	30253.76
574.03	30059.50
574.20	30054.82
574.36	30136.74
574.52	29879.28
574.68	30129.72
574.84	29701.40
575.01	30171.85
575.17	30010.35
575.33	30000.99
575.49	30087.59
575.65	30188.23
575.82	30309.94
575.98	30092.27
576.14	30122.69
576.30	29979.92
576.46	30092.27
576.62	30298.23
576.79	30150.78
576.95	29937.79
577.11	30249.08
577.27	29837.15
577.43	30410.58
577.59	30412.92
577.75	30508.88
577.92	30073.54
578.08	30246.74
578.24	30221.00
578.40	29780.98
578.56	30354.41
578.72	30576.76
578.88	30532.29
579.04	30445.69
579.21	30331.00
579.37	30590.80
579.53	30408.24
579.69	30333.34
579.85	30113.33
580.01	30162.48
580.17	29984.60
580.33	30370.79
580.49	30008.01
580.65	30188.23
580.82	30693.79
580.98	30272.49
581.14	30527.61
581.30	30445.69
581.46	30162.48
581.62	30499.52
581.78	30206.95
581.94	30375.47
582.10	29818.42
582.26	30183.55
582.42	30651.66
582.58	30480.80
582.74	30239.72
582.90	30405.90
583.06	30188.23
583.22	30195.25
583.38	30321.64
583.54	30522.93
583.70	30309.94
583.86	30331.00
584.02	30412.92
584.18	30387.18
584.34	30408.24
584.50	30398.88
584.66	30551.01
584.82	30031.41
584.98	30429.30
585.14	30195.25
585.30	30085.25
585.46	30363.77
585.62	29909.71
585.78	30756.98
585.94	30174.19
586.10	30611.87
586.26	30487.82
586.42	30569.74
586.58	30904.43
586.74	30548.67
586.90	30370.79
587.06	30017.37
587.22	30501.86
587.38	30237.38
587.54	30398.88
587.70	30625.91
587.86	30836.56
588.02	30314.62
588.18	30288.87
588.34	30724.21
588.49	30588.46
588.65	30394.20
588.81	30298.23
588.97	30424.62
589.13	30518.25
589.29	30483.14
589.45	30541.65
589.61	30991.03
589.77	31005.08
589.93	30817.83
590.08	31023.80
590.24	30864.64
590.40	30637.61
590.56	30614.21
590.72	30562.72
590.88	30267.81
591.04	30527.61
591.20	31070.61
591.35	31255.51
591.51	31594.89
591.67	30712.51
591.83	31234.45
591.99	31131.47
592.15	31117.42
592.31	30920.82
592.46	30700.81
592.62	30635.27
592.78	30686.76
592.94	30499.52
593.10	30831.88
593.26	31194.66
593.41	31143.17
593.57	30817.83
593.73	31049.55
593.89	30984.01
594.05	31194.66
594.20	30672.72
594.36	30668.04
594.52	30745.28
594.68	30789.75
594.84	30569.74
594.99	31044.87
595.15	30661.02
595.31	30874.01
595.47	31152.53
595.62	30937.20
595.78	30707.83
595.94	30984.01
596.10	30944.22
596.25	30817.83
596.41	30614.21
596.57	30874.01
596.73	30878.69
596.88	30785.07
597.04	30995.71
597.20	31112.74
597.36	30941.88
597.51	31445.10
597.67	31250.83
597.83	31000.40
597.99	31019.12
598.14	30881.03
598.30	31449.78
598.46	30913.80
598.61	30782.73
598.77	30897.41
598.93	31386.58
599.09	30742.94
599.24	31459.14
599.40	31538.72
599.56	31192.32
599.71	30885.71
599.87	31421.69
600.03	30862.30
600.18	31358.50
600.34	31000.40
600.50	30675.06
600.65	30955.93
600.81	31079.97
600.97	31405.31
601.12	31620.64
601.28	31264.88
601.44	31267.22
601.59	31199.34
601.75	31115.08
601.91	31323.39
602.06	30913.80
602.22	31023.80
602.37	31061.25
602.53	31065.93
602.69	31358.50
602.84	30916.14
603.00	31143.17
603.16	31173.60
603.31	31323.39
603.47	31276.58
603.62	30663.36
603.78	31091.68
603.94	30740.60
604.09	30766.34
604.25	31005.08
604.40	31103.38
604.56	31119.76
604.71	31197.00
604.87	30974.65
605.03	31168.91
605.18	31091.68
605.34	31037.84
605.49	30654.00
605.65	30682.08
605.80	30759.32
605.96	30595.48
606.12	30909.11
606.27	30960.61
606.43	30778.04
606.58	31241.47
606.74	30787.41
606.89	30991.03
607.05	31307.01
607.20	31068.27
607.36	30831.88
607.51	30684.42
607.67	31117.42
607.82	30279.51
607.98	30761.66
608.13	31211.04
608.29	30515.90
608.44	30838.90
608.60	31030.82
608.75	30951.24
608.91	30965.29
609.06	30574.42
609.22	30658.68
609.37	30988.69
609.53	30630.59
609.68	30579.10
609.84	30476.12
609.99	30773.36
610.15	30265.47
610.30	30614.21
610.46	30391.86
610.61	30993.37
610.76	31194.66
610.92	30864.64
611.07	30890.39
611.23	30658.68
611.38	30794.43
611.54	30543.99
611.69	30558.03
611.84	30277.17
612.00	30265.47
612.15	30991.03
612.31	30602.50
612.46	30347.39
612.62	30731.23
612.77	30230.36
612.92	30562.72
613.08	30637.61
613.23	30658.68
613.39	30323.98
613.54	30473.78
613.69	30132.06
613.85	30225.68
614.00	30590.80
614.15	30740.60
614.31	30288.87
614.46	30831.88
614.62	30466.75
614.77	30349.73
614.92	30801.45
615.08	30347.39
615.23	30480.80
615.38	30600.16
615.54	29968.22
615.69	29954.18
615.84	30525.27
616.00	30204.61
616.15	30279.51
616.30	30064.18
616.46	30068.86
616.61	30221.00
616.76	30333.34
616.92	30174.19
617.07	30199.93
617.22	30251.42
617.37	30384.83
617.53	30768.68
617.68	30169.51
617.83	29809.06
617.99	29968.22
618.14	30391.86
618.29	30143.76
618.45	30073.54
618.60	30244.40
618.75	30026.73
618.90	30017.37
619.06	30221.00
619.21	29621.82
619.36	30246.74
619.51	30010.35
619.67	29614.80
619.82	29956.52
619.97	30059.50
620.12	29865.24
620.28	29736.51
620.43	29809.06
620.58	30022.05
620.73	29954.18
620.89	29741.19
621.04	30239.72
621.19	29825.45
621.34	29916.73
621.49	29586.71
621.65	29792.68
621.80	29656.93
621.95	29591.39
622.10	29567.99
622.25	29715.44
622.41	29600.76
622.56	29900.34
622.71	29841.83
622.86	29853.53
623.01	29544.58
623.16	29710.76
623.32	29446.28
623.47	29357.34
623.62	29273.08
623.77	29619.48
623.92	29591.39
624.07	29696.72
624.23	29486.07
624.38	29748.21
624.53	29806.72
624.68	29413.51
624.83	29764.59
624.98	29333.93
625.13	29046.05
625.29	29535.22
625.44	29460.32
625.59	29069.45
625.74	29036.69
625.89	29359.68
626.04	29305.85
626.19	29479.05
626.34	29139.67
626.49	29008.60
626.65	29142.01
626.80	29500.11
626.95	29006.26
627.10	28809.65
627.25	28580.28
627.40	29125.63
627.55	29055.41
627.70	29280.10
627.85	28797.95
628.00	29006.26
628.15	28814.34
628.30	28755.82
628.45	28842.42
628.60	28842.42
628.76	29249.67
628.91	28936.04
629.06	29006.26
629.21	29230.95
629.36	28781.57
629.51	28945.41
629.66	28884.55
629.81	28613.05
629.96	28620.07
630.11	28538.15
630.26	28320.48
630.41	28680.92
630.56	28474.96
630.71	28882.21
630.86	28531.13
631.01	28758.16
631.16	28570.92
631.31	28561.56
631.46	28641.14
631.61	28753.48
631.76	28716.03
631.91	28577.94
632.06	28804.97
632.21	28079.41
632.36	28437.51
632.51	28472.62
632.66	28233.88
632.81	28217.50
632.96	28503.04
633.10	28582.62
633.25	28264.31
633.40	28386.02
633.55	28276.01
633.70	28456.23
633.85	28158.99
634.00	28144.94
634.15	28196.43
634.30	27910.89
634.45	28133.24
634.60	28416.44
634.75	28112.17
634.90	27964.72
635.05	28287.71
635.19	27763.43
635.34	28458.57
635.49	28496.02
635.64	28070.04
635.79	28184.73
635.94	27978.76
636.09	28119.20
636.24	28016.21
636.39	28034.94
636.53	28203.46
636.68	27861.74
636.83	27828.97
636.98	28098.13
637.13	28142.60
637.28	27843.01
637.43	28079.41
637.57	28210.48
637.72	27775.14
637.87	28161.33
638.02	27597.26
638.17	27775.14
638.32	27716.62
638.46	28034.94
638.61	27803.22
638.76	27377.25
638.91	27435.76
639.06	27576.19
639.20	27763.43
639.35	28184.73
639.50	27812.59
639.65	28140.26
639.80	27868.76
639.94	27723.65
640.09	27468.53
640.24	27798.54
640.39	27728.33
640.54	27349.16
640.68	27278.94
640.83	27714.28
640.98	27267.24
641.13	27386.61
641.27	27548.11
641.42	27262.56
641.57	27644.07
641.72	27522.36
641.86	27520.02
642.01	27084.68
642.16	27072.98
642.31	27225.11
642.45	27695.56
642.60	27014.46
642.75	26969.99
642.90	27166.60
643.04	27150.21
643.19	27005.10
643.34	26909.14
643.48	27267.24
643.63	27405.33
643.78	27295.33
643.93	27105.74
644.07	27271.92
644.22	27229.79
644.37	27030.85
644.51	27358.52
644.66	26845.94
644.81	26892.76
644.95	26803.82
645.10	26368.48
645.25	26974.67
645.39	26686.79
645.54	27110.43
645.69	26986.38
645.83	26810.84
645.98	27000.42
646.13	27087.02
646.27	26909.14
646.42	27077.66
646.57	26932.54
646.71	26796.79
646.86	26749.98
647.00	27227.45
647.15	26876.37
647.30	26857.65
647.44	26691.47
647.59	26888.07
647.74	26405.92
647.88	26656.36
648.03	26719.56
648.17	26689.13
648.32	26955.95
648.47	26838.92
648.61	26604.87
648.76	26962.97
648.90	26429.33
649.05	26958.29
649.20	26141.44
649.34	26485.50
649.49	26267.83
649.63	26192.94
649.78	26211.66
649.92	26380.18
650.07	26352.09
650.21	26452.73
650.36	26253.79
650.51	26546.36
650.65	26434.01
650.80	26691.47
650.94	26052.50
651.09	26204.64
651.23	26347.41
651.38	26258.47
651.52	26143.78
651.67	26356.77
651.81	26228.04
651.96	26342.73
652.10	26242.09
652.25	26309.96
652.39	26459.76
652.54	26757.00
652.68	26466.78
652.83	26136.76
652.97	26455.08
653.12	26267.83
653.26	26071.23
653.41	26050.16
653.55	26001.01
653.70	25848.88
653.84	26050.16
653.99	25935.48
654.13	26167.19
654.27	26223.36
654.42	25982.29
654.56	25909.73
654.71	25900.37
654.85	26082.93
655.00	26331.03
655.14	26139.10
655.29	25986.97
655.43	25940.16
655.57	25521.20
655.72	25710.78
655.86	25865.26
656.01	25783.34
656.15	25755.26
656.30	25717.81
656.44	25701.42
656.58	25979.95
656.73	26036.12
656.87	25795.04
657.01	25802.07
657.16	25748.23
657.30	25806.75
657.45	25645.25
657.59	25504.82
657.73	25345.66
657.88	25816.11
658.02	25535.24
658.16	25558.65
658.31	25504.82
658.45	25333.96
658.60	25074.16
658.74	25436.94
658.88	25137.35
659.03	25228.63
659.17	25282.47
659.31	25366.73
659.46	25214.59
659.60	25238.00
659.74	25633.55
659.89	25376.09
660.03	24893.94
660.17	25617.16
660.32	24863.51
660.46	24847.13
660.60	24940.75
660.74	24641.16
660.89	24587.33
661.03	24573.28
661.17	24795.64
661.32	24781.59
661.46	25130.33
661.60	24694.99
661.74	25006.28
661.89	24685.63
662.03	24727.76
662.17	24655.20
662.31	24432.85
662.46	24926.71
662.60	24336.89
662.74	24734.78
662.88	24409.45
663.03	24168.37
663.17	24201.14
663.31	24201.14
663.45	24203.48
663.60	24222.20
663.74	24140.29
663.88	24334.55
664.02	24030.28
664.17	24657.54
664.31	24119.22
664.45	24170.71
664.59	23931.98
664.73	24240.93
664.88	23885.17
665.02	23800.91
665.16	23772.82
665.30	24156.67
665.44	23630.05
665.59	23786.86
665.73	23826.65
665.87	23641.75
666.01	23939.00
666.15	24137.94
666.29	24039.64
666.44	23768.14
666.58	23634.73
666.72	23208.75
666.86	23810.27
667.00	23599.62
667.14	23288.33
667.28	23606.64
667.43	23379.61
667.57	23967.09
667.71	23510.68
667.85	23344.50
667.99	23293.01
668.13	23440.47
668.27	23157.26
668.41	23449.83
668.56	22904.48
668.70	23463.87
668.84	23557.49
668.98	23236.84
669.12	23140.88
669.26	23281.31
669.40	23161.94
669.54	22906.82
669.68	23000.44
669.82	22778.09
669.96	22878.74
670.10	22684.47
670.25	23026.19
670.39	23105.77
670.53	23051.94
670.67	22654.05
670.81	22955.97
670.95	23002.78
671.09	22637.66
671.23	22506.59
671.37	22485.53
671.51	22419.99
671.65	22822.56
671.79	22494.89
671.93	22530.00
672.07	22574.47
672.21	22260.84
672.35	22195.30
672.49	22031.46
672.63	22366.16
672.77	22464.46
672.91	22066.57
673.05	22178.92
673.19	21724.85
673.33	22319.35
673.47	22071.25
673.61	21713.15
673.75	21947.20
673.89	21909.75
674.03	21965.93
674.17	21579.74
674.31	21804.43
674.45	21610.17
674.59	21640.59
674.73	21635.91
674.87	21408.88
675.01	21553.99
675.15	21144.40
675.29	21289.51
675.43	21568.04
675.56	21369.09
675.70	21305.90
675.84	21282.49
675.98	21029.71
676.12	21209.93
676.26	21387.82
676.40	20875.24
676.54	21118.65
676.68	20915.03
676.82	20262.02
676.96	21151.42
677.10	20603.74
677.23	20432.88
677.37	20531.18
677.51	20407.13
677.65	20702.04
677.79	20439.90
677.93	20463.30
678.07	20259.68
678.21	20271.38
678.34	20432.88
678.48	20369.68
678.62	20334.57
678.76	19941.36
678.90	20046.69
679.04	20006.90
679.18	20107.54
679.31	19604.33
679.45	19974.13
679.59	19637.09
679.73	19669.86
679.87	19583.26
680.00	19417.08
680.14	19290.70
680.28	19569.22
680.42	19138.56
680.56	19431.13
680.70	19255.59
680.83	19267.29
680.97	18974.72
681.11	19201.76
681.25	18993.45
681.39	18897.49
681.52	19201.76
681.66	18848.33
681.80	18672.79
681.94	18492.57
682.07	18771.10
682.21	18532.36
682.35	18530.02
682.49	18445.76
682.62	18836.63
682.76	18546.40
682.90	18525.34
683.04	18611.94
683.17	18389.59
683.31	18134.47
683.45	18398.95
683.59	18401.29
683.72	18153.20
683.86	18111.07
684.00	17912.12
684.13	17776.37
684.27	17818.50
684.41	17958.93
684.55	17565.72
684.68	17748.28
684.82	17507.21
684.96	17439.33
685.09	17383.16
685.23	17355.07
685.37	17397.20
685.50	17483.80
685.64	17640.62
685.78	17476.78
685.91	17397.20
686.05	17043.78
686.19	17233.36
686.32	17247.41
686.46	16863.56
686.60	16711.42
686.73	16713.77
686.87	16692.70
687.01	16535.88
687.14	16655.25
687.28	16585.04
687.42	16554.61
687.55	16449.28
687.69	16676.32
687.82	16449.28
687.96	16451.63
688.10	16397.79
688.23	16617.80
688.37	16093.52
688.50	16250.34
688.64	16374.39
688.78	16367.37
688.91	16053.73
689.05	16212.89
689.18	16013.95
689.32	15592.65
689.46	15545.84
689.59	15641.80
689.73	15700.31
689.86	15747.12
690.00	15634.78
690.13	15492.01
690.27	15520.09
690.41	15316.47
690.54	15365.62
690.68	15110.50
690.81	15351.57
690.95	15304.76
691.08	15197.10
691.22	15101.14
691.35	15197.10
691.49	14988.79
691.62	15152.63
691.76	14951.34
691.89	15059.01
692.03	14551.11
692.16	14530.05
692.30	14806.23
692.43	14518.34
692.57	14647.07
692.70	14469.19
692.84	14387.27
692.97	14321.74
693.11	14356.85
693.24	14424.72
693.38	14410.68
693.51	14260.88
693.65	14150.88
693.78	14160.24
693.92	14113.43
694.05	14202.37
694.19	13886.40
694.32	13900.44
694.45	13736.60
694.59	13654.69
694.72	13685.11
694.86	13603.19
694.99	13163.17
695.13	13668.73
695.26	13425.31
695.39	13481.49
695.53	13444.04
695.66	13542.34
695.80	13109.34
695.93	13441.70
696.07	13394.89
696.20	13261.48
696.33	13118.70
696.47	13050.83
696.60	13036.78
696.73	13076.57
696.87	12992.31
697.00	12842.52
697.14	12669.32
697.27	12596.76
697.40	12453.99
697.54	12657.62
697.67	12540.59
697.80	12393.14
697.94	12580.38
698.07	12458.67
698.21	12180.15
698.34	12517.18
698.47	12294.83
698.61	12451.65
698.74	12362.71
698.87	12496.12
699.01	12109.93
699.14	11868.86
699.27	11939.07
699.40	11929.71
699.54	11786.94
699.67	11822.05
699.80	11686.29
699.94	11719.06
700.07	11602.04
700.20	11604.38
700.34	11330.53
700.47	11552.88
700.60	11489.69
700.73	11606.72
700.87	11473.31
701.00	11377.34
701.13	11370.32
701.26	11276.70
701.40	11466.28
701.53	11407.77
701.66	11309.47
701.79	11091.80
701.93	10974.77
702.06	10902.22
702.19	10834.34
702.32	10656.46
702.46	10686.89
702.59	10675.18
702.72	10616.67
702.85	10539.43
702.99	10523.05
703.12	10466.88
703.25	10464.54
703.38	10572.20
703.51	10630.71
703.65	10614.33
703.78	10410.70
703.91	10399.00
704.04	10516.03
704.17	10284.31
704.31	10326.44
704.44	10211.76
704.57	10183.67
704.70	10012.81
704.83	10045.58
704.96	9970.68
705.10	10008.13
705.23	9638.33
>>>>>End Processed Spectral Data<<<<<
