SpectraSuite Data File
++++++++++++++++++++++++++++++++++++
Date: Fri Oct 18 13:58:04 GMT-05:00 2013
User: bianchi
Dark Spectrum Present: No
Reference Spectrum Present: No
Number of Sampled Component Spectra: 1
Spectrometers: USB2+H05261
Integration Time (usec): 50000 (USB2+H05261)
Spectra Averaged: 1 (USB2+H05261)
Boxcar Smoothing: 0 (USB2+H05261)
Correct for Electrical Dark: No (USB2+H05261)
Strobe/Lamp Enabled: No (USB2+H05261)
Correct for Detector Non-linearity: No (USB2+H05261)
Correct for Stray Light: No (USB2+H05261)
Number of Pixels in Processed Spectrum: 2048
>>>>>Begin Processed Spectral Data<<<<<
365.73	0.00
365.92	0.00
366.12	0.00
366.32	0.00
366.52	0.00
366.72	0.00
366.91	0.00
367.11	0.00
367.31	0.00
367.51	0.00
367.70	0.00
367.90	0.00
368.10	0.00
368.30	0.00
368.49	0.00
368.69	0.00
368.89	0.00
369.09	0.00
369.28	0.00
369.48	0.00
369.68	0.00
369.87	0.00
370.07	0.00
370.27	0.00
370.47	0.00
370.66	23.41
370.86	119.37
371.06	131.07
371.25	95.96
371.45	135.75
371.65	180.22
371.84	182.56
372.04	180.22
372.24	145.11
372.44	194.26
372.63	175.54
372.83	205.97
373.03	184.90
373.22	196.60
373.42	208.31
373.62	201.29
373.81	238.73
374.01	212.99
374.21	210.65
374.40	182.56
374.60	308.95
374.79	294.91
374.99	301.93
375.19	210.65
375.38	236.39
375.58	248.10
375.78	311.29
375.97	311.29
376.17	304.27
376.37	236.39
376.56	278.52
376.76	285.55
376.95	210.65
377.15	264.48
377.35	280.86
377.54	250.44
377.74	311.29
377.93	283.20
378.13	290.23
378.33	311.29
378.52	292.57
378.72	299.59
378.91	285.55
379.11	292.57
379.31	287.89
379.50	308.95
379.70	297.25
379.89	297.25
380.09	334.70
380.28	234.05
380.48	257.46
380.68	287.89
380.87	313.63
381.07	334.70
381.26	381.51
381.46	358.10
381.65	227.03
381.85	327.68
382.04	376.83
382.24	252.78
382.43	292.57
382.63	393.21
382.83	339.38
383.02	362.78
383.22	334.70
383.41	301.93
383.61	416.62
383.80	365.12
384.00	362.78
384.19	365.12
384.39	376.83
384.58	381.51
384.78	386.19
384.97	421.30
385.17	365.12
385.36	402.57
385.56	318.31
385.75	379.17
385.95	409.59
386.14	379.17
386.34	376.83
386.53	411.93
386.72	486.83
386.92	360.44
387.11	393.21
387.31	465.77
387.50	475.13
387.70	428.32
387.89	491.51
388.09	386.19
388.28	367.46
388.48	479.81
388.67	430.66
388.86	425.98
389.06	404.91
389.25	489.17
389.45	461.09
389.64	510.24
389.84	535.98
390.03	468.11
390.22	475.13
390.42	486.83
390.61	566.41
390.81	411.93
391.00	526.62
391.19	498.53
391.39	550.03
391.58	636.63
391.78	540.66
391.97	519.60
392.16	533.64
392.36	566.41
392.55	528.96
392.75	479.81
392.94	533.64
393.13	559.39
393.33	491.51
393.52	484.49
393.71	552.37
393.91	477.47
394.10	578.11
394.29	559.39
394.49	561.73
394.68	601.52
394.88	613.22
395.07	573.43
395.26	564.07
395.46	669.39
395.65	683.44
395.84	709.18
396.04	655.35
396.23	634.29
396.42	674.07
396.62	681.10
396.81	587.47
397.00	643.65
397.19	671.73
397.39	692.80
397.58	702.16
397.77	669.39
397.97	690.46
398.16	678.76
398.35	664.71
398.55	674.07
398.74	737.27
398.93	711.52
399.12	814.51
399.32	725.57
399.51	739.61
399.70	798.12
399.90	781.74
400.09	755.99
400.28	814.51
400.47	690.46
400.67	849.61
400.86	915.15
401.05	765.36
401.24	835.57
401.44	826.21
401.63	837.91
401.82	830.89
402.01	791.10
402.21	791.10
402.40	880.04
402.59	847.27
402.78	840.25
402.97	842.59
403.17	908.13
403.36	854.30
403.55	786.42
403.74	966.64
403.93	976.00
404.13	891.74
404.32	976.00
404.51	976.00
404.70	961.96
404.89	957.28
405.09	1039.20
405.28	976.00
405.47	929.19
405.66	964.30
405.85	1064.94
406.05	910.47
406.24	976.00
406.43	1008.77
406.62	1027.50
406.81	1041.54
407.00	1015.79
407.20	1032.18
407.39	983.02
407.58	1088.35
407.77	1069.62
407.96	1165.59
408.15	1121.12
408.34	1062.60
408.54	1167.93
408.73	1095.37
408.92	1174.95
409.11	1071.97
409.30	1125.80
409.49	1095.37
409.68	1114.10
409.87	1235.80
410.07	1219.42
410.26	1210.06
410.45	1200.69
410.64	1238.14
410.83	1160.91
411.02	1188.99
411.21	1369.21
411.40	1238.14
411.59	1284.95
411.78	1308.36
411.98	1331.76
412.17	1306.02
412.36	1310.70
412.55	1247.51
412.74	1320.06
412.93	1404.32
413.12	1385.60
413.31	1441.77
413.50	1299.00
413.69	1364.53
413.88	1572.84
414.07	1441.77
414.26	1476.88
414.45	1469.86
414.64	1476.88
414.83	1509.65
415.02	1589.22
415.22	1593.90
415.41	1589.22
415.60	1626.67
415.79	1565.82
415.98	1507.30
416.17	1610.29
416.36	1629.01
416.55	1577.52
416.74	1614.97
416.93	1680.50
417.12	1600.93
417.31	1858.39
417.50	1760.08
417.69	1795.19
417.88	1739.02
418.07	1710.93
418.26	1802.21
418.45	1778.81
418.64	1783.49
418.83	1881.79
419.02	1895.83
419.21	1834.98
419.39	1846.68
419.58	1867.75
419.77	1935.62
419.96	2047.97
420.15	1895.83
420.34	1900.52
420.53	1891.15
420.72	1912.22
420.91	1870.09
421.10	1996.48
421.29	2059.67
421.48	1930.94
421.67	2003.50
421.86	1961.37
422.05	1940.30
422.24	2012.86
422.43	1937.96
422.61	2033.93
422.80	2155.63
422.99	2047.97
423.18	1973.07
423.37	2043.29
423.56	1952.01
423.75	1970.73
423.94	2019.88
424.13	1844.34
424.32	1959.03
424.50	2097.12
424.69	2120.53
424.88	2031.58
425.07	2054.99
425.26	2132.23
425.45	2148.61
425.64	2069.03
425.83	2031.58
426.01	2120.53
426.20	2031.58
426.39	2104.14
426.58	2122.87
426.77	2104.14
426.96	2066.69
427.15	2094.78
427.33	2069.03
427.52	2190.74
427.71	2101.80
427.90	2200.10
428.09	2246.91
428.28	2239.89
428.46	2246.91
428.65	2235.21
428.84	2235.21
429.03	2314.79
429.22	2094.78
429.40	2462.24
429.59	2256.28
429.78	2225.85
429.97	2232.87
430.16	2242.23
430.34	2216.49
430.53	2373.30
430.72	2338.20
430.91	2352.24
431.10	2431.82
431.28	2466.92
431.47	2377.98
431.66	2373.30
431.85	2263.30
432.03	2333.51
432.22	2499.69
432.41	2537.14
432.60	2445.86
432.79	2335.85
432.97	2553.52
433.16	2593.31
433.35	2504.37
433.54	2506.71
433.72	2485.65
433.91	2553.52
434.10	2487.99
434.28	2588.63
434.47	2562.89
434.66	2607.36
434.85	2579.27
435.03	2661.19
435.22	2729.06
435.41	2717.36
435.59	2640.12
435.78	2726.72
435.97	2679.91
436.16	2583.95
436.34	2747.79
436.53	2654.17
436.72	2693.96
436.90	2712.68
437.09	2715.02
437.28	2759.49
437.46	2843.75
437.65	2778.22
437.84	2752.47
438.02	2773.53
438.21	2764.17
438.40	2757.15
438.58	2855.45
438.77	2939.71
438.96	2899.92
439.14	2942.05
439.33	3054.40
439.52	3108.23
439.70	3005.25
439.89	3009.93
440.08	3012.27
440.26	3150.36
440.45	3148.02
440.63	3183.13
440.82	3108.23
441.01	3185.47
441.19	3180.79
441.38	3309.52
441.57	3251.00
441.75	3342.28
441.94	3328.24
442.12	3349.31
442.31	3330.58
442.50	3405.48
442.68	3316.54
442.87	3272.07
443.05	3346.97
443.24	3379.73
443.43	3372.71
443.61	3485.06
443.80	3487.40
443.98	3344.63
444.17	3234.62
444.35	3405.48
444.54	3581.02
444.73	3471.01
444.91	3487.40
445.10	3449.95
445.28	3478.04
445.47	3389.10
445.65	3396.12
445.84	3559.95
446.02	3471.01
446.21	3442.93
446.39	3433.57
446.58	3463.99
446.77	3588.04
446.95	3414.84
447.14	3581.02
447.32	3648.90
447.51	3440.59
447.69	3520.17
447.88	3648.90
448.06	3531.87
448.25	3548.25
448.43	3592.72
448.62	3634.85
448.80	3618.47
448.99	3646.55
449.17	3599.74
449.36	3625.49
449.54	3772.94
449.73	3742.52
449.91	3688.68
450.10	3744.86
450.28	3728.47
450.46	3791.67
450.65	3826.78
450.83	3833.80
451.02	3894.65
451.20	3852.52
451.39	3815.07
451.57	3784.65
451.76	3941.46
451.94	3939.12
452.13	3882.95
452.31	3997.64
452.49	3782.31
452.68	3955.51
452.86	3843.16
453.05	3861.88
453.23	3913.38
453.42	3829.12
453.60	3915.72
453.78	4011.68
453.97	3864.22
454.15	3941.46
454.34	3990.61
454.52	4046.79
454.70	3948.48
454.89	4067.85
455.07	4025.72
455.26	4131.05
455.44	4131.05
455.62	4266.80
455.81	4004.66
455.99	4346.37
456.17	4180.20
456.36	4257.43
456.54	4203.60
456.73	4381.48
456.91	4428.29
457.09	4463.40
457.28	4234.03
457.46	4257.43
457.64	4514.89
457.83	4428.29
458.01	4348.72
458.19	4348.72
458.38	4423.61
458.56	4615.54
458.74	4383.82
458.93	4374.46
459.11	4362.76
459.29	4451.70
459.48	4610.86
459.66	4690.43
459.84	4587.45
460.03	4557.02
460.21	4617.88
460.39	4777.03
460.57	4547.66
460.76	4432.97
460.94	4669.37
461.12	4795.76
461.31	4594.47
461.49	4720.86
461.67	4692.77
461.85	4638.94
462.04	4760.65
462.22	4873.00
462.40	4863.63
462.59	4856.61
462.77	4741.93
462.95	4861.29
463.13	4870.65
463.32	4746.61
463.50	4807.46
463.68	4844.91
463.86	4882.36
464.05	4781.71
464.23	4978.32
464.41	4990.02
464.59	4823.84
464.78	4973.64
464.96	5029.81
465.14	4966.62
465.32	4985.34
465.50	5048.54
465.69	5050.88
465.87	4961.94
466.05	5057.90
466.23	5050.88
466.41	4959.60
466.60	5177.26
466.78	5090.67
466.96	5039.17
467.14	5149.18
467.32	5259.18
467.51	5238.12
467.69	5160.88
467.87	5221.74
468.05	5205.35
468.23	5165.56
468.41	5289.61
468.60	5245.14
468.78	5439.40
468.96	5067.26
469.14	5373.87
469.32	5453.45
469.50	5315.36
469.69	5472.17
469.87	5605.58
470.05	5411.32
470.23	5465.15
470.41	5507.28
470.59	5399.62
470.77	5371.53
470.95	5535.37
471.14	5589.20
471.32	5640.69
471.50	5795.17
471.68	5659.42
471.86	5668.78
472.04	5795.17
472.22	5802.19
472.40	5671.12
472.58	5612.60
472.77	5680.48
472.95	5863.04
473.13	6015.18
473.31	5935.60
473.49	5853.68
473.67	5947.30
473.85	5909.85
474.03	6132.20
474.21	5919.21
474.39	6181.35
474.57	6134.54
474.75	6164.97
474.93	6296.04
475.12	6186.04
475.30	6274.98
475.48	6230.51
475.66	6363.92
475.84	6483.28
476.02	6375.62
476.20	6494.99
476.38	6534.78
476.56	6761.81
476.74	6747.76
476.92	6612.01
477.10	6609.67
477.28	6691.59
477.46	6707.98
477.64	6766.49
477.82	6930.33
478.00	7131.61
478.18	6927.99
478.36	7045.01
478.54	7073.10
478.72	7157.36
478.90	7344.60
479.08	7335.24
479.26	7279.07
479.44	7492.05
479.62	7473.33
479.80	7470.99
479.98	7410.14
480.16	7667.60
480.34	7662.91
480.52	7672.28
480.70	7627.81
480.88	7721.43
481.06	7866.54
481.24	7880.58
481.41	7936.76
481.59	8084.21
481.77	7981.23
481.95	8114.64
482.13	8219.96
482.31	8138.04
482.49	8540.61
482.67	8231.66
482.85	8376.78
483.03	8603.81
483.21	8781.69
483.39	8734.88
483.57	8557.00
483.74	8596.79
483.92	8805.10
484.10	8847.22
484.28	8706.79
484.46	9116.39
484.64	9320.01
484.82	9130.43
485.00	9301.29
485.18	9458.10
485.35	9621.94
485.53	9591.52
485.71	9603.22
485.89	9872.38
486.07	9720.24
486.25	9729.61
486.43	9694.50
486.61	9696.84
486.78	10003.45
486.96	10026.86
487.14	10265.59
487.32	10094.73
487.50	10232.82
487.68	10349.85
487.85	10677.52
488.03	10520.71
488.21	10520.71
488.39	10670.50
488.57	10839.02
488.75	10752.42
488.92	10979.45
489.10	11183.08
489.28	11023.92
489.46	11281.38
489.64	11302.45
489.81	11393.73
489.99	11595.01
490.17	11384.37
490.35	11686.29
490.53	11782.26
490.70	11822.05
490.88	11571.61
491.06	11850.13
491.24	12100.57
491.41	12072.48
491.59	11999.93
491.77	12201.21
491.95	12395.48
492.13	12592.08
492.30	12259.73
492.48	12526.55
492.66	12411.86
492.84	12528.89
493.01	12690.38
493.19	12868.27
493.37	12755.92
493.54	13029.76
493.72	12704.43
493.90	13240.41
494.08	13446.38
494.25	13111.68
494.43	13474.46
494.61	13434.68
494.79	13762.35
494.96	13404.25
495.14	13694.47
495.32	13668.73
495.49	13745.97
495.67	13977.68
495.85	14113.43
496.02	14209.39
496.20	13956.61
496.38	14036.19
496.55	14274.93
496.73	14670.48
496.91	14590.90
497.09	14478.55
497.26	14600.26
497.44	14473.87
497.62	14637.71
497.79	14946.66
497.97	14588.56
498.14	14951.34
498.32	15152.63
498.50	14956.02
498.67	15241.57
498.85	15042.62
499.03	15197.10
499.20	15321.15
499.38	15417.11
499.56	15304.76
499.73	15644.14
499.91	15688.61
500.08	15882.88
500.26	15515.41
500.44	15807.98
500.61	15716.70
500.79	15597.33
500.97	16009.26
501.14	16350.98
501.32	16020.97
501.49	15829.04
501.67	16039.69
501.84	16095.86
502.02	16189.49
502.20	15999.90
502.37	16587.38
502.55	16610.78
502.72	16250.34
502.90	16350.98
503.07	16161.40
503.25	16489.07
503.43	16807.39
503.60	16585.04
503.78	16978.25
503.95	16706.74
504.13	16851.86
504.30	16746.53
504.48	17121.02
504.65	17076.55
504.83	17238.05
505.01	17488.48
505.18	17493.16
505.36	17640.62
505.53	17184.21
505.71	17324.65
505.88	17397.20
506.06	17404.22
506.23	17577.42
506.41	17348.05
506.58	17708.49
506.76	17647.64
506.93	17610.19
507.11	17673.39
507.28	18171.92
507.46	17881.69
507.63	18033.83
507.81	18129.79
507.98	17778.71
508.16	17987.02
508.33	17965.95
508.50	17951.91
508.68	18230.43
508.85	18361.50
509.03	18431.72
509.20	18586.19
509.38	18387.25
509.55	18686.84
509.73	18717.26
509.90	18801.52
510.08	18827.27
510.25	18621.30
510.42	18508.96
510.60	18780.46
510.77	18981.74
510.95	19058.98
511.12	18991.11
511.30	19007.49
511.47	18956.00
511.64	19133.88
511.82	19410.06
511.99	19255.59
512.17	19625.39
512.34	19468.58
512.51	19667.52
512.69	19831.36
512.86	19630.07
513.04	19702.63
513.21	20034.99
513.38	19672.20
513.56	19929.66
513.73	19545.81
513.90	20044.35
514.08	19836.04
514.25	19946.05
514.43	20269.04
514.60	19971.79
514.77	20173.08
514.95	20470.33
515.12	20126.27
515.29	20013.92
515.47	20163.72
515.64	20580.33
515.81	20463.30
515.99	20767.57
516.16	20645.87
516.33	20360.32
516.51	20760.55
516.68	20402.45
516.85	20650.55
517.03	20589.69
517.20	21116.31
517.37	20659.91
517.54	20702.04
517.72	20746.51
517.89	20851.83
518.06	21439.31
518.24	21057.80
518.41	21104.61
518.58	21123.33
518.75	21184.19
518.93	21308.24
519.10	20931.41
519.27	21439.31
519.45	21172.49
519.62	21392.50
519.79	21233.34
519.96	21490.80
520.14	21376.11
520.31	21378.45
520.48	21500.16
520.65	21783.37
520.83	21661.66
521.00	21841.88
521.17	21715.49
521.34	21745.92
521.52	21741.24
521.69	21858.26
521.86	21764.64
522.03	21912.10
522.20	21937.84
522.38	22251.47
522.55	22331.05
522.72	22298.28
522.89	22178.92
523.07	22576.81
523.24	22345.09
523.41	22558.08
523.58	22256.15
523.75	22562.76
523.92	22459.78
524.10	22717.24
524.27	22661.07
524.44	23009.81
524.61	23019.17
524.78	22691.49
524.96	22675.11
525.13	22654.05
525.30	22668.09
525.47	22977.04
525.64	22717.24
525.81	22953.63
525.98	23353.87
526.16	23150.24
526.33	23388.97
526.50	23417.06
526.67	23124.49
526.84	23309.40
527.01	22934.91
527.18	23342.16
527.36	23625.37
527.53	23601.96
527.70	23768.14
527.87	23995.17
528.04	23288.33
528.21	23775.16
528.38	23676.86
528.55	23501.32
528.72	23868.78
528.89	23885.17
529.07	23798.57
529.24	23552.81
529.41	24142.63
529.58	23988.15
529.75	24196.46
529.92	24215.18
530.09	24063.05
530.26	23686.22
530.43	24037.30
530.60	24184.76
530.77	24154.33
530.94	24386.04
531.11	23999.85
531.28	24149.65
531.46	24383.70
531.63	24634.14
531.80	24236.25
531.97	24496.05
532.14	24528.81
532.31	24559.24
532.48	24767.55
532.65	24666.91
532.82	24166.03
532.99	24460.94
533.16	24432.85
533.33	24896.28
533.50	25008.62
533.67	24868.19
533.84	24725.42
534.01	24702.01
534.18	24638.82
534.35	24973.52
534.52	24819.04
534.69	24900.96
534.86	24931.39
535.03	25062.46
535.20	24793.29
535.37	25242.68
535.54	24936.07
535.71	25036.71
535.88	25036.71
536.05	25296.51
536.22	25448.64
536.38	25675.68
536.55	25507.16
536.72	25537.59
536.89	25174.80
537.06	25401.83
537.23	25687.38
537.40	25261.40
537.57	25310.55
537.74	25619.50
537.91	25888.67
538.08	25839.51
538.25	25560.99
538.42	25654.61
538.59	25776.32
538.75	25490.77
538.92	25769.30
539.09	25748.23
539.26	25762.28
539.43	25958.88
539.60	25905.05
539.77	25661.63
539.94	26242.09
540.11	25717.81
540.28	25720.15
540.44	26321.66
540.61	25898.03
540.78	25958.88
540.95	26017.40
541.12	26305.28
541.29	25965.90
541.46	26202.30
541.62	26443.37
541.79	26157.83
541.96	25975.27
542.13	26312.30
542.30	26293.58
542.47	26457.42
542.63	26700.83
542.80	26412.95
542.97	26621.25
543.14	26965.31
543.31	26724.24
543.48	26712.53
543.64	27208.73
543.81	26684.45
543.98	27005.10
544.15	26874.03
544.32	27391.29
544.48	26941.91
544.65	26923.18
544.82	26941.91
544.99	26689.13
545.16	27211.07
545.32	26792.11
545.49	27115.11
545.66	27501.29
545.83	27307.03
546.00	27253.20
546.16	26888.07
546.33	27110.43
546.50	26883.39
546.67	27428.74
546.83	26656.36
547.00	26972.33
547.17	27440.44
547.34	27805.56
547.50	27714.28
547.67	27672.15
547.84	27688.54
548.00	27388.95
548.17	27487.25
548.34	27456.82
548.51	27744.71
548.67	27920.25
548.84	27660.45
549.01	27580.87
549.18	27814.93
549.34	27922.59
549.51	27515.34
549.68	27857.06
549.84	27569.17
550.01	27859.40
550.18	27840.67
550.34	27941.32
550.51	28102.81
550.68	28210.48
550.84	27669.81
551.01	27761.09
551.18	27449.80
551.34	27707.26
551.51	28063.02
551.68	27800.88
551.84	28388.36
552.01	28011.53
552.18	28187.07
552.34	28142.60
552.51	28400.06
552.68	28168.35
552.84	28236.22
553.01	28580.28
553.18	28423.47
553.34	28357.93
553.51	28545.17
553.67	28474.96
553.84	28807.31
554.01	28463.25
554.17	28774.55
554.34	28879.87
554.51	28217.50
554.67	28514.75
554.84	28334.53
555.00	28278.35
555.17	28697.31
555.33	28716.03
555.50	28645.82
555.67	28563.90
555.83	28652.84
556.00	28596.67
556.16	28903.28
556.33	28891.57
556.50	28423.47
556.66	28694.97
556.83	28821.36
556.99	29104.56
557.16	28978.17
557.32	28877.53
557.49	29036.69
557.65	28847.10
557.82	28929.02
557.98	28821.36
558.15	29022.64
558.32	29113.92
558.48	29170.10
558.65	29289.46
558.81	29577.35
558.98	29289.46
559.14	29165.42
559.31	29067.11
559.47	28907.96
559.64	28987.53
559.80	29355.00
559.97	29523.52
560.13	28999.24
560.30	29462.66
560.46	29376.06
560.63	29111.58
560.79	29163.08
560.96	29516.50
561.12	29003.92
561.29	29369.04
561.45	29039.03
561.61	29425.22
561.78	29301.17
561.94	29769.27
562.11	29757.57
562.27	29191.16
562.44	29230.95
562.60	29319.89
562.77	29476.71
562.93	29401.81
563.10	29792.68
563.26	29443.94
563.42	29933.11
563.59	29687.36
563.75	29741.19
563.92	29652.25
564.08	29385.43
564.24	29481.39
564.41	29357.34
564.57	29598.41
564.74	29511.81
564.90	29989.28
565.07	29848.85
565.23	29694.38
565.39	29713.10
565.56	29720.12
565.72	29537.56
565.88	29741.19
566.05	29666.29
566.21	29748.21
566.38	29729.48
566.54	29708.42
566.70	29989.28
566.87	30178.87
567.03	30066.52
567.19	29993.97
567.36	29905.02
567.52	29958.86
567.68	29818.42
567.85	29998.65
568.01	29846.51
568.17	29986.94
568.34	29710.76
568.50	29909.71
568.66	29977.58
568.83	30054.82
568.99	29834.81
569.15	29968.22
569.32	30153.12
569.48	29273.08
569.64	30221.00
569.81	29951.84
569.97	29858.21
570.13	30436.33
570.30	29970.56
570.46	30096.95
570.62	29755.23
570.78	29727.14
570.95	29710.76
571.11	30015.03
571.27	29963.54
571.43	29956.52
571.60	29928.43
571.76	30263.13
571.92	30354.41
572.09	30462.07
572.25	30286.53
572.41	30302.92
572.57	30387.18
572.74	30075.88
572.90	30157.80
573.06	30321.64
573.22	30012.69
573.38	30239.72
573.55	30022.05
573.71	30417.60
573.87	30654.00
574.03	30359.09
574.20	30492.50
574.36	30270.15
574.52	30087.59
574.68	30038.44
574.84	30422.28
575.01	30267.81
575.17	30213.98
575.33	30221.00
575.49	30139.08
575.65	30405.90
575.82	30459.73
575.98	30675.06
576.14	30522.93
576.30	30197.59
576.46	30239.72
576.62	30218.66
576.79	30272.49
576.95	30494.84
577.11	30595.48
577.27	30656.34
577.43	30623.57
577.59	30286.53
577.75	30359.09
577.92	30171.85
578.08	30183.55
578.24	29926.09
578.40	30036.09
578.56	30721.87
578.72	30508.88
578.88	30794.43
579.04	30560.37
579.21	30541.65
579.37	30394.20
579.53	30785.07
579.69	30426.96
579.85	30347.39
580.01	30597.82
580.17	29905.02
580.33	30363.77
580.49	30038.44
580.65	30696.13
580.82	30513.56
580.98	31103.38
581.14	30670.38
581.30	30452.71
581.46	30120.35
581.62	30668.04
581.78	30153.12
581.94	30536.97
582.10	29823.11
582.26	30333.34
582.42	30787.41
582.58	30789.75
582.74	30923.16
582.90	30686.76
583.06	30864.64
583.22	30185.89
583.38	30637.61
583.54	30279.51
583.70	30850.60
583.86	30604.84
584.02	30309.94
584.18	30331.00
584.34	31091.68
584.50	30813.15
584.66	30808.47
584.82	30216.32
584.98	30216.32
585.14	30328.66
585.30	30429.30
585.46	29909.71
585.62	30148.44
585.78	30614.21
585.94	30323.98
586.10	30457.39
586.26	30548.67
586.42	30565.06
586.58	30974.65
586.74	30717.19
586.90	30529.95
587.06	30455.05
587.22	30396.54
587.38	30644.63
587.54	31033.16
587.70	30946.56
587.86	30890.39
588.02	30525.27
588.18	30696.13
588.34	31070.61
588.49	30771.02
588.65	30396.54
588.81	30499.52
588.97	30323.98
589.13	30436.33
589.29	30492.50
589.45	30520.59
589.61	31054.23
589.77	31187.64
589.93	30604.84
590.08	31098.70
590.24	31091.68
590.40	30600.16
590.56	30710.17
590.72	30604.84
590.88	30859.96
591.04	30625.91
591.20	30876.35
591.35	31007.42
591.51	31290.62
591.67	31070.61
591.83	31264.88
591.99	30864.64
592.15	30874.01
592.31	31091.68
592.46	31227.43
592.62	30686.76
592.78	31171.25
592.94	30787.41
593.10	30967.63
593.26	31225.09
593.41	30984.01
593.57	30820.17
593.73	31166.57
593.89	31372.54
594.05	31178.28
594.20	30820.17
594.36	31087.00
594.52	31105.72
594.68	30960.61
594.84	30876.35
594.99	31166.57
595.15	31079.97
595.31	31494.25
595.47	31285.94
595.62	31096.36
595.78	31260.20
595.94	31075.29
596.10	30981.67
596.25	31197.00
596.41	30960.61
596.57	30717.19
596.73	30827.20
596.88	31028.48
597.04	31552.76
597.20	31159.55
597.36	31330.41
597.51	31620.64
597.67	31248.49
597.83	31227.43
597.99	31021.46
598.14	30852.94
598.30	31185.30
598.46	31133.81
598.61	31028.48
598.77	31197.00
598.93	31225.09
599.09	31129.12
599.24	31456.80
599.40	31218.07
599.56	31342.11
599.71	31019.12
599.87	31311.69
600.03	30616.55
600.18	30937.20
600.34	31129.12
600.50	31646.38
600.65	31267.22
600.81	31103.38
600.97	31592.55
601.12	31758.73
601.28	31264.88
601.44	31742.35
601.59	31122.10
601.75	30890.39
601.91	31494.25
602.06	31040.18
602.22	31009.76
602.37	30876.35
602.53	30927.84
602.69	31873.42
602.84	31498.93
603.00	31449.78
603.16	31075.29
603.31	31166.57
603.47	31421.69
603.62	31000.40
603.78	31087.00
603.94	31002.74
604.09	31346.79
604.25	30642.29
604.40	30890.39
604.56	31248.49
604.71	31644.04
604.87	31154.87
605.03	31257.85
605.18	31349.14
605.34	31215.72
605.49	31089.34
605.65	30941.88
605.80	30754.64
605.96	30686.76
606.12	31077.63
606.27	31175.94
606.43	31257.85
606.58	31311.69
606.74	31108.06
606.89	31023.80
607.05	31274.24
607.20	31349.14
607.36	31218.07
607.51	31140.83
607.67	30960.61
607.82	30618.89
607.98	31307.01
608.13	30848.26
608.29	30787.41
608.44	31339.77
608.60	30703.15
608.75	31260.20
608.91	30714.85
609.06	30719.53
609.22	31459.14
609.37	30485.48
609.53	30782.73
609.68	30848.26
609.84	30771.02
609.99	30920.82
610.15	30787.41
610.30	31262.54
610.46	31040.18
610.61	30852.94
610.76	31019.12
610.92	30916.14
611.07	30852.94
611.23	30661.02
611.38	30806.13
611.54	30644.63
611.69	30560.37
611.84	30487.82
612.00	30602.50
612.15	30902.09
612.31	31220.41
612.46	30696.13
612.62	30401.22
612.77	30733.57
612.92	30686.76
613.08	30679.74
613.23	30771.02
613.39	30817.83
613.54	30508.88
613.69	30328.66
613.85	30183.55
614.00	30595.48
614.15	30691.44
614.31	30504.20
614.46	30422.28
614.62	30448.03
614.77	30384.83
614.92	30417.60
615.08	30532.29
615.23	30979.33
615.38	30338.02
615.54	30377.81
615.69	30394.20
615.84	30375.47
616.00	30719.53
616.15	30286.53
616.30	30480.80
616.46	30455.05
616.61	30527.61
616.76	30897.41
616.92	30525.27
617.07	30424.62
617.22	30305.26
617.37	30389.52
617.53	30286.53
617.68	30380.15
617.83	29890.98
617.99	30015.03
618.14	30106.31
618.29	30450.37
618.45	30284.19
618.60	30078.22
618.75	30466.75
618.90	30202.27
619.06	30469.09
619.21	30127.38
619.36	30274.83
619.51	30092.27
619.67	30043.12
619.82	29776.30
619.97	29813.74
620.12	29886.30
620.28	29895.66
620.43	30068.86
620.58	29900.34
620.73	30398.88
620.89	30188.23
621.04	30045.46
621.19	30263.13
621.34	29654.59
621.49	29893.32
621.65	29783.32
621.80	29708.42
621.95	29553.94
622.10	29584.37
622.25	29565.65
622.41	29687.36
622.56	29881.62
622.71	29427.56
622.86	29584.37
623.01	29783.32
623.16	29584.37
623.32	29448.62
623.47	29874.60
623.62	29493.09
623.77	29680.33
623.92	29607.78
624.07	29303.51
624.23	29408.83
624.38	29427.56
624.53	29340.96
624.68	29844.17
624.83	29790.34
624.98	29722.46
625.13	29495.43
625.29	29715.44
625.44	29481.39
625.59	29589.05
625.74	29235.63
625.89	29209.89
626.04	28868.17
626.19	29149.03
626.34	29357.34
626.49	28842.42
626.65	29146.69
626.80	29692.04
626.95	29273.08
627.10	28893.91
627.25	29514.16
627.40	29153.71
627.55	29069.45
627.70	28842.42
627.85	29067.11
628.00	28961.79
628.15	29120.95
628.30	29139.67
628.45	29116.26
628.60	28982.85
628.76	29003.92
628.91	29064.77
629.06	28959.45
629.21	28959.45
629.36	29013.28
629.51	28917.32
629.66	28882.21
629.81	28917.32
629.96	28694.97
630.11	28694.97
630.26	28978.17
630.41	28772.21
630.56	28741.78
630.71	28882.21
630.86	28683.27
631.01	28879.87
631.16	29212.23
631.31	28636.45
631.46	28739.44
631.61	28563.90
631.76	28573.26
631.91	28961.79
632.06	28554.54
632.21	28613.05
632.36	28706.67
632.51	28716.03
632.66	28542.83
632.81	28479.64
632.96	28437.51
633.10	28718.37
633.25	28584.96
633.40	28154.30
633.55	28760.50
633.70	28493.68
633.85	28563.90
634.00	28112.17
634.15	28334.53
634.30	28360.27
634.45	28430.49
634.60	28240.90
634.75	28332.18
634.90	28215.16
635.05	28158.99
635.19	28606.03
635.34	28697.31
635.49	28416.44
635.64	28521.77
635.79	28149.62
635.94	28058.34
636.09	28266.65
636.24	28140.26
636.39	28116.86
636.53	27545.76
636.68	27964.72
636.83	27833.65
636.98	28484.32
637.13	27964.72
637.28	28465.60
637.43	28505.38
637.57	28198.77
637.72	27800.88
637.87	27882.80
638.02	27737.69
638.17	28182.39
638.32	27800.88
638.46	27695.56
638.61	27571.51
638.76	27531.72
638.91	27592.58
639.06	27697.90
639.20	27887.48
639.35	28023.23
639.50	28081.75
639.65	28201.11
639.80	28147.28
639.94	27658.11
640.09	27487.25
640.24	27590.24
640.39	27482.57
640.54	27440.44
640.68	27686.20
640.83	27634.71
640.98	27173.62
641.13	27386.61
641.27	27704.92
641.42	27662.79
641.57	27779.82
641.72	27608.96
641.86	27395.97
642.01	27072.98
642.16	27257.88
642.31	27735.35
642.45	27356.18
642.60	27243.84
642.75	27248.52
642.90	27119.79
643.04	27459.16
643.19	27068.30
643.34	27470.87
643.48	27335.12
643.63	27342.14
643.78	27428.74
643.93	27658.11
644.07	27548.11
644.22	27323.41
644.37	27232.13
644.51	27335.12
644.66	27103.40
644.81	26986.38
644.95	27117.45
645.10	27171.28
645.25	27077.66
645.39	27051.91
645.54	27316.39
645.69	26888.07
645.83	27271.92
645.98	26977.01
646.13	27129.15
646.27	27105.74
646.42	27080.00
646.57	27157.24
646.71	27103.40
646.86	27047.23
647.00	26883.39
647.15	26904.46
647.30	27101.06
647.44	26806.16
647.59	26962.97
647.74	26815.52
647.88	26665.72
648.03	27005.10
648.17	27103.40
648.32	26977.01
648.47	27035.53
648.61	26902.12
648.76	27065.96
648.90	26899.78
649.05	26857.65
649.20	26541.68
649.34	26541.68
649.49	26845.94
649.63	26785.09
649.78	26415.29
649.92	26707.85
650.07	26726.58
650.21	26401.24
650.36	26443.37
650.51	26932.54
650.65	26794.45
650.80	26726.58
650.94	26700.83
651.09	26532.31
651.23	26487.84
651.38	26380.18
651.52	26457.42
651.67	26487.84
651.81	26490.18
651.96	26445.71
652.10	26279.54
652.25	26258.47
652.39	26497.20
652.54	26670.40
652.68	26698.49
652.83	26291.24
652.97	26780.41
653.12	26043.14
653.26	26052.50
653.41	26415.29
653.55	26565.08
653.70	25935.48
653.84	26295.92
653.99	26209.32
654.13	26092.29
654.27	26108.68
654.42	26401.24
654.56	26204.64
654.71	26270.17
654.85	26026.76
655.00	26080.59
655.14	25989.31
655.29	26113.36
655.43	25996.33
655.57	25764.62
655.72	25970.58
655.86	25921.43
656.01	25895.69
656.15	26022.08
656.30	26005.69
656.44	26029.10
656.58	25785.68
656.73	25671.00
656.87	25919.09
657.01	26031.44
657.16	25752.91
657.30	25776.32
657.45	25727.17
657.59	26029.10
657.73	25916.75
657.88	25666.31
658.02	25624.18
658.16	25486.09
658.31	25642.91
658.45	25504.82
658.60	25439.28
658.74	25088.20
658.88	25326.94
659.03	25443.96
659.17	25439.28
659.31	25090.54
659.46	25305.87
659.60	25785.68
659.74	25348.00
659.89	25193.53
660.03	25123.31
660.17	25387.79
660.32	25291.83
660.46	25233.32
660.60	24959.47
660.74	25017.99
660.89	25046.07
661.03	24917.34
661.17	24840.11
661.32	25027.35
661.46	24919.68
661.60	25069.48
661.74	25355.02
661.89	24865.85
662.03	24840.11
662.17	24931.39
662.31	24882.24
662.46	25013.31
662.60	24697.33
662.74	24638.82
662.88	24451.58
663.03	24453.92
663.17	24641.16
663.31	24390.72
663.45	24706.70
663.60	24559.24
663.74	24086.45
663.88	24346.25
664.02	24409.45
664.17	24339.23
664.31	24264.33
664.45	24067.73
664.59	24386.04
664.73	24109.86
664.88	24210.50
665.02	23594.94
665.16	24156.67
665.30	24212.84
665.44	23704.95
665.59	24128.58
665.73	24121.56
665.87	23709.63
666.01	23964.75
666.15	24063.05
666.29	24034.96
666.44	24245.61
666.58	23840.70
666.72	23674.52
666.86	23604.30
667.00	23744.73
667.14	23721.33
667.28	23690.90
667.43	23868.78
667.57	23503.66
667.71	23489.62
667.85	23590.26
667.99	23119.81
668.13	23220.45
668.27	23604.30
668.41	23274.29
668.56	23426.42
668.70	23246.20
668.84	23332.80
668.98	23370.25
669.12	23646.43
669.26	23403.02
669.40	22946.61
669.54	23283.65
669.68	23047.26
669.82	23129.17
669.96	23145.56
670.10	22850.65
670.25	22955.97
670.39	23426.42
670.53	22658.73
670.67	22623.62
670.81	22773.41
670.95	22640.00
671.09	22511.27
671.23	22878.74
671.37	22883.42
671.51	23021.51
671.65	22831.93
671.79	22799.16
671.93	22771.07
672.07	22665.75
672.21	22302.96
672.35	22134.45
672.49	21916.78
672.63	22539.36
672.77	21998.70
672.91	22164.87
673.05	22022.10
673.19	22401.27
673.33	22237.43
673.47	22302.96
673.61	22099.34
673.75	22331.05
673.89	22089.98
674.03	21781.03
674.17	22008.06
674.31	22068.91
674.45	21799.75
674.59	21799.75
674.73	21867.63
674.87	21397.18
675.01	21652.30
675.15	21495.48
675.29	21191.21
675.43	21132.70
675.56	21273.13
675.70	21750.60
675.84	21511.86
675.98	20812.04
676.12	21621.87
676.26	21666.34
676.40	21291.85
676.54	20886.94
676.68	21099.93
676.82	20798.00
676.96	21074.18
677.10	20575.65
677.23	21078.86
677.37	20599.05
677.51	20666.93
677.65	20680.97
677.79	20568.63
677.93	20458.62
678.07	20430.54
678.21	20116.90
678.34	20554.58
678.48	20292.44
678.62	20369.68
678.76	20245.63
678.90	19735.40
679.04	20243.29
679.18	19983.49
679.31	19833.70
679.45	19688.59
679.59	19667.52
679.73	19522.41
679.87	19740.08
680.00	19358.57
680.14	19491.98
680.28	19627.73
680.42	19719.01
680.56	19524.75
680.70	19852.42
680.83	19550.49
680.97	19468.58
681.11	19271.97
681.25	19208.78
681.39	18979.40
681.52	19138.56
681.66	19190.05
681.80	18771.10
681.94	18981.74
682.07	18958.34
682.21	18904.51
682.35	18267.88
682.49	18719.60
682.62	18553.43
682.76	18415.34
682.90	18820.25
683.04	18427.04
683.17	18490.23
683.31	18565.13
683.45	18480.87
683.59	18427.04
683.72	18396.61
683.86	18317.03
684.00	18349.80
684.13	17860.63
684.27	18204.69
684.41	18073.62
684.55	17642.96
684.68	17631.26
684.82	17511.89
684.96	17895.74
685.09	17706.15
685.23	17219.32
685.37	17298.90
685.50	17731.90
685.64	17572.74
685.78	17509.55
685.91	17752.96
686.05	17062.51
686.19	17240.39
686.32	17123.36
686.46	17055.48
686.60	16882.28
686.73	17179.53
686.87	16886.97
687.01	16755.90
687.14	16861.22
687.28	16868.24
687.42	16657.59
687.55	16257.36
687.69	16468.01
687.82	16496.10
687.96	16622.48
688.10	16589.72
688.23	16496.10
688.37	16252.68
688.50	16198.85
688.64	16250.34
688.78	16486.73
688.91	16079.48
689.05	16088.84
689.18	15962.45
689.32	15616.05
689.46	15929.69
689.59	15531.80
689.73	15786.91
689.86	15754.15
690.00	15704.99
690.13	15733.08
690.27	15723.72
690.41	15702.65
690.54	15470.94
690.68	15623.08
690.81	15487.32
690.95	15337.53
691.08	15466.26
691.22	15248.59
691.35	15255.61
691.49	15433.49
691.62	15400.72
691.76	14796.87
691.89	14974.75
692.03	14740.69
692.16	14867.08
692.30	14656.43
692.43	14906.87
692.57	14516.00
692.70	14586.22
692.84	14728.99
692.97	14583.88
693.11	14218.75
693.24	14359.19
693.38	14546.43
693.51	14260.88
693.65	14462.17
693.78	14485.58
693.92	14207.05
694.05	14176.62
694.19	14108.75
694.32	13933.21
694.45	13834.91
694.59	13523.62
694.72	13551.70
694.86	13795.12
694.99	13523.62
695.13	13352.76
695.26	13572.77
695.39	13282.54
695.53	13631.28
695.66	13584.47
695.80	13518.93
695.93	13710.86
696.07	13472.12
696.20	13268.50
696.33	13048.49
696.47	13310.63
696.60	13249.77
696.73	13334.03
696.87	13107.00
697.00	12938.48
697.14	12788.69
697.27	12737.20
697.40	12669.32
697.54	12727.83
697.67	12634.21
697.80	12765.28
697.94	12386.12
698.07	12203.55
698.21	12409.52
698.34	12554.63
698.47	12439.95
698.61	12131.00
698.74	12461.01
698.87	12517.18
699.01	12009.29
699.14	12313.56
699.27	12215.26
699.40	12133.34
699.54	12264.41
699.67	11941.41
699.80	11906.31
699.94	11826.73
700.07	11669.91
700.20	11536.50
700.34	11513.10
700.47	11358.62
700.60	11468.62
700.73	11676.93
700.87	11517.78
701.00	11330.53
701.13	11515.44
701.26	11499.05
701.40	11585.65
701.53	11295.43
701.66	11431.18
701.79	11330.53
701.93	11103.50
702.06	10925.62
702.19	10855.40
702.32	10972.43
702.46	10761.78
702.59	10693.91
702.72	10478.58
702.85	10611.99
702.99	10766.46
703.12	10726.68
703.25	10654.12
703.38	10782.85
703.51	10473.90
703.65	10569.86
703.78	10218.78
703.91	10483.26
704.04	10438.79
704.17	10729.02
704.31	10387.30
704.44	10132.18
704.57	10303.04
704.70	10129.84
704.83	10076.01
704.96	9966.00
705.10	10019.83
705.23	9832.59
>>>>>End Processed Spectral Data<<<<<
