SpectraSuite Data File
++++++++++++++++++++++++++++++++++++
Date: Fri Oct 18 13:58:35 GMT-05:00 2013
User: bianchi
Dark Spectrum Present: No
Reference Spectrum Present: No
Number of Sampled Component Spectra: 1
Spectrometers: USB2+H05261
Integration Time (usec): 50000 (USB2+H05261)
Spectra Averaged: 1 (USB2+H05261)
Boxcar Smoothing: 0 (USB2+H05261)
Correct for Electrical Dark: No (USB2+H05261)
Strobe/Lamp Enabled: No (USB2+H05261)
Correct for Detector Non-linearity: No (USB2+H05261)
Correct for Stray Light: No (USB2+H05261)
Number of Pixels in Processed Spectrum: 2048
>>>>>Begin Processed Spectral Data<<<<<
365.73	0.00
365.92	0.00
366.12	0.00
366.32	0.00
366.52	0.00
366.72	0.00
366.91	0.00
367.11	0.00
367.31	0.00
367.51	0.00
367.70	0.00
367.90	0.00
368.10	0.00
368.30	0.00
368.49	0.00
368.69	0.00
368.89	0.00
369.09	0.00
369.28	0.00
369.48	0.00
369.68	0.00
369.87	0.00
370.07	0.00
370.27	0.00
370.47	0.00
370.66	140.43
370.86	102.98
371.06	100.64
371.25	91.28
371.45	133.41
371.65	161.50
371.84	140.43
372.04	168.52
372.24	194.26
372.44	156.82
372.63	264.48
372.83	250.44
373.03	215.33
373.22	189.58
373.42	159.16
373.62	217.67
373.81	217.67
374.01	234.05
374.21	182.56
374.40	220.01
374.60	203.63
374.79	173.20
374.99	278.52
375.19	163.84
375.38	189.58
375.58	250.44
375.78	248.10
375.97	299.59
376.17	262.14
376.37	273.84
376.56	285.55
376.76	297.25
376.95	194.26
377.15	236.39
377.35	311.29
377.54	297.25
377.74	353.42
377.93	313.63
378.13	278.52
378.33	264.48
378.52	257.46
378.72	318.31
378.91	292.57
379.11	297.25
379.31	280.86
379.50	201.29
379.70	315.97
379.89	248.10
380.09	262.14
380.28	301.93
380.48	224.69
380.68	257.46
380.87	266.82
381.07	313.63
381.26	301.93
381.46	273.84
381.65	360.44
381.85	304.27
382.04	327.68
382.24	348.74
382.43	423.64
382.63	383.85
382.83	320.65
383.02	421.30
383.22	315.97
383.41	297.25
383.61	257.46
383.80	400.23
384.00	372.15
384.19	367.46
384.39	337.04
384.58	369.80
384.78	411.93
384.97	400.23
385.17	386.19
385.36	425.98
385.56	390.87
385.75	433.00
385.95	423.64
386.14	383.85
386.34	362.78
386.53	416.62
386.72	402.57
386.92	374.49
387.11	327.68
387.31	423.64
387.50	418.96
387.70	400.23
387.89	397.89
388.09	500.87
388.28	383.85
388.48	414.27
388.67	521.94
388.86	456.40
389.06	411.93
389.25	435.34
389.45	437.68
389.64	444.70
389.84	547.69
390.03	472.79
390.22	493.85
390.42	517.26
390.61	414.27
390.81	444.70
391.00	550.03
391.19	500.87
391.39	493.85
391.58	557.05
391.78	554.71
391.97	559.39
392.16	554.71
392.36	507.90
392.55	557.05
392.75	519.60
392.94	505.56
393.13	524.28
393.33	535.98
393.52	634.29
393.71	559.39
393.91	561.73
394.10	521.94
394.29	533.64
394.49	514.92
394.68	690.46
394.88	580.45
395.07	566.41
395.26	674.07
395.46	559.39
395.65	704.50
395.84	608.54
396.04	699.82
396.23	678.76
396.42	603.86
396.62	603.86
396.81	732.59
397.00	713.86
397.19	653.01
397.39	702.16
397.58	681.10
397.77	741.95
397.97	730.25
398.16	688.12
398.35	704.50
398.55	720.88
398.74	636.63
398.93	812.17
399.12	650.67
399.32	634.29
399.51	732.59
399.70	741.95
399.90	758.33
400.09	725.57
400.28	723.23
400.47	753.65
400.67	779.40
400.86	807.48
401.05	779.40
401.24	812.17
401.44	777.06
401.63	880.04
401.82	924.51
402.01	821.53
402.21	858.98
402.40	861.32
402.59	847.27
402.78	770.04
402.97	837.91
403.17	847.27
403.36	833.23
403.55	917.49
403.74	924.51
403.93	861.32
404.13	971.32
404.32	903.45
404.51	915.15
404.70	905.79
404.89	875.36
405.09	1004.09
405.28	992.39
405.47	936.21
405.66	1029.84
405.85	973.66
406.05	1104.73
406.24	1027.50
406.43	1100.05
406.62	1008.77
406.81	1114.10
407.00	968.98
407.20	961.96
407.39	1074.31
407.58	1053.24
407.77	1048.56
407.96	1086.01
408.15	1050.90
408.34	1137.50
408.54	1160.91
408.73	1071.97
408.92	1060.26
409.11	1128.14
409.30	1142.18
409.49	1057.92
409.68	1181.97
409.87	1249.85
410.07	1181.97
410.26	1231.12
410.45	1240.48
410.64	1177.29
410.83	1334.11
411.02	1242.82
411.21	1221.76
411.40	1275.59
411.59	1167.93
411.78	1233.46
411.98	1238.14
412.17	1310.70
412.36	1249.85
412.55	1329.42
412.74	1240.48
412.93	1322.40
413.12	1329.42
413.31	1434.75
413.50	1348.15
413.69	1399.64
413.88	1509.65
414.07	1448.79
414.26	1437.09
414.45	1423.05
414.64	1511.99
414.83	1451.13
415.02	1497.94
415.22	1598.59
415.41	1526.03
415.60	1526.03
415.79	1563.48
415.98	1570.50
416.17	1614.97
416.36	1582.20
416.55	1631.35
416.74	1607.95
416.93	1600.93
417.12	1701.57
417.31	1722.63
417.50	1724.97
417.69	1764.76
417.88	1687.53
418.07	1788.17
418.26	1769.44
418.45	1680.50
418.64	1774.13
418.83	1792.85
419.02	1792.85
419.21	1746.04
419.39	1795.19
419.58	1923.92
419.77	1795.19
419.96	1760.08
420.15	1947.33
420.34	1912.22
420.53	1914.56
420.72	1891.15
420.91	1895.83
421.10	1834.98
421.29	1872.43
421.48	1940.30
421.67	1839.66
421.86	1893.49
422.05	2054.99
422.24	1930.94
422.43	2010.52
422.61	1921.58
422.80	2010.52
422.99	1970.73
423.18	2052.65
423.37	2122.87
423.56	1898.17
423.75	2062.01
423.94	1928.60
424.13	1935.62
424.32	2001.16
424.50	2054.99
424.69	2092.44
424.88	2179.04
425.07	1949.67
425.26	2024.56
425.45	1994.14
425.64	2050.31
425.83	2043.29
426.01	2125.21
426.20	2043.29
426.39	2052.65
426.58	2076.06
426.77	2108.82
426.96	2066.69
427.15	1989.46
427.33	2111.16
427.52	2054.99
427.71	2174.36
427.90	2157.97
428.09	2111.16
428.28	2193.08
428.46	2305.43
428.65	2218.83
428.84	2183.72
429.03	2300.75
429.22	2251.60
429.40	2277.34
429.59	2291.38
429.78	2258.62
429.97	2183.72
430.16	2195.42
430.34	2132.23
430.53	2305.43
430.72	2300.75
430.91	2321.81
431.10	2345.22
431.28	2305.43
431.47	2431.82
431.66	2385.01
431.85	2363.94
432.03	2457.56
432.22	2530.12
432.41	2427.14
432.60	2438.84
432.79	2396.71
432.97	2499.69
433.16	2408.41
433.35	2403.73
433.54	2415.43
433.72	2562.89
433.91	2459.90
434.10	2422.45
434.28	2431.82
434.47	2537.14
434.66	2567.57
434.85	2574.59
435.03	2579.27
435.22	2682.25
435.41	2724.38
435.59	2656.51
435.78	2757.15
435.97	2579.27
436.16	2672.89
436.34	2640.12
436.53	2656.51
436.72	2740.77
436.90	2724.38
437.09	2759.49
437.28	2640.12
437.46	2818.00
437.65	2729.06
437.84	2663.53
438.02	2808.64
438.21	2785.24
438.40	2712.68
438.58	2857.79
438.77	2899.92
438.96	2963.12
439.14	2895.24
439.33	3016.95
439.52	3009.93
439.70	3019.29
439.89	3110.57
440.08	3119.93
440.26	3007.59
440.45	3049.72
440.63	2958.44
440.82	3101.21
441.01	3073.12
441.19	3101.21
441.38	3187.81
441.57	3197.17
441.75	3253.34
441.94	3218.24
442.12	3330.58
442.31	3267.39
442.50	3342.28
442.68	3234.62
442.87	3403.14
443.05	3375.05
443.24	3396.12
443.43	3419.52
443.61	3445.27
443.80	3480.38
443.98	3487.40
444.17	3321.22
444.35	3377.39
444.54	3454.63
444.73	3487.40
444.91	3531.87
445.10	3361.01
445.28	3499.10
445.47	3272.07
445.65	3487.40
445.84	3445.27
446.02	3592.72
446.21	3527.19
446.39	3485.06
446.58	3578.68
446.77	3597.40
446.95	3356.33
447.14	3471.01
447.32	3641.87
447.51	3398.46
447.69	3471.01
447.88	3653.58
448.06	3595.06
448.25	3487.40
448.43	3424.20
448.62	3620.81
448.80	3414.84
448.99	3485.06
449.17	3592.72
449.36	3524.85
449.54	3803.37
449.73	3779.97
449.91	3786.99
450.10	3754.22
450.28	3735.50
450.46	3655.92
450.65	3824.44
450.83	3777.62
451.02	3716.77
451.20	3672.30
451.39	3655.92
451.57	3695.71
451.76	3693.37
451.94	3803.37
452.13	3969.55
452.31	3805.71
452.49	3784.65
452.68	3906.35
452.86	3843.16
453.05	3880.61
453.23	4046.79
453.42	3782.31
453.60	3887.63
453.78	3971.89
453.97	3932.10
454.15	3925.08
454.34	3836.14
454.52	4044.45
454.70	4084.23
454.89	4180.20
455.07	4093.60
455.26	4007.00
455.44	4201.26
455.62	4025.72
455.81	4262.12
455.99	4107.64
456.17	4060.83
456.36	4079.55
456.54	4245.73
456.73	4318.29
456.91	4304.25
457.09	4271.48
457.28	4194.24
457.46	4372.12
457.64	4339.35
457.83	4414.25
458.01	4278.50
458.19	4444.68
458.38	4306.59
458.56	4550.00
458.74	4547.66
458.93	4477.44
459.11	4505.53
459.29	4360.42
459.48	4461.06
459.66	4468.08
459.84	4751.29
460.03	4587.45
460.21	4472.76
460.39	4734.90
460.57	4620.22
460.76	4599.15
460.94	4552.34
461.12	4589.79
461.31	4615.54
461.49	4702.14
461.67	4671.71
461.85	4706.82
462.04	4821.50
462.22	4894.06
462.40	4798.10
462.59	4870.65
462.77	4690.43
462.95	4723.20
463.13	4716.18
463.32	4786.40
463.50	4938.53
463.68	4819.16
463.86	5041.51
464.05	4952.57
464.23	4798.10
464.41	4837.89
464.59	4788.74
464.78	4884.70
464.96	5057.90
465.14	4997.04
465.32	4940.87
465.50	5125.77
465.69	4983.00
465.87	4959.60
466.05	4957.25
466.23	5081.30
466.41	5200.67
466.60	5310.68
466.78	5043.85
466.96	5029.81
467.14	4994.70
467.32	5277.91
467.51	5341.10
467.69	4978.32
467.87	5085.98
468.05	5144.50
468.23	5135.14
468.41	5240.46
468.60	5137.48
468.78	5320.04
468.96	5203.01
469.14	5193.65
469.32	5348.12
469.50	5219.39
469.69	5434.72
469.87	5406.64
470.05	5420.68
470.23	5561.11
470.41	5542.39
470.59	5380.89
470.77	5345.78
470.95	5526.00
471.14	5741.33
471.32	5303.65
471.50	5579.84
471.68	5636.01
471.86	5633.67
472.04	5685.16
472.22	5837.30
472.40	5547.07
472.58	5776.44
472.77	5834.96
472.95	5926.24
473.13	6078.37
473.31	5867.72
473.49	5839.64
473.67	5902.83
473.85	5909.85
474.03	5891.13
474.21	6066.67
474.39	6069.01
474.57	6118.16
474.75	6216.46
474.93	6291.36
475.12	6223.48
475.30	6214.12
475.48	6143.91
475.66	6239.87
475.84	6413.07
476.02	6384.98
476.20	6450.52
476.38	6476.26
476.56	6703.29
476.74	6452.86
476.92	6511.37
477.10	6534.78
477.28	6581.59
477.46	6757.13
477.64	6759.47
477.82	7000.54
478.00	6864.79
478.18	6899.90
478.36	7101.19
478.54	7089.48
478.72	6939.69
478.90	7098.84
479.08	7157.36
479.26	7187.79
479.44	7311.83
479.62	7424.18
479.80	7379.71
479.98	7492.05
480.16	7585.68
480.34	7440.56
480.52	7611.42
480.70	7740.15
480.88	7613.76
481.06	7683.98
481.24	7679.30
481.41	7810.37
481.59	8093.57
481.77	7950.80
481.95	8028.04
482.13	8154.43
482.31	8163.79
482.49	8180.17
482.67	8372.10
482.85	8222.30
483.03	8402.52
483.21	8437.63
483.39	8533.59
483.57	8566.36
483.74	8615.51
483.92	8575.72
484.10	9020.42
484.28	9039.15
484.46	9116.39
484.64	9188.94
484.82	9142.13
485.00	9247.46
485.18	9132.77
485.35	9427.68
485.53	9544.70
485.71	9427.68
485.89	9568.11
486.07	9586.83
486.25	9657.05
486.43	9493.21
486.61	9820.89
486.78	9804.50
486.96	10036.22
487.14	10146.22
487.32	9914.51
487.50	10216.44
487.68	10225.80
487.85	10300.70
488.03	10656.46
488.21	10642.42
488.39	10717.31
488.57	10696.25
488.75	10871.79
488.92	10836.68
489.10	10909.24
489.28	10981.79
489.46	11253.30
489.64	11052.01
489.81	11480.33
489.99	11309.47
490.17	11508.41
490.35	11412.45
490.53	11559.91
490.70	11646.51
490.88	11681.61
491.06	11793.96
491.24	11646.51
491.41	11880.56
491.59	11922.69
491.77	11971.84
491.95	12095.89
492.13	12210.57
492.30	12248.02
492.48	12503.14
492.66	12315.90
492.84	12456.33
493.01	12428.24
493.19	12587.40
493.37	12727.83
493.54	13078.91
493.72	13018.06
493.90	13027.42
494.08	13137.43
494.25	13411.27
494.43	13259.13
494.61	13380.84
494.79	13394.89
494.96	13528.30
495.14	13434.68
495.32	13444.04
495.49	13610.22
495.67	13755.33
495.85	13776.39
496.02	13731.92
496.20	13954.27
496.38	14017.47
496.55	13928.53
496.73	14120.45
496.91	14284.29
497.09	14267.91
497.26	14569.83
497.44	14190.67
497.62	14167.26
497.79	14806.23
497.97	14497.28
498.14	14508.98
498.32	14796.87
498.50	14897.51
498.67	14974.75
498.85	14946.66
499.03	15115.18
499.20	14839.00
499.38	15136.24
499.56	15105.82
499.73	15351.57
499.91	15267.31
500.08	15789.25
500.26	15403.07
500.44	15714.36
500.61	15606.69
500.79	15597.33
500.97	15676.91
501.14	15969.48
501.32	15838.41
501.49	15742.44
501.67	15974.16
501.84	15747.12
502.02	15786.91
502.20	16100.55
502.37	16231.62
502.55	16201.19
502.72	16259.70
502.90	16512.48
503.07	16161.40
503.25	16350.98
503.43	16421.20
503.60	16521.84
503.78	16624.83
503.95	16659.93
504.13	16563.97
504.30	16781.64
504.48	16620.14
504.65	16961.86
504.83	17158.47
505.01	17102.29
505.18	17022.72
505.36	17099.95
505.53	16744.19
505.71	17146.76
505.88	17205.28
506.06	17111.66
506.23	17399.54
506.41	17254.43
506.58	17184.21
506.76	17738.92
506.93	17444.01
507.11	17429.97
507.28	17385.50
507.46	17465.08
507.63	17862.97
507.81	17965.95
507.98	17940.21
508.16	17834.88
508.33	17855.95
508.50	17980.00
508.68	17792.75
508.85	17998.72
509.03	18375.55
509.20	18377.89
509.38	18319.37
509.55	18625.98
509.73	18588.53
509.90	18466.83
510.08	18544.06
510.25	18614.28
510.42	18265.54
510.60	18534.70
510.77	18916.21
510.95	18972.38
511.12	18448.10
511.30	18946.64
511.47	18967.70
511.64	19087.07
511.82	18911.53
511.99	18944.30
512.17	19068.34
512.34	19012.17
512.51	19295.38
512.69	19597.31
512.86	19353.89
513.04	19590.28
513.21	19847.74
513.38	19613.69
513.56	19342.19
513.73	19499.00
513.90	19833.70
514.08	19278.99
514.25	19646.46
514.43	20091.16
514.60	20023.28
514.77	19618.37
514.95	20081.80
515.12	19889.87
515.29	19995.20
515.47	19777.53
515.64	20077.12
515.81	20250.32
515.99	20140.31
516.16	20219.89
516.33	20531.18
516.51	20545.22
516.68	20577.99
516.85	20430.54
517.03	20238.61
517.20	20339.26
517.37	20908.01
517.54	20716.08
517.72	20826.09
517.89	20786.30
518.06	20346.28
518.24	20915.03
518.41	20638.84
518.58	20549.90
518.75	20851.83
518.93	20929.07
519.10	20985.24
519.27	20893.96
519.45	21071.84
519.62	21392.50
519.79	21092.91
519.96	21179.51
520.14	21425.26
520.31	21242.70
520.48	21638.25
520.65	21357.39
520.83	21495.48
521.00	21558.67
521.17	21458.03
521.34	21624.21
521.52	21649.96
521.69	21895.71
521.86	21750.60
522.03	21825.50
522.20	21874.65
522.38	21912.10
522.55	22209.34
522.72	22153.17
522.89	21991.67
523.07	22555.74
523.24	22118.06
523.41	22190.62
523.58	22251.47
523.75	22211.68
523.92	21998.70
524.10	22462.12
524.27	22204.66
524.44	22513.61
524.61	22508.93
524.78	22888.10
524.96	22422.33
525.13	22721.92
525.30	22726.60
525.47	22937.25
525.64	22504.25
525.81	23248.54
525.98	22794.48
526.16	23140.88
526.33	22658.73
526.50	23522.38
526.67	22813.20
526.84	23295.35
527.01	22820.22
527.18	23026.19
527.36	23215.77
527.53	23211.09
527.70	23047.26
527.87	23447.49
528.04	23073.00
528.21	23269.61
528.38	23424.08
528.55	23854.74
528.72	23204.07
528.89	23695.58
529.07	23513.02
529.24	23562.17
529.41	23417.06
529.58	23583.24
529.75	23597.28
529.92	24074.75
530.09	23503.66
530.26	23777.50
530.43	24020.92
530.60	23487.28
530.77	24016.24
530.94	23887.51
531.11	23765.80
531.28	23964.75
531.46	23653.45
531.63	24238.59
531.80	24252.63
531.97	24273.70
532.14	24051.34
532.31	24271.36
532.48	24348.59
532.65	24390.72
532.82	24212.84
532.99	24119.22
533.16	24416.47
533.33	24456.26
533.50	24301.78
533.67	24292.42
533.84	24231.57
534.01	24610.73
534.18	24332.21
534.35	24938.41
534.52	24599.03
534.69	25135.01
534.86	24767.55
535.03	24788.61
535.20	24952.45
535.37	24762.87
535.54	24648.18
535.71	24446.90
535.88	24788.61
536.05	24924.36
536.22	24912.66
536.38	24947.77
536.55	25252.04
536.72	25043.73
536.89	25055.43
537.06	25097.56
537.23	25380.77
537.40	24826.06
537.57	25092.88
537.74	25146.72
537.91	25633.55
538.08	25275.45
538.25	25240.34
538.42	25008.62
538.59	25652.27
538.75	25177.14
538.92	25441.62
539.09	25483.75
539.26	25523.54
539.43	25450.99
539.60	25841.85
539.77	25624.18
539.94	25764.62
540.11	25710.78
540.28	25839.51
540.44	25439.28
540.61	25766.96
540.78	25607.80
540.95	25916.75
541.12	25647.59
541.29	25766.96
541.46	25935.48
541.62	25853.56
541.79	25879.30
541.96	25624.18
542.13	25895.69
542.30	25834.83
542.47	26174.21
542.63	26202.30
542.80	26504.23
542.97	26590.83
543.14	26424.65
543.31	26214.00
543.48	26190.59
543.64	26703.17
543.81	26775.73
543.98	26513.59
544.15	26824.88
544.32	26962.97
544.48	26932.54
544.65	26544.02
544.82	26490.18
544.99	26305.28
545.16	26513.59
545.32	26923.18
545.49	26862.33
545.66	26881.05
545.83	27023.83
546.00	26925.52
546.16	27264.90
546.33	26623.59
546.50	26359.11
546.67	26761.69
546.83	26689.13
547.00	27012.12
547.17	27278.94
547.34	27005.10
547.50	27260.22
547.67	27248.52
547.84	27255.54
548.00	27255.54
548.17	27517.68
548.34	26998.08
548.51	27285.97
548.67	27424.06
548.84	27468.53
549.01	27236.81
549.18	27332.78
549.34	26918.50
549.51	27508.32
549.68	27494.27
549.84	27548.11
550.01	27496.61
550.18	27548.11
550.34	27646.41
550.51	28025.57
550.68	27868.76
550.84	27496.61
551.01	27817.27
551.18	27484.91
551.34	27627.68
551.51	27583.21
551.68	27768.12
551.84	28074.73
552.01	27831.31
552.18	27805.56
552.34	27658.11
552.51	28044.30
552.68	27896.85
552.84	27704.92
553.01	27969.40
553.18	28212.82
553.34	27810.25
553.51	28119.20
553.67	28086.43
553.84	28421.13
554.01	28332.18
554.17	28067.70
554.34	28645.82
554.51	27953.02
554.67	27742.37
554.84	28226.86
555.00	28034.94
555.17	28334.53
555.33	27955.36
555.50	28173.03
555.67	28292.40
555.83	28510.07
556.00	28212.82
556.16	28591.98
556.33	28184.73
556.50	28507.72
556.66	28676.24
556.83	28208.14
556.99	28676.24
557.16	28840.08
557.32	28517.09
557.49	28599.01
557.65	28545.17
557.82	28294.74
557.98	28294.74
558.15	28945.41
558.32	29088.18
558.48	28451.55
558.65	28790.93
558.81	28701.99
558.98	29202.86
559.14	28514.75
559.31	28306.44
559.47	28933.70
559.64	28526.45
559.80	28687.95
559.97	28996.90
560.13	28587.30
560.30	29013.28
560.46	28809.65
560.63	28716.03
560.79	28886.89
560.96	28898.59
561.12	29010.94
561.29	29097.54
561.45	29142.01
561.61	28676.24
561.78	29050.73
561.94	29317.55
562.11	29244.99
562.27	29500.11
562.44	29287.12
562.60	29020.30
562.77	29343.30
562.93	28809.65
563.10	28943.06
563.26	29153.71
563.42	29364.36
563.59	29228.61
563.75	29469.69
563.92	29263.72
564.08	29134.99
564.24	29083.50
564.41	28828.38
564.57	29291.80
564.74	28999.24
564.90	29312.87
565.07	29352.66
565.23	29600.76
565.39	29322.23
565.56	29523.52
565.72	29032.00
565.88	29495.43
566.05	29043.71
566.21	29383.09
566.38	29024.98
566.54	29280.10
566.70	29628.84
566.87	29848.85
567.03	29680.33
567.19	29565.65
567.36	29600.76
567.52	29682.67
567.68	29762.25
567.85	29486.07
568.01	29415.85
568.17	29465.00
568.34	29876.94
568.50	29640.54
568.66	29867.58
568.83	29455.64
568.99	29352.66
569.15	29235.63
569.32	29635.86
569.48	29095.20
569.64	29542.24
569.81	29720.12
569.97	29596.07
570.13	29846.51
570.30	29331.59
570.46	29965.88
570.62	29373.72
570.78	29764.59
570.95	29544.58
571.11	29890.98
571.27	29661.61
571.43	29404.15
571.60	29378.40
571.76	29837.15
571.92	29715.44
572.09	30005.67
572.25	29900.34
572.41	29923.75
572.57	30033.75
572.74	29898.00
572.90	29635.86
573.06	29752.89
573.22	29457.98
573.38	29895.66
573.55	29500.11
573.71	29802.04
573.87	30171.85
574.03	30050.14
574.20	29890.98
574.36	29673.31
574.52	30003.33
574.68	30031.41
574.84	29736.51
575.01	29647.57
575.17	30017.37
575.33	29834.81
575.49	29455.64
575.65	30003.33
575.82	29834.81
575.98	29783.32
576.14	30338.02
576.30	29865.24
576.46	29694.38
576.62	29771.61
576.79	29855.87
576.95	29804.38
577.11	30164.82
577.27	30026.73
577.43	29741.19
577.59	29961.20
577.75	30029.07
577.92	29612.46
578.08	29722.46
578.24	29872.26
578.40	29963.54
578.56	29905.02
578.72	29935.45
578.88	30040.78
579.04	30029.07
579.21	29961.20
579.37	29647.57
579.53	29876.94
579.69	29874.60
579.85	29923.75
580.01	29944.81
580.17	29905.02
580.33	29750.55
580.49	29797.36
580.65	29940.13
580.82	30286.53
580.98	30345.05
581.14	29619.48
581.30	29989.28
581.46	29586.71
581.62	30160.14
581.78	29830.13
581.94	30017.37
582.10	30122.69
582.26	29898.00
582.42	29848.85
582.58	30419.94
582.74	30199.93
582.90	30211.64
583.06	30382.49
583.22	30169.51
583.38	30361.43
583.54	30213.98
583.70	30237.38
583.86	29965.88
584.02	29743.53
584.18	30445.69
584.34	30281.85
584.50	30249.08
584.66	29898.00
584.82	30033.75
584.98	30045.46
585.14	29841.83
585.30	29699.06
585.46	29776.30
585.62	30094.61
585.78	30321.64
585.94	30057.16
586.10	30206.95
586.26	30415.26
586.42	30080.56
586.58	30188.23
586.74	30155.46
586.90	29832.47
587.06	29816.08
587.22	30281.85
587.38	30139.08
587.54	30445.69
587.70	30590.80
587.86	30263.13
588.02	30654.00
588.18	30246.74
588.34	29837.15
588.49	30239.72
588.65	29816.08
588.81	29993.97
588.97	29986.94
589.13	29989.28
589.29	30162.48
589.45	30146.10
589.61	30066.52
589.77	30616.55
589.93	30403.56
590.08	30403.56
590.24	30295.89
590.40	30551.01
590.56	30731.23
590.72	30316.96
590.88	30185.89
591.04	30602.50
591.20	30794.43
591.35	30820.17
591.51	30991.03
591.67	30209.29
591.83	30965.29
591.99	30457.39
592.15	30665.70
592.31	30426.96
592.46	30239.72
592.62	30326.32
592.78	30010.35
592.94	30235.04
593.10	30396.54
593.26	30593.14
593.41	30438.67
593.57	30672.72
593.73	30726.55
593.89	31079.97
594.05	30658.68
594.20	30260.79
594.36	30583.78
594.52	30532.29
594.68	30611.87
594.84	30476.12
594.99	30661.02
595.15	30417.60
595.31	30576.76
595.47	31248.49
595.62	30520.59
595.78	30513.56
595.94	30251.42
596.10	30312.28
596.25	30553.35
596.41	30148.44
596.57	30092.27
596.73	30546.33
596.88	30707.83
597.04	30740.60
597.20	30417.60
597.36	30778.04
597.51	30792.09
597.67	30635.27
597.83	30646.97
597.99	30263.13
598.14	30408.24
598.30	30415.26
598.46	30618.89
598.61	30707.83
598.77	30298.23
598.93	30813.15
599.09	30944.22
599.24	31049.55
599.40	30939.54
599.56	30632.93
599.71	30466.75
599.87	30724.21
600.03	30483.14
600.18	30448.03
600.34	30441.01
600.50	30560.37
600.65	30382.49
600.81	31035.50
600.97	30923.16
601.12	30782.73
601.28	31019.12
601.44	30899.75
601.59	31028.48
601.75	30436.33
601.91	30764.00
602.06	30536.97
602.22	30801.45
602.37	30773.36
602.53	30984.01
602.69	30817.83
602.84	30764.00
603.00	30714.85
603.16	30689.10
603.31	30536.97
603.47	30897.41
603.62	30696.13
603.78	30609.53
603.94	30326.32
604.09	30499.52
604.25	30279.51
604.40	30576.76
604.56	30646.97
604.71	30794.43
604.87	30813.15
605.03	31009.76
605.18	31194.66
605.34	30658.68
605.49	30654.00
605.65	30616.55
605.80	30148.44
605.96	30815.49
606.12	30487.82
606.27	30813.15
606.43	30543.99
606.58	30644.63
606.74	30682.08
606.89	30646.97
607.05	30719.53
607.20	30726.55
607.36	30946.56
607.51	30623.57
607.67	30335.68
607.82	30483.14
607.98	30366.11
608.13	30497.18
608.29	30183.55
608.44	30848.26
608.60	30323.98
608.75	30600.16
608.91	30061.84
609.06	30424.62
609.22	30501.86
609.37	30394.20
609.53	30281.85
609.68	30333.34
609.84	30101.63
609.99	30424.62
610.15	30403.56
610.30	30043.12
610.46	30160.14
610.61	30401.22
610.76	30609.53
610.92	30433.99
611.07	30424.62
611.23	30279.51
611.38	30237.38
611.54	29947.15
611.69	30122.69
611.84	29958.86
612.00	30176.53
612.15	29909.71
612.31	30450.37
612.46	30211.64
612.62	30476.12
612.77	30235.04
612.92	30471.43
613.08	30157.80
613.23	30417.60
613.39	30010.35
613.54	29855.87
613.69	30221.00
613.85	29652.25
614.00	29933.11
614.15	30080.56
614.31	30216.32
614.46	30118.01
614.62	30033.75
614.77	30382.49
614.92	30150.78
615.08	30305.26
615.23	29888.64
615.38	30176.53
615.54	29956.52
615.69	29862.90
615.84	29813.74
616.00	30071.20
616.15	29986.94
616.30	30141.42
616.46	30094.61
616.61	30008.01
616.76	30092.27
616.92	29832.47
617.07	30134.40
617.22	29689.70
617.37	29956.52
617.53	29991.62
617.68	29933.11
617.83	29617.14
617.99	29525.86
618.14	29776.30
618.29	29830.13
618.45	29769.27
618.60	29645.23
618.75	29914.39
618.90	29839.49
619.06	29986.94
619.21	30033.75
619.36	29766.93
619.51	29607.78
619.67	29511.81
619.82	29488.41
619.97	29460.32
620.12	29015.62
620.28	29385.43
620.43	29645.23
620.58	29680.33
620.73	29504.79
620.89	29556.28
621.04	29673.31
621.19	29666.29
621.34	29516.50
621.49	29479.05
621.65	29472.03
621.80	29273.08
621.95	29209.89
622.10	29429.90
622.25	29516.50
622.41	29418.19
622.56	29310.53
622.71	29544.58
622.86	29193.50
623.01	29610.12
623.16	28868.17
623.32	29244.99
623.47	29284.78
623.62	29280.10
623.77	29254.36
623.92	29518.84
624.07	29024.98
624.23	28699.65
624.38	29467.34
624.53	29319.89
624.68	29106.90
624.83	29226.27
624.98	29401.81
625.13	29017.96
625.29	28968.81
625.44	29111.58
625.59	29123.29
625.74	28884.55
625.89	28765.18
626.04	28919.66
626.19	28744.12
626.34	29139.67
626.49	28746.46
626.65	28882.21
626.80	28980.51
626.95	28957.11
627.10	28847.10
627.25	28603.69
627.40	28709.01
627.55	28570.92
627.70	28659.86
627.85	28643.48
628.00	28257.29
628.15	28418.78
628.30	28264.31
628.45	28460.91
628.60	28322.82
628.76	28599.01
628.91	29064.77
629.06	28631.77
629.21	28650.50
629.36	28444.53
629.51	28591.98
629.66	28479.64
629.81	28559.22
629.96	27995.15
630.11	28360.27
630.26	28374.31
630.41	28376.66
630.56	28081.75
630.71	28477.30
630.86	28315.80
631.01	28339.21
631.16	28573.26
631.31	28407.08
631.46	28030.26
631.61	28360.27
631.76	28229.20
631.91	28388.36
632.06	28065.36
632.21	28044.30
632.36	28320.48
632.51	27936.63
632.66	28240.90
632.81	27882.80
632.96	28411.76
633.10	27903.87
633.25	28161.33
633.40	28016.21
633.55	27964.72
633.70	27632.36
633.85	27323.41
634.00	28264.31
634.15	27845.35
634.30	27520.02
634.45	27915.57
634.60	27793.86
634.75	27985.79
634.90	27721.30
635.05	27777.48
635.19	27899.19
635.34	28088.77
635.49	27971.74
635.64	27782.16
635.79	27538.74
635.94	27889.82
636.09	27803.22
636.24	27480.23
636.39	27395.97
636.53	27922.59
636.68	27342.14
636.83	27718.96
636.98	28070.04
637.13	27709.60
637.28	27611.30
637.43	27754.07
637.57	27814.93
637.72	27501.29
637.87	27534.06
638.02	27304.69
638.17	27620.66
638.32	27363.20
638.46	27168.94
638.61	27227.45
638.76	27424.06
638.91	27145.53
639.06	27274.26
639.20	27377.25
639.35	27218.09
639.50	27482.57
639.65	27370.22
639.80	27782.16
639.94	27084.68
640.09	27157.24
640.24	27367.88
640.39	27180.64
640.54	27054.25
640.68	26864.67
640.83	26796.79
640.98	26794.45
641.13	26824.88
641.27	27072.98
641.42	27063.61
641.57	27227.45
641.72	27253.20
641.86	26895.10
642.01	26904.46
642.16	26827.22
642.31	26801.47
642.45	27131.49
642.60	26981.70
642.75	26286.56
642.90	26822.54
643.04	26745.30
643.19	26813.18
643.34	26895.10
643.48	26836.58
643.63	27175.96
643.78	26679.77
643.93	26899.78
644.07	26803.82
644.22	27377.25
644.37	26920.84
644.51	26565.08
644.66	26843.60
644.81	26045.48
644.95	26387.20
645.10	26279.54
645.25	26773.39
645.39	26754.66
645.54	26700.83
645.69	26480.82
645.83	26478.48
645.98	26965.31
646.13	26728.92
646.27	26567.42
646.42	26160.17
646.57	26845.94
646.71	26054.84
646.86	26691.47
647.00	26567.42
647.15	26288.90
647.30	26590.83
647.44	26391.88
647.59	26555.72
647.74	26242.09
647.88	26448.05
648.03	26286.56
648.17	26288.90
648.32	26478.48
648.47	26586.15
648.61	26635.30
648.76	26588.49
648.90	26377.84
649.05	26377.84
649.20	26031.44
649.34	26146.12
649.49	25869.94
649.63	26333.37
649.78	26115.70
649.92	26181.23
650.07	26080.59
650.21	26017.40
650.36	26073.57
650.51	26221.02
650.65	26223.36
650.80	25954.20
650.94	25989.31
651.09	25785.68
651.23	25844.20
651.38	25855.90
651.52	25296.51
651.67	25617.16
651.81	25919.09
651.96	26293.58
652.10	25797.38
652.25	25727.17
652.39	25792.70
652.54	26342.73
652.68	25717.81
652.83	26080.59
652.97	26036.12
653.12	26033.78
653.26	25617.16
653.41	25907.39
653.55	25827.81
653.70	25621.84
653.84	25631.21
653.99	25568.01
654.13	25324.60
654.27	25511.84
654.42	25612.48
654.56	25703.76
654.71	25219.27
654.85	25535.24
655.00	25589.08
655.14	25975.27
655.29	25338.64
655.43	25359.70
655.57	25607.80
655.72	25317.57
655.86	25443.96
656.01	25261.40
656.15	25355.02
656.30	25226.29
656.44	25006.28
656.58	25348.00
656.73	25149.06
656.87	25277.79
657.01	25245.02
657.16	25551.63
657.30	25291.83
657.45	25385.45
657.59	25317.57
657.73	25301.19
657.88	25298.85
658.02	25233.32
658.16	25549.29
658.31	25495.46
658.45	25167.78
658.60	25144.38
658.74	24968.84
658.88	25106.93
659.03	24882.24
659.17	25142.03
659.31	25025.01
659.46	24879.89
659.60	24886.92
659.74	24842.45
659.89	24980.54
660.03	24814.36
660.17	24805.00
660.32	24704.35
660.46	24692.65
660.60	24552.22
660.74	24744.14
660.89	24767.55
661.03	24100.50
661.17	24479.66
661.32	24388.38
661.46	24865.85
661.60	24702.01
661.74	24774.57
661.89	24442.21
662.03	24758.19
662.17	24386.04
662.31	24250.29
662.46	24332.21
662.60	24191.78
662.74	24278.38
662.88	24294.76
663.03	24149.65
663.17	23819.63
663.31	23840.70
663.45	23800.91
663.60	23955.38
663.74	23866.44
663.88	24056.03
664.02	24149.65
664.17	23941.34
664.31	23761.12
664.45	23878.15
664.59	23756.44
664.73	23812.61
664.88	23562.17
665.02	23531.75
665.16	23480.25
665.30	23800.91
665.44	23962.40
665.59	23721.33
665.73	23461.53
665.87	23304.71
666.01	23489.62
666.15	23655.79
666.29	23583.24
666.44	23538.77
666.58	23101.09
666.72	23379.61
666.86	23281.31
667.00	23351.52
667.14	23506.00
667.28	23487.28
667.43	23124.49
667.57	23250.88
667.71	22881.08
667.85	23283.65
667.99	23047.26
668.13	23019.17
668.27	23183.01
668.41	22897.46
668.56	23058.96
668.70	23239.18
668.84	23058.96
668.98	23047.26
669.12	22993.42
669.26	22693.83
669.40	22920.87
669.54	22810.86
669.68	22443.40
669.82	22670.43
669.96	22106.36
670.10	22452.76
670.25	22286.58
670.39	22382.54
670.53	22293.60
670.67	22417.65
670.81	22298.28
670.95	22235.09
671.09	22345.09
671.23	22354.46
671.37	22492.55
671.51	22263.18
671.65	22246.79
671.79	22258.49
671.93	22223.39
672.07	21933.16
672.21	22160.19
672.35	21750.60
672.49	21715.49
672.63	21921.46
672.77	21645.27
672.91	21874.65
673.05	21891.03
673.19	21706.13
673.33	21893.37
673.47	21666.34
673.61	21483.78
673.75	21596.12
673.89	21689.74
674.03	21806.77
674.17	21315.26
674.31	21397.18
674.45	21153.76
674.59	21399.52
674.73	21394.84
674.87	21177.17
675.01	21216.96
675.15	21022.69
675.29	21088.23
675.43	20980.56
675.56	21039.08
675.70	20746.51
675.84	20947.79
675.98	20395.43
676.12	20957.16
676.26	21270.79
676.40	20863.54
676.54	20669.27
676.68	20795.66
676.82	20493.73
676.96	20683.31
677.10	20362.66
677.23	20599.05
677.37	20308.83
677.51	20042.01
677.65	20201.16
677.79	19723.69
677.93	19969.45
678.07	20334.57
678.21	19831.36
678.34	20051.37
678.48	20098.18
678.62	19601.99
678.76	19740.08
678.90	19499.00
679.04	19616.03
679.18	19896.89
679.31	19590.28
679.45	19267.29
679.59	19068.34
679.73	19283.67
679.87	19255.59
680.00	19194.73
680.14	19536.45
680.28	19243.88
680.42	18963.02
680.56	19190.05
680.70	19028.56
680.83	19094.09
680.97	18888.12
681.11	19250.91
681.25	18647.05
681.39	18913.87
681.52	18773.44
681.66	18679.82
681.80	18412.99
681.94	18340.44
682.07	18771.10
682.21	18333.42
682.35	18459.81
682.49	18108.72
682.62	18160.22
682.76	18036.17
682.90	18050.21
683.04	18239.79
683.17	18082.98
683.31	17720.20
683.45	18031.49
683.59	18115.75
683.72	17975.31
683.86	18010.42
684.00	17858.29
684.13	17987.02
684.27	17432.31
684.41	17621.89
684.55	17451.03
684.68	17298.90
684.82	17399.54
684.96	17345.71
685.09	17373.80
685.23	17226.34
685.37	17298.90
685.50	17102.29
685.64	17254.43
685.78	17165.49
685.91	17338.69
686.05	17039.10
686.19	16765.26
686.32	16996.97
686.46	16809.73
686.60	16498.44
686.73	16615.46
686.87	16713.77
687.01	16404.81
687.14	16575.67
687.28	16046.71
687.42	16365.03
687.55	16191.83
687.69	16365.03
687.82	16269.06
687.96	16320.56
688.10	15917.98
688.23	16266.72
688.37	16074.80
688.50	15653.50
688.64	15829.04
688.78	16006.92
688.91	15932.03
689.05	15712.02
689.18	15641.80
689.32	15520.09
689.46	15445.20
689.59	15662.86
689.73	15492.01
689.86	15374.98
690.00	15384.34
690.13	15108.16
690.27	15206.46
690.41	15442.85
690.54	15318.81
690.68	15309.44
690.81	14986.45
690.95	15272.00
691.08	15169.01
691.22	14799.21
691.35	14946.66
691.49	14885.81
691.62	14782.82
691.76	14586.22
691.89	14621.33
692.03	14438.76
692.16	14455.15
692.30	14263.22
692.43	14398.98
692.57	14235.14
692.70	14157.90
692.84	14443.45
692.97	14288.97
693.11	14398.98
693.24	14211.73
693.38	14455.15
693.51	14108.75
693.65	14218.75
693.78	13870.01
693.92	13963.64
694.05	13968.32
694.19	13968.32
694.32	13713.20
694.45	13633.62
694.59	13736.60
694.72	13434.68
694.86	13465.10
694.99	13282.54
695.13	13383.18
695.26	13048.49
695.39	13181.90
695.53	13312.97
695.66	13476.80
695.80	13425.31
695.93	13123.38
696.07	13249.77
696.20	13165.51
696.33	12872.95
696.47	13041.46
696.60	12791.03
696.73	13060.19
696.87	12875.29
697.00	12554.63
697.14	12627.19
697.27	12458.67
697.40	12362.71
697.54	12479.74
697.67	12512.50
697.80	12126.32
697.94	12205.89
698.07	12067.80
698.21	11922.69
698.34	12264.41
698.47	12088.87
698.61	12252.70
698.74	12156.74
698.87	12257.39
699.01	11899.28
699.14	11999.93
699.27	11831.41
699.40	11967.16
699.54	11871.20
699.67	11854.81
699.80	11817.36
699.94	11754.17
700.07	11616.08
700.20	11281.38
700.34	11543.52
700.47	11463.94
700.60	11300.11
700.73	11660.55
700.87	11222.87
701.00	11178.40
701.13	10998.18
701.26	11178.40
701.40	11222.87
701.53	11262.66
701.66	11098.82
701.79	11049.67
701.93	10862.43
702.06	10883.49
702.19	10574.54
702.32	10733.70
702.46	10635.39
702.59	10438.79
702.72	10441.13
702.85	10626.03
702.99	10267.93
703.12	10546.45
703.25	10422.41
703.38	10230.48
703.51	10572.20
703.65	10499.64
703.78	10265.59
703.91	10015.15
704.04	10377.94
704.17	10125.16
704.31	10052.60
704.44	10068.98
704.57	10047.92
704.70	9792.80
704.83	9872.38
704.96	9760.03
705.10	9652.37
705.23	9722.59
>>>>>End Processed Spectral Data<<<<<
