SpectraSuite Data File
++++++++++++++++++++++++++++++++++++
Date: Fri Oct 18 13:58:05 GMT-05:00 2013
User: bianchi
Dark Spectrum Present: No
Reference Spectrum Present: No
Number of Sampled Component Spectra: 1
Spectrometers: USB2+H05261
Integration Time (usec): 50000 (USB2+H05261)
Spectra Averaged: 1 (USB2+H05261)
Boxcar Smoothing: 0 (USB2+H05261)
Correct for Electrical Dark: No (USB2+H05261)
Strobe/Lamp Enabled: No (USB2+H05261)
Correct for Detector Non-linearity: No (USB2+H05261)
Correct for Stray Light: No (USB2+H05261)
Number of Pixels in Processed Spectrum: 2048
>>>>>Begin Processed Spectral Data<<<<<
365.73	0.00
365.92	0.00
366.12	0.00
366.32	0.00
366.52	0.00
366.72	0.00
366.91	0.00
367.11	0.00
367.31	0.00
367.51	0.00
367.70	0.00
367.90	0.00
368.10	0.00
368.30	0.00
368.49	0.00
368.69	0.00
368.89	0.00
369.09	0.00
369.28	0.00
369.48	0.00
369.68	0.00
369.87	0.00
370.07	0.00
370.27	0.00
370.47	0.00
370.66	121.71
370.86	177.88
371.06	177.88
371.25	107.66
371.45	147.45
371.65	154.48
371.84	110.01
372.04	220.01
372.24	128.73
372.44	224.69
372.63	194.26
372.83	212.99
373.03	161.50
373.22	175.54
373.42	201.29
373.62	220.01
373.81	248.10
374.01	203.63
374.21	238.73
374.40	177.88
374.60	259.80
374.79	276.18
374.99	264.48
375.19	203.63
375.38	252.78
375.58	280.86
375.78	234.05
375.97	241.08
376.17	327.68
376.37	191.92
376.56	353.42
376.76	252.78
376.95	248.10
377.15	203.63
377.35	259.80
377.54	250.44
377.74	297.25
377.93	259.80
378.13	276.18
378.33	379.17
378.52	313.63
378.72	355.76
378.91	367.46
379.11	292.57
379.31	198.95
379.50	280.86
379.70	365.12
379.89	283.20
380.09	271.50
380.28	320.65
380.48	369.80
380.68	287.89
380.87	334.70
381.07	294.91
381.26	283.20
381.46	327.68
381.65	402.57
381.85	271.50
382.04	358.10
382.24	372.15
382.43	386.19
382.63	376.83
382.83	421.30
383.02	379.17
383.22	358.10
383.41	306.61
383.61	278.52
383.80	325.33
384.00	397.89
384.19	393.21
384.39	400.23
384.58	383.85
384.78	482.15
384.97	409.59
385.17	400.23
385.36	388.53
385.56	428.32
385.75	407.25
385.95	437.68
386.14	461.09
386.34	456.40
386.53	404.91
386.72	425.98
386.92	437.68
387.11	430.66
387.31	433.00
387.50	447.04
387.70	440.02
387.89	486.83
388.09	449.38
388.28	451.72
388.48	404.91
388.67	456.40
388.86	456.40
389.06	437.68
389.25	472.79
389.45	465.77
389.64	486.83
389.84	454.06
390.03	449.38
390.22	447.04
390.42	463.43
390.61	465.77
390.81	486.83
391.00	477.47
391.19	578.11
391.39	500.87
391.58	526.62
391.78	510.24
391.97	519.60
392.16	440.02
392.36	500.87
392.55	575.77
392.75	540.66
392.94	601.52
393.13	620.24
393.33	524.28
393.52	624.92
393.71	608.54
393.91	575.77
394.10	596.84
394.29	624.92
394.49	587.47
394.68	636.63
394.88	596.84
395.07	594.50
395.26	664.71
395.46	638.97
395.65	730.25
395.84	685.78
396.04	723.23
396.23	634.29
396.42	653.01
396.62	723.23
396.81	716.20
397.00	641.31
397.19	704.50
397.39	594.50
397.58	704.50
397.77	697.48
397.97	734.93
398.16	636.63
398.35	688.12
398.55	695.14
398.74	744.29
398.93	763.01
399.12	765.36
399.32	681.10
399.51	767.70
399.70	788.76
399.90	695.14
400.09	765.36
400.28	753.65
400.47	819.19
400.67	767.70
400.86	807.48
401.05	849.61
401.24	851.96
401.44	816.85
401.63	837.91
401.82	823.87
402.01	912.81
402.21	887.06
402.40	795.78
402.59	772.38
402.78	884.72
402.97	849.61
403.17	898.77
403.36	856.64
403.55	856.64
403.74	959.62
403.93	933.87
404.13	931.53
404.32	954.94
404.51	1008.77
404.70	987.71
404.89	896.43
405.09	1053.24
405.28	964.30
405.47	1062.60
405.66	933.87
405.85	1088.35
406.05	957.28
406.24	999.41
406.43	1081.33
406.62	1018.13
406.81	1034.52
407.00	1018.13
407.20	1008.77
407.39	1027.50
407.58	1142.18
407.77	1055.58
407.96	1116.44
408.15	1121.12
408.34	1128.14
408.54	1144.52
408.73	1062.60
408.92	1083.67
409.11	1196.01
409.30	1156.22
409.49	1160.91
409.68	1123.46
409.87	1174.95
410.07	1245.16
410.26	1273.25
410.45	1277.93
410.64	1240.48
410.83	1226.44
411.02	1146.86
411.21	1329.42
411.40	1296.66
411.59	1245.16
411.78	1280.27
411.98	1261.55
412.17	1329.42
412.36	1224.10
412.55	1383.26
412.74	1385.60
412.93	1343.47
413.12	1296.66
413.31	1376.24
413.50	1416.02
413.69	1467.52
413.88	1481.56
414.07	1444.11
414.26	1493.26
414.45	1561.14
414.64	1584.54
414.83	1589.22
415.02	1570.50
415.22	1596.25
415.41	1715.61
415.60	1526.03
415.79	1575.18
415.98	1629.01
416.17	1643.06
416.36	1753.06
416.55	1636.03
416.74	1722.63
416.93	1689.87
417.12	1666.46
417.31	1619.65
417.50	1706.25
417.69	1785.83
417.88	1750.72
418.07	1713.27
418.26	1755.40
418.45	1909.88
418.64	1785.83
418.83	1781.15
419.02	1685.19
419.21	1827.96
419.39	1823.28
419.58	1853.70
419.77	1914.56
419.96	1926.26
420.15	1919.24
420.34	1933.28
420.53	1912.22
420.72	1998.82
420.91	1944.99
421.10	2024.56
421.29	1970.73
421.48	1998.82
421.67	1933.28
421.86	1970.73
422.05	1987.11
422.24	2052.65
422.43	1991.80
422.61	1849.02
422.80	2097.12
422.99	2167.34
423.18	2120.53
423.37	1966.05
423.56	2036.27
423.75	2090.10
423.94	1991.80
424.13	1937.96
424.32	1863.07
424.50	2099.46
424.69	2008.18
424.88	2160.31
425.07	2186.06
425.26	2022.22
425.45	2043.29
425.64	1961.37
425.83	2012.86
426.01	2190.74
426.20	2165.00
426.39	2139.25
426.58	2136.91
426.77	2106.48
426.96	2193.08
427.15	2148.61
427.33	2155.63
427.52	2157.97
427.71	2169.68
427.90	2190.74
428.09	2136.91
428.28	2176.70
428.46	2307.77
428.65	2141.59
428.84	2223.51
429.03	2223.51
429.22	2200.10
429.40	2249.25
429.59	2202.44
429.78	2356.92
429.97	2249.25
430.16	2251.60
430.34	2415.43
430.53	2366.28
430.72	2420.11
430.91	2361.60
431.10	2349.90
431.28	2370.96
431.47	2363.94
431.66	2420.11
431.85	2387.35
432.03	2382.67
432.22	2499.69
432.41	2459.90
432.60	2424.80
432.79	2429.48
432.97	2478.63
433.16	2555.86
433.35	2527.78
433.54	2504.37
433.72	2483.31
433.91	2553.52
434.10	2612.04
434.28	2616.72
434.47	2693.96
434.66	2649.49
434.85	2527.78
435.03	2637.78
435.22	2661.19
435.41	2715.02
435.59	2693.96
435.78	2729.06
435.97	2813.32
436.16	2754.81
436.34	2700.98
436.53	2715.02
436.72	2663.53
436.90	2766.51
437.09	2813.32
437.28	2705.66
437.46	2764.17
437.65	2691.62
437.84	2855.45
438.02	2874.18
438.21	2850.77
438.40	2932.69
438.58	2972.48
438.77	2935.03
438.96	2932.69
439.14	2960.78
439.33	2967.80
439.52	3012.27
439.70	3094.19
439.89	3141.00
440.08	3080.14
440.26	3192.49
440.45	3087.17
440.63	3096.53
440.82	3211.22
441.01	3131.64
441.19	3232.28
441.38	3239.30
441.57	3274.41
441.75	3272.07
441.94	3330.58
442.12	3330.58
442.31	3478.04
442.50	3445.27
442.68	3309.52
442.87	3431.23
443.05	3386.76
443.24	3478.04
443.43	3442.93
443.61	3468.67
443.80	3698.05
443.98	3501.44
444.17	3449.95
444.35	3480.38
444.54	3375.05
444.73	3555.27
444.91	3447.61
445.10	3286.11
445.28	3487.40
445.47	3433.57
445.65	3435.91
445.84	3592.72
446.02	3538.89
446.21	3396.12
446.39	3499.10
446.58	3698.05
446.77	3653.58
446.95	3557.61
447.14	3674.64
447.32	3646.55
447.51	3611.45
447.69	3662.94
447.88	3651.24
448.06	3620.81
448.25	3522.51
448.43	3531.87
448.62	3747.20
448.80	3747.20
448.99	3662.94
449.17	3817.41
449.36	3641.87
449.54	3765.92
449.73	3810.39
449.91	3786.99
450.10	3911.04
450.28	3887.63
450.46	3768.26
450.65	3812.73
450.83	3836.14
451.02	3791.67
451.20	4035.08
451.39	3824.44
451.57	3934.44
451.76	3864.22
451.94	3847.84
452.13	4028.06
452.31	3925.08
452.49	3911.04
452.68	3878.27
452.86	3985.93
453.05	4007.00
453.23	3981.25
453.42	4025.72
453.60	4035.08
453.78	4037.42
453.97	3889.97
454.15	4119.34
454.34	3941.46
454.52	4114.66
454.70	4021.04
454.89	4245.73
455.07	4147.43
455.26	4205.94
455.44	4304.25
455.62	4273.82
455.81	4203.60
455.99	4205.94
456.17	4238.71
456.36	4341.69
456.54	4411.91
456.73	4386.16
456.91	4365.10
457.09	4423.61
457.28	4566.39
457.46	4360.42
457.64	4491.49
457.83	4493.83
458.01	4374.46
458.19	4440.00
458.38	4571.07
458.56	4554.68
458.74	4617.88
458.93	4557.02
459.11	4533.62
459.29	4514.89
459.48	4540.64
459.66	4550.00
459.84	4484.47
460.03	4748.95
460.21	4620.22
460.39	4582.77
460.57	4683.41
460.76	4744.27
460.94	4774.69
461.12	4699.80
461.31	4737.24
461.49	4779.37
461.67	4751.29
461.85	4807.46
462.04	4807.46
462.22	5097.69
462.40	4847.25
462.59	4940.87
462.77	4875.34
462.95	5013.43
463.13	4849.59
463.32	4971.30
463.50	4999.38
463.68	5043.85
463.86	4873.00
464.05	4854.27
464.23	4828.53
464.41	4999.38
464.59	4973.64
464.78	5104.71
464.96	5151.52
465.14	4912.78
465.32	5041.51
465.50	4968.96
465.69	5069.60
465.87	5146.84
466.05	5093.01
466.23	5128.11
466.41	5104.71
466.60	5308.34
466.78	5036.83
466.96	5177.26
467.14	5123.43
467.32	5320.04
467.51	5296.63
467.69	5081.30
467.87	5315.36
468.05	5298.97
468.23	5205.35
468.41	5219.39
468.60	5252.16
468.78	5584.52
468.96	5310.68
469.14	5451.11
469.32	5380.89
469.50	5231.10
469.69	5535.37
469.87	5392.59
470.05	5607.92
470.23	5533.03
470.41	5390.25
470.59	5568.13
470.77	5495.58
470.95	5600.90
471.14	5502.60
471.32	5624.31
471.50	5666.44
471.68	5746.02
471.86	5696.86
472.04	5902.83
472.22	5860.70
472.40	5881.77
472.58	5949.64
472.77	5900.49
472.95	5984.75
473.13	6127.52
473.31	5818.57
473.49	5984.75
473.67	5963.68
473.85	6113.48
474.03	6228.17
474.21	6218.80
474.39	6244.55
474.57	6239.87
474.75	6370.94
474.93	6298.38
475.12	6307.74
475.30	6193.06
475.48	6319.45
475.66	6375.62
475.84	6583.93
476.02	6331.15
476.20	6403.71
476.38	6487.96
476.56	6825.00
476.74	6738.40
476.92	6808.62
477.10	6691.59
477.28	6815.64
477.46	6827.34
477.64	6946.71
477.82	7089.48
478.00	7059.06
478.18	7258.00
478.36	7028.63
478.54	7318.86
478.72	7293.11
478.90	7314.17
479.08	7180.76
479.26	7648.87
479.44	7674.62
479.62	7485.03
479.80	7569.29
479.98	7583.34
480.16	7772.92
480.34	7810.37
480.52	7918.03
480.70	8030.38
480.88	7669.94
481.06	8004.63
481.24	7903.99
481.41	8056.12
481.59	8105.28
481.77	8180.17
481.95	8198.90
482.13	8365.07
482.31	8271.45
482.49	8386.14
482.67	8559.34
482.85	8688.07
483.03	8809.78
483.21	8727.86
483.39	8802.75
483.57	8856.59
483.74	8945.53
483.92	8865.95
484.10	9004.04
484.28	9121.07
484.46	9111.71
484.64	9352.78
484.82	9277.88
485.00	9170.22
485.18	9542.36
485.35	9863.02
485.53	9631.30
485.71	9678.12
485.89	9853.66
486.07	9933.23
486.25	10003.45
486.43	9982.38
486.61	10036.22
486.78	9961.32
486.96	10228.14
487.14	10279.63
487.32	10141.54
487.50	10471.56
487.68	10459.85
487.85	10822.64
488.03	10820.30
488.21	10834.34
488.39	10918.60
488.57	10986.47
488.75	10857.75
488.92	11248.61
489.10	11269.68
489.28	11157.33
489.46	11344.58
489.64	11403.09
489.81	11510.75
489.99	11557.57
490.17	11733.11
490.35	11770.55
490.53	11669.91
490.70	11789.28
490.88	12102.91
491.06	12109.93
491.24	12053.76
491.41	12138.02
491.59	12484.42
491.77	12271.43
491.95	12308.88
492.13	12636.55
492.30	12493.78
492.48	12631.87
492.66	12791.03
492.84	12779.32
493.01	12936.14
493.19	13118.70
493.37	12954.87
493.54	13179.56
493.72	13193.60
493.90	13282.54
494.08	13294.24
494.25	13439.36
494.43	13490.85
494.61	13575.11
494.79	13640.64
494.96	13640.64
495.14	13633.62
495.32	13802.14
495.49	13855.97
495.67	14024.49
495.85	13973.00
496.02	13954.27
496.20	14476.21
496.38	14125.13
496.55	14253.86
496.73	14768.78
496.91	14356.85
497.09	14611.96
497.26	14979.43
497.44	14555.79
497.62	14649.41
497.79	14860.06
497.97	14944.32
498.14	15059.01
498.32	15201.78
498.50	15286.04
498.67	15410.09
498.85	15297.74
499.03	15515.41
499.20	15426.47
499.38	15552.86
499.56	15702.65
499.73	15833.72
499.91	15742.44
500.08	15573.92
500.26	15611.37
500.44	15896.92
500.61	15997.56
500.79	16154.38
500.97	16255.02
501.14	16070.12
501.32	16088.84
501.49	16133.31
501.67	16264.38
501.84	16217.57
502.02	16446.94
502.20	16641.21
502.37	16475.03
502.55	16533.54
502.72	16802.71
502.90	16596.74
503.07	16772.28
503.25	16552.27
503.43	16854.20
503.60	17146.76
503.78	17326.99
503.95	17231.02
504.13	16961.86
504.30	17064.85
504.48	17165.49
504.65	17001.65
504.83	17369.12
505.01	17444.01
505.18	17341.03
505.36	17664.02
505.53	17530.61
505.71	17451.03
505.88	17474.44
506.06	17689.77
506.23	17858.29
506.41	17757.64
506.58	18045.53
506.76	18017.44
506.93	17905.10
507.11	18204.69
507.28	17869.99
507.46	18155.54
507.63	18047.87
507.81	18366.18
507.98	18235.11
508.16	18185.96
508.33	18356.82
508.50	18258.52
508.68	18640.03
508.85	18616.62
509.03	18745.35
509.20	18637.69
509.38	18670.45
509.55	18864.72
509.73	18965.36
509.90	19058.98
510.08	18789.82
510.25	19002.81
510.42	19080.05
510.60	19147.92
510.77	19262.61
510.95	19290.70
511.12	19154.94
511.30	19201.76
511.47	19051.96
511.64	19646.46
511.82	19580.92
511.99	19609.01
512.17	19674.54
512.34	19826.68
512.51	19772.85
512.69	19875.83
512.86	19576.24
513.04	19962.43
513.21	19761.14
513.38	20126.27
513.56	19880.51
513.73	20072.43
513.90	20325.21
514.08	20067.75
514.25	20156.69
514.43	20336.91
514.60	20250.32
514.77	20329.89
514.95	20570.97
515.12	20100.52
515.29	20294.79
515.47	20472.67
515.64	20858.85
515.81	20355.64
515.99	20634.16
516.16	20739.49
516.33	20968.86
516.51	20823.75
516.68	20854.17
516.85	21048.44
517.03	20931.41
517.20	21200.57
517.37	21076.52
517.54	21163.12
517.72	21170.15
517.89	21029.71
518.06	21376.11
518.24	20994.61
518.41	21305.90
518.58	21223.98
518.75	21425.26
518.93	21549.31
519.10	21605.49
519.27	21626.55
519.45	21701.45
519.62	21458.03
519.79	21572.72
519.96	21553.99
520.14	21886.35
520.31	21493.14
520.48	22008.06
520.65	22022.10
520.83	21933.16
521.00	22146.15
521.17	22008.06
521.34	22331.05
521.52	22382.54
521.69	22263.18
521.86	22345.09
522.03	22263.18
522.20	22483.19
522.38	22593.19
522.55	22317.01
522.72	22590.85
522.89	22408.29
523.07	22852.99
523.24	22829.59
523.41	23016.83
523.58	22672.77
523.75	22787.46
523.92	22787.46
524.10	23161.94
524.27	23131.51
524.44	23063.64
524.61	23073.00
524.78	23168.96
524.96	23084.70
525.13	23122.15
525.30	23393.65
525.47	23407.70
525.64	23269.61
525.81	23145.56
525.98	23344.50
526.16	23548.13
526.33	23302.37
526.50	23529.41
526.67	23421.74
526.84	23674.52
527.01	23206.41
527.18	24088.79
527.36	23953.04
527.53	23852.40
527.70	24156.67
527.87	24016.24
528.04	23950.70
528.21	23946.02
528.38	23976.45
528.55	24006.87
528.72	23976.45
528.89	24367.32
529.07	24336.89
529.24	24081.77
529.41	24039.64
529.58	24180.07
529.75	24004.53
529.92	24547.54
530.09	24093.47
530.26	24166.03
530.43	24428.17
530.60	24353.27
530.77	24584.99
530.94	24446.90
531.11	24116.88
531.28	24416.47
531.46	24547.54
531.63	24718.40
531.80	24772.23
531.97	24474.98
532.14	24940.75
532.31	24720.74
532.48	25062.46
532.65	24917.34
532.82	24472.64
532.99	24800.32
533.16	24989.90
533.33	25010.96
533.50	25071.82
533.67	25067.14
533.84	24737.12
534.01	25324.60
534.18	24669.25
534.35	25624.18
534.52	25249.70
534.69	25429.92
534.86	25352.68
535.03	25277.79
535.20	25443.96
535.37	25434.60
535.54	25666.31
535.71	25284.81
535.88	25465.03
536.05	25619.50
536.22	25804.41
536.38	26225.70
536.55	25928.45
536.72	25556.31
536.89	25715.47
537.06	25563.33
537.23	25610.14
537.40	25773.98
537.57	25862.92
537.74	25731.85
537.91	26225.70
538.08	25977.61
538.25	25802.07
538.42	26118.04
538.59	26188.25
538.75	25776.32
538.92	26080.59
539.09	25933.14
539.26	26139.10
539.43	26326.35
539.60	26038.46
539.77	26513.59
539.94	26431.67
540.11	26536.99
540.28	26558.06
540.44	26188.25
540.61	26204.64
540.78	26277.19
540.95	26291.24
541.12	26391.88
541.29	26347.41
541.46	26464.44
541.62	26515.93
541.79	26583.80
541.96	26265.49
542.13	26319.32
542.30	26726.58
542.47	26857.65
542.63	26885.73
542.80	27108.08
542.97	27433.42
543.14	27330.44
543.31	26881.05
543.48	27374.91
543.64	27480.23
543.81	27421.72
543.98	27150.21
544.15	27316.39
544.32	27428.74
544.48	27702.58
544.65	27541.08
544.82	27412.35
544.99	27494.27
545.16	27421.72
545.32	27281.28
545.49	27625.34
545.66	28032.60
545.83	27824.29
546.00	27585.55
546.16	27566.83
546.33	27700.24
546.50	27309.37
546.67	28058.34
546.83	27419.38
547.00	28116.86
547.17	27552.79
547.34	27871.10
547.50	27906.21
547.67	28109.83
547.84	28032.60
548.00	28095.79
548.17	27969.40
548.34	28084.09
548.51	28018.55
548.67	28397.72
548.84	28369.63
549.01	28208.14
549.18	27953.02
549.34	28044.30
549.51	27733.01
549.68	28027.92
549.84	28175.37
550.01	28332.18
550.18	28306.44
550.34	28264.31
550.51	28489.00
550.68	28278.35
550.84	28116.86
551.01	28383.68
551.18	28060.68
551.34	28313.46
551.51	28238.56
551.68	28432.83
551.84	28425.81
552.01	28201.11
552.18	28655.18
552.34	28673.90
552.51	28386.02
552.68	28809.65
552.84	28383.68
553.01	28788.59
553.18	28538.15
553.34	28631.77
553.51	28837.74
553.67	29212.23
553.84	29170.10
554.01	28896.25
554.17	29385.43
554.34	28589.64
554.51	28734.76
554.67	29081.16
554.84	28814.34
555.00	29483.73
555.17	29146.69
555.33	29179.46
555.50	29216.91
555.67	29172.44
555.83	29097.54
556.00	29034.35
556.16	29481.39
556.33	29130.31
556.50	29177.12
556.66	29153.71
556.83	29406.49
556.99	29577.35
557.16	29750.55
557.32	29626.50
557.49	29507.13
557.65	29408.83
557.82	29270.74
557.98	29055.41
558.15	29418.19
558.32	29467.34
558.48	29427.56
558.65	29825.45
558.81	29909.71
558.98	29457.98
559.14	29593.73
559.31	29172.44
559.47	29584.37
559.64	29797.36
559.80	29266.06
559.97	30026.73
560.13	29694.38
560.30	29565.65
560.46	29928.43
560.63	30129.72
560.79	29685.01
560.96	29921.41
561.12	29731.83
561.29	29968.22
561.45	29883.96
561.61	29610.12
561.78	29764.59
561.94	30080.56
562.11	30328.66
562.27	29909.71
562.44	29551.60
562.60	29902.68
562.77	29921.41
562.93	29752.89
563.10	30026.73
563.26	29851.19
563.42	30302.92
563.59	30064.18
563.75	29879.28
563.92	30546.33
564.08	30087.59
564.24	29809.06
564.41	30239.72
564.57	29942.47
564.74	29984.60
564.90	30183.55
565.07	29855.87
565.23	30235.04
565.39	30073.54
565.56	30249.08
565.72	30125.04
565.88	29940.13
566.05	29792.68
566.21	30031.41
566.38	30295.89
566.54	30164.82
566.70	30586.12
566.87	30448.03
567.03	30068.86
567.19	30888.05
567.36	30141.42
567.52	30204.61
567.68	30646.97
567.85	30153.12
568.01	30302.92
568.17	30221.00
568.34	30382.49
568.50	30190.57
568.66	30143.76
568.83	30525.27
568.99	30155.46
569.15	30380.15
569.32	30256.11
569.48	30501.86
569.64	30190.57
569.81	30354.41
569.97	30749.96
570.13	30618.89
570.30	30305.26
570.46	30602.50
570.62	30628.25
570.78	30153.12
570.95	30551.01
571.11	30239.72
571.27	30256.11
571.43	30391.86
571.60	30487.82
571.76	30305.26
571.92	30572.08
572.09	30646.97
572.25	30705.49
572.41	30686.76
572.57	30586.12
572.74	31199.34
572.90	30646.97
573.06	30384.83
573.22	30663.36
573.38	30267.81
573.55	30347.39
573.71	31140.83
573.87	30618.89
574.03	30628.25
574.20	30827.20
574.36	30754.64
574.52	30937.20
574.68	30644.63
574.84	30602.50
575.01	31154.87
575.17	30766.34
575.33	30302.92
575.49	30700.81
575.65	30616.55
575.82	31180.62
575.98	30654.00
576.14	30693.79
576.30	30780.39
576.46	30703.15
576.62	30490.16
576.79	30878.69
576.95	30441.01
577.11	31012.10
577.27	30773.36
577.43	30866.98
577.59	30993.37
577.75	30962.95
577.92	30607.19
578.08	30794.43
578.24	30927.84
578.40	30834.22
578.56	30700.81
578.72	30628.25
578.88	30890.39
579.04	31213.38
579.21	30782.73
579.37	30787.41
579.53	31187.64
579.69	30532.29
579.85	30665.70
580.01	30991.03
580.17	30771.02
580.33	30796.77
580.49	30848.26
580.65	30946.56
580.82	31019.12
580.98	30944.22
581.14	31051.89
581.30	30787.41
581.46	30658.68
581.62	30838.90
581.78	30843.58
581.94	31056.57
582.10	30981.67
582.26	30976.99
582.42	30965.29
582.58	31297.64
582.74	30700.81
582.90	30969.97
583.06	31119.76
583.22	31194.66
583.38	30822.51
583.54	31175.94
583.70	30712.51
583.86	31012.10
584.02	30604.84
584.18	31084.65
584.34	31426.37
584.50	31028.48
584.66	31056.57
584.82	30684.42
584.98	31133.81
585.14	31274.24
585.30	31075.29
585.46	31166.57
585.62	31117.42
585.78	31241.47
585.94	30602.50
586.10	31131.47
586.26	31386.58
586.42	31234.45
586.58	31070.61
586.74	31065.93
586.90	30946.56
587.06	31182.96
587.22	30796.77
587.38	30927.84
587.54	31229.77
587.70	31707.24
587.86	31433.39
588.02	31433.39
588.18	31487.23
588.34	31358.50
588.49	30976.99
588.65	30967.63
588.81	31075.29
588.97	31094.02
589.13	30895.07
589.29	31108.06
589.45	31367.86
589.61	31615.96
589.77	31550.42
589.93	31433.39
590.08	31459.14
590.24	31405.31
590.40	31005.08
590.56	31585.53
590.72	31143.17
590.88	31236.79
591.04	31145.51
591.20	31611.28
591.35	31402.97
591.51	31901.50
591.67	31594.89
591.83	31683.83
591.99	31491.91
592.15	31538.72
592.31	31470.84
592.46	31468.50
592.62	31346.79
592.78	31241.47
592.94	31040.18
593.10	31552.76
593.26	31550.42
593.41	31615.96
593.57	31454.46
593.73	31463.82
593.89	31243.81
594.05	31564.46
594.20	31470.84
594.36	31777.45
594.52	31402.97
594.68	31529.36
594.84	31257.85
594.99	31875.76
595.15	31590.21
595.31	31768.09
595.47	31833.63
595.62	31646.38
595.78	31447.44
595.94	31260.20
596.10	31527.02
596.25	31433.39
596.41	31646.38
596.57	31204.02
596.73	31370.20
596.88	31337.43
597.04	31690.85
597.20	31658.09
597.36	31732.98
597.51	31271.90
597.67	31632.34
597.83	31711.92
597.99	31775.11
598.14	31213.38
598.30	31702.56
598.46	31751.71
598.61	31566.81
598.77	31421.69
598.93	31817.24
599.09	31791.50
599.24	31831.29
599.40	31871.07
599.56	31686.17
599.71	31531.70
599.87	31871.07
600.03	31531.70
600.18	31463.82
600.34	31716.60
600.50	31665.11
600.65	31608.93
600.81	31370.20
600.97	31917.89
601.12	32119.17
601.28	32048.96
601.44	31817.24
601.59	31721.28
601.75	31519.99
601.91	31672.13
602.06	31459.14
602.22	31807.88
602.37	31854.69
602.53	31517.65
602.69	32133.21
602.84	31679.15
603.00	32070.02
603.16	31592.55
603.31	31583.19
603.47	31782.13
603.62	31571.49
603.78	31201.68
603.94	31732.98
604.09	31412.33
604.25	31634.68
604.40	32013.85
604.56	31545.74
604.71	31828.95
604.87	31819.58
605.03	31763.41
605.18	31917.89
605.34	31950.65
605.49	31651.06
605.65	31805.54
605.80	31534.04
605.96	31335.09
606.12	31545.74
606.27	31676.81
606.43	31543.40
606.58	31711.92
606.74	31747.03
606.89	31641.70
607.05	31878.10
607.20	31981.08
607.36	31945.97
607.51	31512.97
607.67	31129.12
607.82	31557.44
607.98	31426.37
608.13	31182.96
608.29	31630.00
608.44	31620.64
608.60	31648.72
608.75	31587.87
608.91	31683.83
609.06	31564.46
609.22	31702.56
609.37	31187.64
609.53	31901.50
609.68	31555.10
609.84	31353.82
609.99	31529.36
610.15	31290.62
610.30	31463.82
610.46	31051.89
610.61	31669.79
610.76	31674.47
610.92	31466.16
611.07	31632.34
611.23	31360.84
611.38	31213.38
611.54	31171.25
611.69	31241.47
611.84	31065.93
612.00	31466.16
612.15	30677.40
612.31	31508.29
612.46	31311.69
612.62	31082.31
612.77	31232.11
612.92	31463.82
613.08	31318.71
613.23	31632.34
613.39	31342.11
613.54	30960.61
613.69	31028.48
613.85	31297.64
614.00	31213.38
614.15	31285.94
614.31	31049.55
614.46	31611.28
614.62	31330.41
614.77	31332.75
614.92	31091.68
615.08	30852.94
615.23	30871.67
615.38	30628.25
615.54	30904.43
615.69	30974.65
615.84	30789.75
616.00	31005.08
616.15	30897.41
616.30	31337.43
616.46	31159.55
616.61	30637.61
616.76	31269.56
616.92	30813.15
617.07	30768.68
617.22	30700.81
617.37	30534.63
617.53	31044.87
617.68	30892.73
617.83	30665.70
617.99	30288.87
618.14	30696.13
618.29	30892.73
618.45	30719.53
618.60	30857.62
618.75	30707.83
618.90	30988.69
619.06	30902.09
619.21	30600.16
619.36	30569.74
619.51	30625.91
619.67	30492.50
619.82	30490.16
619.97	30525.27
620.12	30153.12
620.28	30429.30
620.43	30452.71
620.58	30719.53
620.73	31009.76
620.89	30593.14
621.04	30543.99
621.19	30485.48
621.34	30291.21
621.49	30302.92
621.65	30455.05
621.80	30328.66
621.95	30265.47
622.10	30223.34
622.25	30223.34
622.41	30181.21
622.56	30302.92
622.71	30284.19
622.86	30597.82
623.01	30490.16
623.16	29965.88
623.32	30003.33
623.47	30527.61
623.62	29961.20
623.77	30153.12
623.92	30202.27
624.07	29886.30
624.23	30452.71
624.38	30000.99
624.53	30305.26
624.68	30174.19
624.83	30101.63
624.98	30113.33
625.13	30260.79
625.29	30015.03
625.44	29778.64
625.59	29846.51
625.74	29460.32
625.89	29731.83
626.04	29942.47
626.19	29638.20
626.34	29504.79
626.49	29523.52
626.65	30000.99
626.80	29799.70
626.95	29900.34
627.10	29820.77
627.25	29745.87
627.40	29425.22
627.55	29893.32
627.70	29521.18
627.85	29848.85
628.00	29820.77
628.15	29692.04
628.30	29530.54
628.45	29940.13
628.60	29551.60
628.76	29991.62
628.91	30047.80
629.06	29600.76
629.21	29481.39
629.36	30008.01
629.51	29350.32
629.66	29352.66
629.81	29352.66
629.96	29521.18
630.11	29378.40
630.26	29170.10
630.41	29127.97
630.56	28973.49
630.71	29256.70
630.86	29060.09
631.01	29418.19
631.16	29497.77
631.31	29521.18
631.46	29214.57
631.61	29432.24
631.76	29090.52
631.91	28964.13
632.06	29373.72
632.21	28917.32
632.36	29333.93
632.51	28957.11
632.66	29249.67
632.81	28802.63
632.96	29013.28
633.10	29071.79
633.25	29198.18
633.40	28961.79
633.55	29263.72
633.70	28533.47
633.85	29024.98
634.00	28849.44
634.15	28744.12
634.30	28917.32
634.45	28624.75
634.60	28479.64
634.75	28945.41
634.90	28954.77
635.05	28992.22
635.19	28865.83
635.34	29237.97
635.49	29090.52
635.64	29010.94
635.79	28931.36
635.94	28858.81
636.09	28790.93
636.24	28886.89
636.39	28472.62
636.53	28559.22
636.68	28240.90
636.83	28404.74
636.98	28945.41
637.13	28318.14
637.28	28566.24
637.43	28943.06
637.57	28603.69
637.72	28388.36
637.87	28458.57
638.02	28561.56
638.17	28774.55
638.32	28636.45
638.46	28299.42
638.61	28158.99
638.76	28018.55
638.91	28147.28
639.06	28264.31
639.20	28781.57
639.35	28343.89
639.50	28091.11
639.65	28549.85
639.80	28463.25
639.94	28430.49
640.09	28137.92
640.24	28109.83
640.39	28264.31
640.54	27903.87
640.68	28166.01
640.83	27976.42
640.98	28009.19
641.13	27894.50
641.27	28123.88
641.42	28034.94
641.57	27571.51
641.72	28088.77
641.86	27927.27
642.01	27997.49
642.16	27920.25
642.31	28084.09
642.45	28093.45
642.60	27709.60
642.75	27433.42
642.90	27536.40
643.04	27461.51
643.19	27679.18
643.34	27946.00
643.48	27793.86
643.63	28030.26
643.78	27828.97
643.93	28025.57
644.07	27821.95
644.22	28154.30
644.37	27721.30
644.51	27674.49
644.66	27487.25
644.81	27489.59
644.95	27527.04
645.10	27466.19
645.25	27417.04
645.39	27857.06
645.54	27566.83
645.69	27641.73
645.83	27751.73
645.98	27590.24
646.13	27414.69
646.27	27442.78
646.42	27431.08
646.57	27871.10
646.71	27161.92
646.86	27442.78
647.00	27623.00
647.15	27175.96
647.30	27117.45
647.44	27215.75
647.59	27119.79
647.74	27283.62
647.88	27400.65
648.03	27449.80
648.17	27777.48
648.32	27339.80
648.47	27419.38
648.61	26822.54
648.76	27782.16
648.90	27426.40
649.05	27344.48
649.20	26724.24
649.34	27161.92
649.49	27021.48
649.63	26794.45
649.78	26946.59
649.92	26717.22
650.07	27108.08
650.21	27241.50
650.36	26862.33
650.51	26951.27
650.65	27180.64
650.80	27002.76
650.94	27087.02
651.09	27264.90
651.23	26953.61
651.38	26745.30
651.52	27065.96
651.67	26897.44
651.81	26859.99
651.96	26986.38
652.10	27133.83
652.25	26829.56
652.39	27168.94
652.54	27168.94
652.68	26857.65
652.83	27218.09
652.97	26752.32
653.12	26998.08
653.26	26642.32
653.41	26937.23
653.55	26312.30
653.70	26684.45
653.84	26529.97
653.99	26525.29
654.13	26462.10
654.27	26647.00
654.42	26544.02
654.56	26466.78
654.71	26867.01
654.85	26857.65
655.00	26600.19
655.14	26499.55
655.29	26527.63
655.43	26710.19
655.57	26623.59
655.72	26492.52
655.86	26700.83
656.01	26579.12
656.15	26281.88
656.30	26125.06
656.44	26429.33
656.58	26331.03
656.73	26249.11
656.87	25956.54
657.01	26265.49
657.16	26558.06
657.30	26560.40
657.45	26230.38
657.59	26169.53
657.73	26080.59
657.88	26366.13
658.02	25900.37
658.16	26171.87
658.31	26256.13
658.45	25961.22
658.60	25951.86
658.74	26015.05
658.88	25855.90
659.03	26274.85
659.17	25654.61
659.31	26099.31
659.46	25766.96
659.60	25802.07
659.74	25886.32
659.89	25621.84
660.03	25486.09
660.17	25865.26
660.32	25748.23
660.46	25226.29
660.60	25434.60
660.74	25720.15
660.89	25682.70
661.03	25525.88
661.17	25631.21
661.32	25544.61
661.46	25570.35
661.60	25256.72
661.74	25568.01
661.89	25373.75
662.03	25383.11
662.17	25378.43
662.31	25352.68
662.46	25568.01
662.60	25317.57
662.74	25142.03
662.88	25151.40
663.03	25043.73
663.17	24706.70
663.31	25034.37
663.45	24931.39
663.60	24943.09
663.74	24989.90
663.88	24877.55
664.02	24968.84
664.17	24978.20
664.31	25083.52
664.45	24678.61
664.59	25029.69
664.73	24961.81
664.88	24964.15
665.02	24512.43
665.16	24477.32
665.30	24573.28
665.44	24580.31
665.59	24435.19
665.73	24519.45
665.87	24149.65
666.01	24332.21
666.15	24865.85
666.29	24301.78
666.44	24325.19
666.58	24418.81
666.72	24215.18
666.86	24137.94
667.00	24217.52
667.14	24191.78
667.28	24254.97
667.43	24261.99
667.57	24137.94
667.71	23901.55
667.85	24013.90
667.99	23969.43
668.13	23648.77
668.27	24112.20
668.41	23810.27
668.56	23826.65
668.70	24072.41
668.84	24196.46
668.98	23889.85
669.12	24025.60
669.26	23763.46
669.40	23922.62
669.54	23976.45
669.68	23693.24
669.82	23396.00
669.96	23143.22
670.10	23183.01
670.25	23494.30
670.39	23283.65
670.53	23220.45
670.67	23077.68
670.81	23096.41
670.95	23452.17
671.09	23159.60
671.23	23250.88
671.37	23414.72
671.51	22913.84
671.65	23222.80
671.79	23283.65
671.93	23253.22
672.07	23082.36
672.21	22930.23
672.35	22761.71
672.49	22565.10
672.63	22742.99
672.77	22689.15
672.91	22541.70
673.05	22499.57
673.19	22562.76
673.33	22843.63
673.47	22696.17
673.61	22684.47
673.75	22590.85
673.89	22593.19
674.03	22492.55
674.17	22251.47
674.31	22361.48
674.45	22221.05
674.59	22436.38
674.73	22183.60
674.87	21792.73
675.01	22019.76
675.15	22050.19
675.29	21605.49
675.43	21940.18
675.56	21713.15
675.70	21549.31
675.84	21806.77
675.98	21350.37
676.12	21916.78
676.26	21631.23
676.40	22052.53
676.54	21579.74
676.68	21350.37
676.82	21296.53
676.96	21116.31
677.10	20987.58
677.23	21329.30
677.37	21106.95
677.51	21123.33
677.65	20926.73
677.79	20856.51
677.93	20802.68
678.07	20884.60
678.21	20620.12
678.34	20702.04
678.48	20655.23
678.62	20376.70
678.76	20798.00
678.90	20741.83
679.04	20421.17
679.18	20238.61
679.31	20369.68
679.45	20304.15
679.59	20063.07
679.73	20126.27
679.87	20149.67
680.00	20058.39
680.14	19995.20
680.28	19824.34
680.42	19845.40
680.56	19791.57
680.70	19747.10
680.83	19824.34
680.97	19508.37
681.11	19555.18
681.25	19524.75
681.39	19473.26
681.52	19447.51
681.66	19477.94
681.80	19096.43
681.94	19346.87
682.07	19365.59
682.21	18960.68
682.35	19115.16
682.49	18920.89
682.62	18951.32
682.76	19009.83
682.90	18916.21
683.04	18944.30
683.17	18759.39
683.31	18747.69
683.45	18827.27
683.59	18586.19
683.72	18806.20
683.86	18518.32
684.00	18373.21
684.13	18195.32
684.27	18518.32
684.41	18263.20
684.55	18307.67
684.68	18104.04
684.82	18031.49
684.96	17937.87
685.09	17909.78
685.23	17921.48
685.37	17865.31
685.50	17827.86
685.64	17832.54
685.78	17642.96
685.91	17811.48
686.05	17584.44
686.19	17352.73
686.32	17607.85
686.46	17460.40
686.60	17146.76
686.73	17174.85
686.87	17282.52
687.01	17207.62
687.14	17231.02
687.28	17099.95
687.42	16982.93
687.55	16917.39
687.69	16720.79
687.82	17001.65
687.96	16982.93
688.10	16765.26
688.23	16659.93
688.37	16566.31
688.50	16688.02
688.64	16753.55
688.78	16706.74
688.91	16650.57
689.05	16348.64
689.18	16142.67
689.32	15901.60
689.46	16180.12
689.59	16292.47
689.73	16133.31
689.86	15917.98
690.00	16121.61
690.13	15817.34
690.27	15800.96
690.41	15981.18
690.54	15662.86
690.68	15857.13
690.81	15840.75
690.95	15583.29
691.08	15655.84
691.22	15599.67
691.35	15396.04
691.49	15480.30
691.62	15637.12
691.76	15417.11
691.89	15316.47
692.03	15152.63
692.16	14909.21
692.30	15110.50
692.43	15154.97
692.57	14841.34
692.70	14902.19
692.84	14724.31
692.97	14883.47
693.11	14558.13
693.24	14658.78
693.38	14707.93
693.51	14705.59
693.65	14668.14
693.78	14459.83
693.92	14394.29
694.05	14324.08
694.19	14394.29
694.32	14249.18
694.45	14291.31
694.59	14104.07
694.72	14092.37
694.86	14047.90
694.99	13720.22
695.13	13914.48
695.26	14162.58
695.39	13659.37
695.53	13659.37
695.66	13736.60
695.80	13797.46
695.93	13621.92
696.07	13626.60
696.20	13621.92
696.33	13455.74
696.47	13783.41
696.60	13245.09
696.73	13359.78
696.87	13329.35
697.00	13067.21
697.14	13022.74
697.27	12870.61
697.40	12844.86
697.54	13083.59
697.67	12734.85
697.80	12669.32
697.94	12559.31
698.07	12603.78
698.21	12549.95
698.34	12744.22
698.47	12795.71
698.61	12692.73
698.74	12472.71
698.87	12624.85
699.01	12341.64
699.14	12442.29
699.27	12376.75
699.40	12292.49
699.54	12362.71
699.67	12269.09
699.80	12145.04
699.94	12037.38
700.07	11915.67
700.20	11758.85
700.34	11859.49
700.47	11772.89
700.60	11824.39
700.73	11850.13
700.87	11768.21
701.00	11716.72
701.13	11648.85
701.26	11391.39
701.40	11777.58
701.53	11597.35
701.66	11508.41
701.79	11396.07
701.93	11234.57
702.06	11241.59
702.19	11241.59
702.32	11056.69
702.46	11241.59
702.59	10883.49
702.72	10895.19
702.85	11052.01
702.99	10846.04
703.12	10991.16
703.25	10843.70
703.38	10799.23
703.51	10717.31
703.65	10949.03
703.78	10771.15
703.91	10696.25
704.04	10705.61
704.17	10801.57
704.31	10595.61
704.44	10342.83
704.57	10314.74
704.70	10202.40
704.83	10251.55
704.96	10246.87
705.10	10188.35
705.23	10033.88
>>>>>End Processed Spectral Data<<<<<
