SpectraSuite Data File
++++++++++++++++++++++++++++++++++++
Date: Fri Oct 18 13:58:11 GMT-05:00 2013
User: bianchi
Dark Spectrum Present: No
Reference Spectrum Present: No
Number of Sampled Component Spectra: 1
Spectrometers: USB2+H05261
Integration Time (usec): 50000 (USB2+H05261)
Spectra Averaged: 1 (USB2+H05261)
Boxcar Smoothing: 0 (USB2+H05261)
Correct for Electrical Dark: No (USB2+H05261)
Strobe/Lamp Enabled: No (USB2+H05261)
Correct for Detector Non-linearity: No (USB2+H05261)
Correct for Stray Light: No (USB2+H05261)
Number of Pixels in Processed Spectrum: 2048
>>>>>Begin Processed Spectral Data<<<<<
365.73	0.00
365.92	0.00
366.12	0.00
366.32	0.00
366.52	0.00
366.72	0.00
366.91	0.00
367.11	0.00
367.31	0.00
367.51	0.00
367.70	0.00
367.90	0.00
368.10	0.00
368.30	0.00
368.49	0.00
368.69	0.00
368.89	0.00
369.09	0.00
369.28	0.00
369.48	0.00
369.68	0.00
369.87	0.00
370.07	0.00
370.27	0.00
370.47	0.00
370.66	44.47
370.86	77.24
371.06	131.07
371.25	161.50
371.45	84.26
371.65	140.43
371.84	138.09
372.04	86.60
372.24	163.84
372.44	149.79
372.63	180.22
372.83	156.82
373.03	191.92
373.22	173.20
373.42	175.54
373.62	173.20
373.81	177.88
374.01	196.60
374.21	273.84
374.40	252.78
374.60	245.76
374.79	210.65
374.99	257.46
375.19	283.20
375.38	203.63
375.58	220.01
375.78	344.06
375.97	311.29
376.17	264.48
376.37	306.61
376.56	304.27
376.76	306.61
376.95	287.89
377.15	227.03
377.35	273.84
377.54	262.14
377.74	297.25
377.93	217.67
378.13	330.02
378.33	334.70
378.52	334.70
378.72	294.91
378.91	304.27
379.11	327.68
379.31	327.68
379.50	362.78
379.70	339.38
379.89	339.38
380.09	339.38
380.28	334.70
380.48	358.10
380.68	278.52
380.87	290.23
381.07	327.68
381.26	360.44
381.46	341.72
381.65	351.08
381.85	423.64
382.04	395.55
382.24	372.15
382.43	411.93
382.63	292.57
382.83	369.80
383.02	404.91
383.22	334.70
383.41	327.68
383.61	409.59
383.80	346.40
384.00	381.51
384.19	414.27
384.39	395.55
384.58	437.68
384.78	418.96
384.97	367.46
385.17	381.51
385.36	409.59
385.56	486.83
385.75	430.66
385.95	376.83
386.14	367.46
386.34	411.93
386.53	430.66
386.72	341.72
386.92	393.21
387.11	454.06
387.31	334.70
387.50	395.55
387.70	372.15
387.89	411.93
388.09	465.77
388.28	423.64
388.48	440.02
388.67	461.09
388.86	463.43
389.06	423.64
389.25	472.79
389.45	484.49
389.64	528.96
389.84	496.19
390.03	568.75
390.22	454.06
390.42	407.25
390.61	477.47
390.81	500.87
391.00	533.64
391.19	496.19
391.39	608.54
391.58	538.32
391.78	547.69
391.97	531.30
392.16	575.77
392.36	601.52
392.55	477.47
392.75	568.75
392.94	554.71
393.13	629.60
393.33	543.00
393.52	507.90
393.71	550.03
393.91	641.31
394.10	624.92
394.29	503.22
394.49	606.20
394.68	617.90
394.88	561.73
395.07	638.97
395.26	662.37
395.46	662.37
395.65	608.54
395.84	716.20
396.04	678.76
396.23	648.33
396.42	699.82
396.62	645.99
396.81	664.71
397.00	606.20
397.19	681.10
397.39	702.16
397.58	648.33
397.77	706.84
397.97	692.80
398.16	653.01
398.35	706.84
398.55	739.61
398.74	798.12
398.93	767.70
399.12	898.77
399.32	709.18
399.51	856.64
399.70	807.48
399.90	795.78
400.09	837.91
400.28	828.55
400.47	772.38
400.67	765.36
400.86	791.10
401.05	760.67
401.24	748.97
401.44	812.17
401.63	926.85
401.82	795.78
402.01	741.95
402.21	917.49
402.40	905.79
402.59	784.08
402.78	938.55
402.97	866.00
403.17	961.96
403.36	931.53
403.55	873.02
403.74	844.93
403.93	976.00
404.13	987.71
404.32	950.26
404.51	938.55
404.70	922.17
404.89	971.32
405.09	1062.60
405.28	926.85
405.47	873.02
405.66	915.15
405.85	887.06
406.05	992.39
406.24	978.34
406.43	1015.79
406.62	1032.18
406.81	1107.07
407.00	1018.13
407.20	1064.94
407.39	1048.56
407.58	1104.73
407.77	1025.15
407.96	1069.62
408.15	1055.58
408.34	1086.01
408.54	1015.79
408.73	1053.24
408.92	1158.57
409.11	1128.14
409.30	1228.78
409.49	1144.52
409.68	1238.14
409.87	1179.63
410.07	1291.98
410.26	1179.63
410.45	1259.21
410.64	1151.54
410.83	1282.61
411.02	1153.88
411.21	1235.80
411.40	1153.88
411.59	1268.57
411.78	1308.36
411.98	1146.86
412.17	1320.06
412.36	1331.76
412.55	1399.64
412.74	1425.39
412.93	1418.36
413.12	1383.26
413.31	1453.47
413.50	1409.00
413.69	1413.68
413.88	1397.30
414.07	1474.54
414.26	1549.43
414.45	1416.02
414.64	1448.79
414.83	1507.30
415.02	1563.48
415.22	1493.26
415.41	1633.69
415.60	1551.78
415.79	1572.84
415.98	1561.14
416.17	1671.14
416.36	1591.56
416.55	1633.69
416.74	1666.46
416.93	1739.02
417.12	1764.76
417.31	1727.32
417.50	1727.32
417.69	1799.87
417.88	1701.57
418.07	1734.34
418.26	1710.93
418.45	1771.79
418.64	1877.11
418.83	1825.62
419.02	1659.44
419.21	1820.94
419.39	1811.57
419.58	1774.13
419.77	1792.85
419.96	1952.01
420.15	1961.37
420.34	1888.81
420.53	1996.48
420.72	1980.09
420.91	1851.36
421.10	1874.77
421.29	2050.31
421.48	1980.09
421.67	2064.35
421.86	2019.88
422.05	2001.16
422.24	1944.99
422.43	1970.73
422.61	1952.01
422.80	2080.74
422.99	2085.42
423.18	2139.25
423.37	2026.90
423.56	2008.18
423.75	2125.21
423.94	2033.93
424.13	1898.17
424.32	1961.37
424.50	2155.63
424.69	2033.93
424.88	2181.38
425.07	2040.95
425.26	2080.74
425.45	2043.29
425.64	2010.52
425.83	2045.63
426.01	2069.03
426.20	2143.93
426.39	2136.91
426.58	2045.63
426.77	2244.57
426.96	2118.18
427.15	2071.37
427.33	2143.93
427.52	2139.25
427.71	2188.40
427.90	2326.49
428.09	2087.76
428.28	2260.96
428.46	2235.21
428.65	2293.72
428.84	2289.04
429.03	2356.92
429.22	2115.84
429.40	2183.72
429.59	2272.66
429.78	2223.51
429.97	2277.34
430.16	2246.91
430.34	2352.24
430.53	2356.92
430.72	2431.82
430.91	2349.90
431.10	2291.38
431.28	2296.07
431.47	2396.71
431.66	2434.16
431.85	2462.24
432.03	2455.22
432.22	2480.97
432.41	2443.52
432.60	2469.27
432.79	2441.18
432.97	2665.87
433.16	2415.43
433.35	2495.01
433.54	2565.23
433.72	2520.76
433.91	2539.48
434.10	2497.35
434.28	2597.99
434.47	2558.21
434.66	2621.40
434.85	2502.03
435.03	2633.10
435.22	2682.25
435.41	2663.53
435.59	2656.51
435.78	2647.15
435.97	2761.83
436.16	2708.00
436.34	2722.04
436.53	2708.00
436.72	2820.35
436.90	2722.04
437.09	2909.29
437.28	2780.56
437.46	2808.64
437.65	2686.94
437.84	2829.71
438.02	2806.30
438.21	2897.58
438.40	2841.41
438.58	2902.26
438.77	2885.88
438.96	3012.27
439.14	3082.49
439.33	2988.86
439.52	3101.21
439.70	3133.98
439.89	3047.38
440.08	3066.10
440.26	3033.33
440.45	3190.15
440.63	3178.45
440.82	3281.43
441.01	3222.92
441.19	3105.89
441.38	3258.03
441.57	3283.77
441.75	3225.26
441.94	3372.71
442.12	3339.94
442.31	3400.80
442.50	3321.22
442.68	3276.75
442.87	3421.86
443.05	3487.40
443.24	3466.33
443.43	3463.99
443.61	3433.57
443.80	3564.64
443.98	3426.54
444.17	3365.69
444.35	3492.08
444.54	3524.85
444.73	3592.72
444.91	3400.80
445.10	3564.64
445.28	3449.95
445.47	3475.70
445.65	3527.19
445.84	3480.38
446.02	3606.77
446.21	3592.72
446.39	3513.14
446.58	3571.66
446.77	3499.10
446.95	3426.54
447.14	3585.70
447.32	3604.42
447.51	3506.12
447.69	3590.38
447.88	3485.06
448.06	3588.04
448.25	3569.32
448.43	3634.85
448.62	3609.11
448.80	3611.45
448.99	3595.06
449.17	3702.73
449.36	3679.32
449.54	3794.01
449.73	3765.92
449.91	3742.52
450.10	3836.14
450.28	3784.65
450.46	4046.79
450.65	3845.50
450.83	3927.42
451.02	3843.16
451.20	3859.54
451.39	3920.40
451.57	3932.10
451.76	3843.16
451.94	3857.20
452.13	3927.42
452.31	3878.27
452.49	3873.59
452.68	4007.00
452.86	3794.01
453.05	3908.69
453.23	3983.59
453.42	3861.88
453.60	3941.46
453.78	4035.08
453.97	4018.70
454.15	3941.46
454.34	3974.23
454.52	4194.24
454.70	4056.15
454.89	4180.20
455.07	4074.87
455.26	4093.60
455.44	4362.76
455.62	4128.70
455.81	4121.68
455.99	4273.82
456.17	4210.62
456.36	4196.58
456.54	4334.67
456.73	4250.41
456.91	4470.42
457.09	4386.16
457.28	4365.10
457.46	4318.29
457.64	4531.28
457.83	4435.32
458.01	4407.23
458.19	4432.97
458.38	4337.01
458.56	4601.49
458.74	4535.96
458.93	4365.10
459.11	4512.55
459.29	4531.28
459.48	4592.13
459.66	4526.60
459.84	4751.29
460.03	4798.10
460.21	4723.20
460.39	4706.82
460.57	4587.45
460.76	4547.66
460.94	4861.29
461.12	4671.71
461.31	4894.06
461.49	4622.56
461.67	4762.99
461.85	4833.21
462.04	4755.97
462.22	5060.24
462.40	4933.85
462.59	4905.76
462.77	4901.08
462.95	4896.40
463.13	4858.95
463.32	4861.29
463.50	4905.76
463.68	5011.09
463.86	4973.64
464.05	4933.85
464.23	4898.74
464.41	4870.65
464.59	4985.34
464.78	5114.07
464.96	5057.90
465.14	4880.02
465.32	5039.17
465.50	5046.20
465.69	5088.32
465.87	5102.37
466.05	5181.95
466.23	5062.58
466.41	5198.33
466.60	5226.42
466.78	5324.72
466.96	5139.82
467.14	5142.16
467.32	5212.37
467.51	5334.08
467.69	5043.85
467.87	5195.99
468.05	5313.02
468.23	5404.30
468.41	5235.78
468.60	5315.36
468.78	5380.89
468.96	5121.09
469.14	5397.28
469.32	5444.09
469.50	5289.61
469.69	5460.47
469.87	5504.94
470.05	5523.66
470.23	5518.98
470.41	5378.55
470.59	5603.24
470.77	5490.90
470.95	5708.57
471.14	5760.06
471.32	5549.41
471.50	5680.48
471.68	5774.10
471.86	5785.80
472.04	5792.83
472.22	5799.85
472.40	5813.89
472.58	5886.45
472.77	5961.34
472.95	6003.47
473.13	6307.74
473.31	6071.35
473.49	6083.05
473.67	5980.07
473.85	6069.01
474.03	6169.65
474.21	6085.39
474.39	6225.82
474.57	6265.61
474.75	6436.47
474.93	6420.09
475.12	6296.04
475.30	6384.98
475.48	6307.74
475.66	6429.45
475.84	6317.11
476.02	6249.23
476.20	6534.78
476.38	6574.56
476.56	6647.12
476.74	6850.75
476.92	6693.93
477.10	6647.12
477.28	6951.39
477.46	6794.58
477.64	6773.51
477.82	6946.71
478.00	7049.69
478.18	7239.28
478.36	7045.01
478.54	7293.11
478.72	7267.36
478.90	7220.55
479.08	7297.79
479.26	7461.63
479.44	7534.18
479.62	7494.40
479.80	7669.94
479.98	7534.18
480.16	7709.72
480.34	7791.64
480.52	7920.37
480.70	7915.69
480.88	7728.45
481.06	7889.95
481.24	7962.50
481.41	7962.50
481.59	8065.49
481.77	8124.00
481.95	8215.28
482.13	8393.16
482.31	8334.65
482.49	8376.78
482.67	8587.43
482.85	8599.13
483.03	8683.39
483.21	8765.31
483.39	8727.86
483.57	8954.89
483.74	8837.86
483.92	8961.91
484.10	8908.08
484.28	9071.92
484.46	9193.62
484.64	9547.05
484.82	9336.40
485.00	9198.31
485.18	9399.59
485.35	9617.26
485.53	9540.02
485.71	9891.10
485.89	9923.87
486.07	9863.02
486.25	9914.51
486.43	10134.52
486.61	10071.33
486.78	10045.58
486.96	10277.29
487.14	10300.70
487.32	10286.65
487.50	10310.06
487.68	10408.36
487.85	10607.31
488.03	10399.00
488.21	10965.41
488.39	10946.69
488.57	10794.55
488.75	11026.26
488.92	11066.05
489.10	11227.55
489.28	11330.53
489.46	11424.15
489.64	11651.19
489.81	11658.21
489.99	11466.28
490.17	11740.13
490.35	11843.11
490.53	11791.62
490.70	12063.12
490.88	11800.98
491.06	12269.09
491.24	12114.61
491.41	12315.90
491.59	12287.81
491.77	12245.68
491.95	12372.07
492.13	12498.46
492.30	12477.40
492.48	12720.81
492.66	12896.35
492.84	12645.91
493.01	12903.37
493.19	12800.39
493.37	13174.88
493.54	13104.66
493.72	13214.66
493.90	13240.41
494.08	13415.95
494.25	13411.27
494.43	13532.98
494.61	13659.37
494.79	13556.38
494.96	13504.89
495.14	13633.62
495.32	13799.80
495.49	13811.50
495.67	13961.30
495.85	13987.04
496.02	14331.10
496.20	14361.53
496.38	14267.91
496.55	14317.06
496.73	14436.42
496.91	14494.94
497.09	14586.22
497.26	14878.79
497.44	14672.82
497.62	14628.35
497.79	15033.26
497.97	14579.20
498.14	15337.53
498.32	15234.55
498.50	15679.25
498.67	15529.45
498.85	15400.72
499.03	15314.13
499.20	15253.27
499.38	15442.85
499.56	15702.65
499.73	15819.68
499.91	15829.04
500.08	15894.58
500.26	15941.39
500.44	15861.81
500.61	15847.77
500.79	15709.68
500.97	16215.23
501.14	16283.11
501.32	16446.94
501.49	16276.09
501.67	16187.14
501.84	16575.67
502.02	16219.91
502.20	16547.59
502.37	16580.36
502.55	16542.91
502.72	16641.21
502.90	16634.19
503.07	16636.53
503.25	16702.06
503.43	16826.11
503.60	16762.92
503.78	16690.36
503.95	17013.35
504.13	17106.98
504.30	17221.66
504.48	17142.08
504.65	17343.37
504.83	17551.68
505.01	17427.63
505.18	17364.43
505.36	17727.22
505.53	17453.37
505.71	17577.42
505.88	17652.32
506.06	17565.72
506.23	17610.19
506.41	17916.80
506.58	17547.00
506.76	17687.43
506.93	18157.88
507.11	17858.29
507.28	18230.43
507.46	18286.61
507.63	18221.07
507.81	18113.41
507.98	18017.44
508.16	18590.88
508.33	18567.47
508.50	18279.58
508.68	18490.23
508.85	18862.38
509.03	18370.86
509.20	18698.54
509.38	18979.40
509.55	18904.51
509.73	18466.83
509.90	18843.65
510.08	19140.90
510.25	18799.18
510.42	19028.56
510.60	19243.88
510.77	19274.31
510.95	19346.87
511.12	18845.99
511.30	19075.37
511.47	19433.47
511.64	19267.29
511.82	19728.38
511.99	19323.46
512.17	19700.29
512.34	19653.48
512.51	19604.33
512.69	19946.05
512.86	19618.37
513.04	20116.90
513.21	20042.01
513.38	19946.05
513.56	20381.38
513.73	19777.53
513.90	19814.98
514.08	20046.69
514.25	20259.68
514.43	19943.70
514.60	20341.60
514.77	20329.89
514.95	20510.11
515.12	20353.30
515.29	20388.41
515.47	20503.09
515.64	20599.05
515.81	20510.11
515.99	20947.79
516.16	21130.36
516.33	20924.39
516.51	20982.90
516.68	20996.95
516.85	20865.88
517.03	20926.73
517.20	21268.45
517.37	20989.92
517.54	21310.58
517.72	20889.28
517.89	21069.50
518.06	21273.13
518.24	21202.91
518.41	21317.60
518.58	21399.52
518.75	21565.70
518.93	21483.78
519.10	21523.57
519.27	21703.79
519.45	21528.25
519.62	21439.31
519.79	21664.00
519.96	21603.14
520.14	21909.75
520.31	21589.10
520.48	21909.75
520.65	22134.45
520.83	21909.75
521.00	22024.44
521.17	22366.16
521.34	22015.08
521.52	22111.04
521.69	22178.92
521.86	22504.25
522.03	22696.17
522.20	22506.59
522.38	22686.81
522.55	22321.69
522.72	22394.25
522.89	22494.89
523.07	22728.94
523.24	22766.39
523.41	22981.72
523.58	22817.88
523.75	22948.95
523.92	22499.57
524.10	22822.56
524.27	22773.41
524.44	23028.53
524.61	23119.81
524.78	23047.26
524.96	23028.53
525.13	23138.54
525.30	22909.16
525.47	23295.35
525.64	23194.71
525.81	22955.97
525.98	23571.54
526.16	23508.34
526.33	23260.24
526.50	23648.77
526.67	23426.42
526.84	23318.76
527.01	23550.47
527.18	23847.72
527.36	23896.87
527.53	23800.91
527.70	23934.32
527.87	24568.60
528.04	23927.30
528.21	23702.61
528.38	23786.86
528.55	24023.26
528.72	24151.99
528.89	23950.70
529.07	24088.79
529.24	23924.96
529.41	24301.78
529.58	24526.47
529.75	24170.71
529.92	23910.91
530.09	24116.88
530.26	24414.13
530.43	24662.22
530.60	24135.60
530.77	24631.80
530.94	24135.60
531.11	24687.97
531.28	24421.15
531.46	24336.89
531.63	24528.81
531.80	24802.66
531.97	24854.15
532.14	24793.29
532.31	24732.44
532.48	24496.05
532.65	24870.53
532.82	24592.01
532.99	24971.18
533.16	25123.31
533.33	25095.22
533.50	25254.38
533.67	25362.04
533.84	24840.11
534.01	24940.75
534.18	25048.41
534.35	25340.98
534.52	24837.76
534.69	25111.61
534.86	25151.40
535.03	25331.62
535.20	25266.08
535.37	25694.40
535.54	25668.66
535.71	25158.42
535.88	25556.31
536.05	25586.74
536.22	25963.56
536.38	25736.53
536.55	25818.45
536.72	26183.57
536.89	25717.81
537.06	25626.53
537.23	25982.29
537.40	25596.10
537.57	25652.27
537.74	25893.35
537.91	26415.29
538.08	25923.77
538.25	25642.91
538.42	25830.15
538.59	25834.83
538.75	25827.81
538.92	25799.73
539.09	26251.45
539.26	26141.44
539.43	26012.71
539.60	26150.81
539.77	26298.26
539.94	26309.96
540.11	26122.72
540.28	26497.20
540.44	26288.90
540.61	26469.12
540.78	26188.25
540.95	26366.13
541.12	26569.76
541.29	26487.84
541.46	26604.87
541.62	26361.45
541.79	26724.24
541.96	26199.96
542.13	26808.50
542.30	26644.66
542.47	26965.31
542.63	26948.93
542.80	27012.12
542.97	27578.53
543.14	26845.94
543.31	26647.00
543.48	26958.29
543.64	27288.31
543.81	27412.35
543.98	27201.71
544.15	27246.18
544.32	27754.07
544.48	27452.14
544.65	27391.29
544.82	27168.94
544.99	27316.39
545.16	27084.68
545.32	27307.03
545.49	27817.27
545.66	27704.92
545.83	27807.90
546.00	27501.29
546.16	27257.88
546.33	27075.32
546.50	27386.61
546.67	27709.60
546.83	27353.84
547.00	27601.94
547.17	27468.53
547.34	27646.41
547.50	28060.68
547.67	28327.50
547.84	27814.93
548.00	28126.22
548.17	27962.38
548.34	27946.00
548.51	27864.08
548.67	28182.39
548.84	28130.90
549.01	27955.36
549.18	27955.36
549.34	27847.69
549.51	27967.06
549.68	28336.87
549.84	28088.77
550.01	27871.10
550.18	28315.80
550.34	28283.03
550.51	28458.57
550.68	28362.61
550.84	28100.47
551.01	28254.95
551.18	28048.98
551.34	27805.56
551.51	28531.13
551.68	28603.69
551.84	28730.08
552.01	28491.34
552.18	28947.75
552.34	28374.31
552.51	28568.58
552.68	28692.63
552.84	28648.16
553.01	28865.83
553.18	28629.43
553.34	28648.16
553.51	28357.93
553.67	28821.36
553.84	29069.45
554.01	29497.77
554.17	28900.94
554.34	29055.41
554.51	29041.37
554.67	28875.19
554.84	29078.82
555.00	29008.60
555.17	28718.37
555.33	29125.63
555.50	29125.63
555.67	29069.45
555.83	29312.87
556.00	28943.06
556.16	29523.52
556.33	29235.63
556.50	29034.35
556.66	29289.46
556.83	29383.09
556.99	29532.88
557.16	29333.93
557.32	29549.26
557.49	29282.44
557.65	29668.63
557.82	29404.15
557.98	29455.64
558.15	29090.52
558.32	29535.22
558.48	29469.69
558.65	29448.62
558.81	29401.81
558.98	29579.69
559.14	29532.88
559.31	29504.79
559.47	29390.11
559.64	29532.88
559.80	29371.38
559.97	29598.41
560.13	29965.88
560.30	29617.14
560.46	29926.09
560.63	29745.87
560.79	29813.74
560.96	29701.40
561.12	29362.02
561.29	29516.50
561.45	29869.92
561.61	30000.99
561.78	29937.79
561.94	29846.51
562.11	29844.17
562.27	29825.45
562.44	30040.78
562.60	29776.30
562.77	30235.04
562.93	29811.40
563.10	29706.08
563.26	29509.47
563.42	29923.75
563.59	29965.88
563.75	29769.27
563.92	29923.75
564.08	29984.60
564.24	29869.92
564.41	30335.68
564.57	29914.39
564.74	29783.32
564.90	30050.14
565.07	30153.12
565.23	30108.65
565.39	30377.81
565.56	30260.79
565.72	30223.34
565.88	30281.85
566.05	29823.11
566.21	29949.50
566.38	29879.28
566.54	30015.03
566.70	30398.88
566.87	30586.12
567.03	30195.25
567.19	30625.91
567.36	30167.16
567.52	30433.99
567.68	30288.87
567.85	30309.94
568.01	30515.90
568.17	30293.55
568.34	30448.03
568.50	30405.90
568.66	30230.36
568.83	30602.50
568.99	30323.98
569.15	30338.02
569.32	30380.15
569.48	30078.22
569.64	30986.35
569.81	30279.51
569.97	30448.03
570.13	30536.97
570.30	30139.08
570.46	30621.23
570.62	30328.66
570.78	29862.90
570.95	30202.27
571.11	30412.92
571.27	30316.96
571.43	30295.89
571.60	30611.87
571.76	30312.28
571.92	30593.14
572.09	30450.37
572.25	30609.53
572.41	30595.48
572.57	30319.30
572.74	30480.80
572.90	30508.88
573.06	30305.26
573.22	30384.83
573.38	30494.84
573.55	30644.63
573.71	30890.39
573.87	30494.84
574.03	30747.62
574.20	30618.89
574.36	30546.33
574.52	30625.91
574.68	30897.41
574.84	30197.59
575.01	30766.34
575.17	30932.52
575.33	30738.26
575.49	30529.95
575.65	30845.92
575.82	31023.80
575.98	30195.25
576.14	30560.37
576.30	30864.64
576.46	30899.75
576.62	30866.98
576.79	30621.23
576.95	30675.06
577.11	30857.62
577.27	30654.00
577.43	31091.68
577.59	30782.73
577.75	30609.53
577.92	30300.58
578.08	30565.06
578.24	30558.03
578.40	31007.42
578.56	30756.98
578.72	30941.88
578.88	30728.89
579.04	31201.68
579.21	30906.77
579.37	30794.43
579.53	30855.28
579.69	30665.70
579.85	30817.83
580.01	30869.33
580.17	30616.55
580.33	31152.53
580.49	30487.82
580.65	31056.57
580.82	30864.64
580.98	30731.23
581.14	30857.62
581.30	30876.35
581.46	30986.35
581.62	30555.69
581.78	30703.15
581.94	31054.23
582.10	30892.73
582.26	30733.57
582.42	31058.91
582.58	31255.51
582.74	31051.89
582.90	31065.93
583.06	31175.94
583.22	30644.63
583.38	30787.41
583.54	30871.67
583.70	30918.48
583.86	31033.16
584.02	30944.22
584.18	31384.24
584.34	31360.84
584.50	30984.01
584.66	31292.96
584.82	30859.96
584.98	31021.46
585.14	30859.96
585.30	30646.97
585.46	30583.78
585.62	30572.08
585.78	31255.51
585.94	30616.55
586.10	30932.52
586.26	31061.25
586.42	31412.33
586.58	31339.77
586.74	31445.10
586.90	30700.81
587.06	31051.89
587.22	30801.45
587.38	31087.00
587.54	31220.41
587.70	31283.60
587.86	31363.18
588.02	31131.47
588.18	31105.72
588.34	31136.15
588.49	31707.24
588.65	31234.45
588.81	31145.51
588.97	31199.34
589.13	30541.65
589.29	30724.21
589.45	31309.35
589.61	31414.67
589.77	31426.37
589.93	31218.07
590.08	31068.27
590.24	31620.64
590.40	31206.36
590.56	31182.96
590.72	31349.14
590.88	30841.24
591.04	31168.91
591.20	31124.44
591.35	32027.89
591.51	31793.84
591.67	31239.13
591.83	31882.78
591.99	31646.38
592.15	31679.15
592.31	31164.23
592.46	31197.00
592.62	31028.48
592.78	31384.24
592.94	30974.65
593.10	31447.44
593.26	31564.46
593.41	31505.95
593.57	31358.50
593.73	31030.82
593.89	31428.71
594.05	31543.40
594.20	31147.85
594.36	31552.76
594.52	31489.57
594.68	31248.49
594.84	31079.97
594.99	31555.10
595.15	31253.17
595.31	31765.75
595.47	31269.56
595.62	31910.86
595.78	31517.65
595.94	31555.10
596.10	31702.56
596.25	31407.65
596.41	31091.68
596.57	31044.87
596.73	31541.06
596.88	31470.84
597.04	32198.75
597.20	31770.43
597.36	31779.79
597.51	31943.63
597.67	31089.34
597.83	31412.33
597.99	31433.39
598.14	31360.84
598.30	31646.38
598.46	31557.44
598.61	31543.40
598.77	31840.65
598.93	31536.38
599.09	31859.37
599.24	31903.84
599.40	32018.53
599.56	31328.07
599.71	31370.20
599.87	31590.21
600.03	31358.50
600.18	31608.93
600.34	31536.38
600.50	31250.83
600.65	31569.15
600.81	31922.57
600.97	31943.63
601.12	31915.54
601.28	31971.72
601.44	31957.67
601.59	31290.62
601.75	31531.70
601.91	31749.37
602.06	31634.68
602.22	31681.49
602.37	31669.79
602.53	31620.64
602.69	32039.59
602.84	31833.63
603.00	31969.38
603.16	31756.39
603.31	32093.43
603.47	31838.31
603.62	31452.12
603.78	31505.95
603.94	31798.52
604.09	31398.29
604.25	31740.00
604.40	31585.53
604.56	31477.86
604.71	31625.32
604.87	31592.55
605.03	31831.29
605.18	32140.24
605.34	31393.61
605.49	31714.26
605.65	31868.73
605.80	31374.88
605.96	31274.24
606.12	31463.82
606.27	31819.58
606.43	31428.71
606.58	31639.36
606.74	31227.43
606.89	31566.81
607.05	31711.92
607.20	31894.48
607.36	31409.99
607.51	31690.85
607.67	31239.13
607.82	31321.05
607.98	31255.51
608.13	31594.89
608.29	31482.55
608.44	31353.82
608.60	31463.82
608.75	31508.29
608.91	31655.75
609.06	31456.80
609.22	31311.69
609.37	31236.79
609.53	31292.96
609.68	31456.80
609.84	31000.40
609.99	31234.45
610.15	30927.84
610.30	31531.70
610.46	31660.43
610.61	31253.17
610.76	31501.27
610.92	31608.93
611.07	31227.43
611.23	31330.41
611.38	31243.81
611.54	31054.23
611.69	30771.02
611.84	31194.66
612.00	30885.71
612.15	30944.22
612.31	31367.86
612.46	31321.05
612.62	31199.34
612.77	31339.77
612.92	31417.01
613.08	31218.07
613.23	31037.84
613.39	30909.11
613.54	30529.95
613.69	31168.91
613.85	30794.43
614.00	30883.37
614.15	31353.82
614.31	30941.88
614.46	31012.10
614.62	30773.36
614.77	31189.98
614.92	31094.02
615.08	30944.22
615.23	31084.65
615.38	30780.39
615.54	30754.64
615.69	30895.07
615.84	30820.17
616.00	30635.27
616.15	30955.93
616.30	31140.83
616.46	30803.79
616.61	31012.10
616.76	30824.86
616.92	30969.97
617.07	30316.96
617.22	30370.79
617.37	30646.97
617.53	30857.62
617.68	30864.64
617.83	30625.91
617.99	30595.48
618.14	30302.92
618.29	30955.93
618.45	30869.33
618.60	30572.08
618.75	30548.67
618.90	30450.37
619.06	30967.63
619.21	30707.83
619.36	30672.72
619.51	30574.42
619.67	30457.39
619.82	30380.15
619.97	30572.08
620.12	30515.90
620.28	30522.93
620.43	30590.80
620.58	30532.29
620.73	30831.88
620.89	30433.99
621.04	30892.73
621.19	30665.70
621.34	30394.20
621.49	30155.46
621.65	30258.45
621.80	30405.90
621.95	30513.56
622.10	30178.87
622.25	30122.69
622.41	30132.06
622.56	30068.86
622.71	30106.31
622.86	30087.59
623.01	30270.15
623.16	30221.00
623.32	29820.77
623.47	30345.05
623.62	29888.64
623.77	30155.46
623.92	29869.92
624.07	29846.51
624.23	29750.55
624.38	30136.74
624.53	30019.71
624.68	30183.55
624.83	30263.13
624.98	30103.97
625.13	30029.07
625.29	29720.12
625.44	30064.18
625.59	29926.09
625.74	29937.79
625.89	30225.68
626.04	29780.98
626.19	29813.74
626.34	29813.74
626.49	29757.57
626.65	29675.65
626.80	29853.53
626.95	29844.17
627.10	29689.70
627.25	29832.47
627.40	29656.93
627.55	29420.53
627.70	29488.41
627.85	29834.81
628.00	29755.23
628.15	29165.42
628.30	29401.81
628.45	29460.32
628.60	29436.92
628.76	29670.97
628.91	29280.10
629.06	29493.09
629.21	29633.52
629.36	29317.55
629.51	29308.19
629.66	29502.45
629.81	29118.60
629.96	29057.75
630.11	29022.64
630.26	29256.70
630.41	29298.83
630.56	29207.55
630.71	29186.48
630.86	29237.97
631.01	29537.56
631.16	29266.06
631.31	29610.12
631.46	29024.98
631.61	29273.08
631.76	29425.22
631.91	29298.83
632.06	28905.62
632.21	29085.84
632.36	29420.53
632.51	28882.21
632.66	28978.17
632.81	28858.81
632.96	29333.93
633.10	28793.27
633.25	29263.72
633.40	29252.02
633.55	28943.06
633.70	28823.70
633.85	28678.58
634.00	28552.20
634.15	28819.02
634.30	28854.12
634.45	28826.04
634.60	28758.16
634.75	28594.32
634.90	28613.05
635.05	28842.42
635.19	28589.64
635.34	29275.42
635.49	29055.41
635.64	28638.80
635.79	28709.01
635.94	28627.09
636.09	28774.55
636.24	28320.48
636.39	28863.49
636.53	28603.69
636.68	28446.87
636.83	28737.10
636.98	28627.09
637.13	28477.30
637.28	29104.56
637.43	28690.29
637.57	28952.43
637.72	28662.20
637.87	28591.98
638.02	28271.33
638.17	28472.62
638.32	28308.78
638.46	28109.83
638.61	28107.49
638.76	28409.42
638.91	28095.79
639.06	28168.35
639.20	28423.47
639.35	28439.85
639.50	28203.46
639.65	28257.29
639.80	28627.09
639.94	28173.03
640.09	28470.28
640.24	28231.54
640.39	28348.57
640.54	28402.40
640.68	28238.56
640.83	27882.80
640.98	27681.52
641.13	27623.00
641.27	28063.02
641.42	28091.11
641.57	27840.67
641.72	28156.64
641.86	28004.51
642.01	27660.45
642.16	27892.16
642.31	27562.15
642.45	27873.44
642.60	27728.33
642.75	27363.20
642.90	27665.13
643.04	27412.35
643.19	27587.89
643.34	27674.49
643.48	27927.27
643.63	27496.61
643.78	27763.43
643.93	27775.14
644.07	27704.92
644.22	27637.05
644.37	27866.42
644.51	27515.34
644.66	27372.57
644.81	27431.08
644.95	27573.85
645.10	27473.21
645.25	27044.89
645.39	27468.53
645.54	27257.88
645.69	27454.48
645.83	27482.57
645.98	27548.11
646.13	27599.60
646.27	27798.54
646.42	27840.67
646.57	27737.69
646.71	27328.10
646.86	27269.58
647.00	27419.38
647.15	27557.47
647.30	27316.39
647.44	26948.93
647.59	27384.27
647.74	27150.21
647.88	27267.24
648.03	27269.58
648.17	27386.61
648.32	27562.15
648.47	27356.18
648.61	27063.61
648.76	27517.68
648.90	27236.81
649.05	27051.91
649.20	27335.12
649.34	26904.46
649.49	26930.20
649.63	27374.91
649.78	26714.87
649.92	26965.31
650.07	26719.56
650.21	26838.92
650.36	27049.57
650.51	26864.67
650.65	26918.50
650.80	26684.45
650.94	26857.65
651.09	27026.17
651.23	26864.67
651.38	26803.82
651.52	26691.47
651.67	26977.01
651.81	26757.00
651.96	26827.22
652.10	26778.07
652.25	26911.48
652.39	27063.61
652.54	26838.92
652.68	27201.71
652.83	26686.79
652.97	26852.97
653.12	26642.32
653.26	26342.73
653.41	26827.22
653.55	26298.26
653.70	26181.23
653.84	26771.05
653.99	26415.29
654.13	26260.81
654.27	26614.23
654.42	26717.22
654.56	26604.87
654.71	26661.04
654.85	26335.71
655.00	26698.49
655.14	26534.65
655.29	26398.90
655.43	26654.02
655.57	26057.18
655.72	26340.39
655.86	26251.45
656.01	26370.82
656.15	26096.97
656.30	26380.18
656.44	26335.71
656.58	26225.70
656.73	26223.36
656.87	26422.31
657.01	26574.44
657.16	26448.05
657.30	26335.71
657.45	26260.81
657.59	26462.10
657.73	26111.02
657.88	25851.22
658.02	26078.25
658.16	26331.03
658.31	25912.07
658.45	26305.28
658.60	25879.30
658.74	25806.75
658.88	25933.14
659.03	25975.27
659.17	25825.47
659.31	26045.48
659.46	25509.50
659.60	25804.41
659.74	25883.98
659.89	25645.25
660.03	25525.88
660.17	25762.28
660.32	25277.79
660.46	25617.16
660.60	25446.30
660.74	25495.46
660.89	25514.18
661.03	25345.66
661.17	25230.98
661.32	25195.87
661.46	25668.66
661.60	25509.50
661.74	25610.14
661.89	25336.30
662.03	25432.26
662.17	25252.04
662.31	25017.99
662.46	25453.33
662.60	25268.42
662.74	25050.75
662.88	25046.07
663.03	25118.63
663.17	25013.31
663.31	24891.60
663.45	24664.57
663.60	25090.54
663.74	24833.08
663.88	24690.31
664.02	24812.02
664.17	25099.90
664.31	24936.07
664.45	24559.24
664.59	24898.62
664.73	24898.62
664.88	24739.46
665.02	24421.15
665.16	24364.98
665.30	24393.06
665.44	24561.58
665.59	24166.03
665.73	24474.98
665.87	24084.11
666.01	24397.74
666.15	24201.14
666.29	24383.70
666.44	24554.56
666.58	24126.24
666.72	23868.78
666.86	24245.61
667.00	24098.16
667.14	24280.72
667.28	24517.11
667.43	24137.94
667.57	23901.55
667.71	23976.45
667.85	23974.11
667.99	23931.98
668.13	23875.80
668.27	23599.62
668.41	23676.86
668.56	23496.64
668.70	23843.04
668.84	23630.05
668.98	23531.75
669.12	23784.52
669.26	23948.36
669.40	23543.45
669.54	23709.63
669.68	23262.58
669.82	23494.30
669.96	23190.03
670.10	23346.84
670.25	23309.40
670.39	23276.63
670.53	23068.32
670.67	22897.46
670.81	23213.43
670.95	23290.67
671.09	22909.16
671.23	23173.64
671.37	23056.62
671.51	23260.24
671.65	23293.01
671.79	22782.77
671.93	23065.98
672.07	22747.67
672.21	22595.53
672.35	22609.58
672.49	22417.65
672.63	22663.41
672.77	22745.33
672.91	22719.58
673.05	22391.91
673.19	22506.59
673.33	22448.08
673.47	22284.24
673.61	22597.87
673.75	22501.91
673.89	22375.52
674.03	22281.90
674.17	22300.62
674.31	21979.97
674.45	22359.14
674.59	22050.19
674.73	22190.62
674.87	21855.92
675.01	21729.53
675.15	21748.26
675.29	21752.94
675.43	21986.99
675.56	22038.48
675.70	22052.53
675.84	21570.38
675.98	21193.55
676.12	21699.11
676.26	21479.10
676.40	22106.36
676.54	21359.73
676.68	21553.99
676.82	20994.61
676.96	21486.12
677.10	21263.77
677.23	20945.45
677.37	20788.64
677.51	20772.25
677.65	20751.19
677.79	20503.09
677.93	20723.10
678.07	20704.38
678.21	20716.08
678.34	20585.01
678.48	20493.73
678.62	20751.19
678.76	20489.05
678.90	20470.33
679.04	20334.57
679.18	20631.82
679.31	20016.26
679.45	20027.96
679.59	19915.62
679.73	19894.55
679.87	19836.04
680.00	19955.41
680.14	19733.06
680.28	20051.37
680.42	20100.52
680.56	20215.21
680.70	19688.59
680.83	19943.70
680.97	19587.94
681.11	19751.78
681.25	19601.99
681.39	19733.06
681.52	19356.23
681.66	19262.61
681.80	19180.69
681.94	19115.16
682.07	19206.44
682.21	19033.24
682.35	18871.74
682.49	18820.25
682.62	18635.35
682.76	18600.24
682.90	18572.15
683.04	18874.08
683.17	18970.04
683.31	18740.67
683.45	18698.54
683.59	18490.23
683.72	18513.64
683.86	18448.10
684.00	18405.97
684.13	18003.40
684.27	18593.22
684.41	18113.41
684.55	17930.84
684.68	18097.02
684.82	17905.10
684.96	17806.80
685.09	17551.68
685.23	17823.18
685.37	17537.63
685.50	17818.50
685.64	17860.63
685.78	17547.00
685.91	17731.90
686.05	17572.74
686.19	17542.32
686.32	17497.84
686.46	17273.15
686.60	17121.02
686.73	17315.28
686.87	17109.32
687.01	17158.47
687.14	16975.91
687.28	16922.07
687.42	16889.31
687.55	16844.84
687.69	16978.25
687.82	16830.79
687.96	16851.86
688.10	16678.66
688.23	16940.80
688.37	16779.30
688.50	16570.99
688.64	16489.07
688.78	16360.34
688.91	16149.70
689.05	16444.60
689.18	16102.89
689.32	15819.68
689.46	15995.22
689.59	15999.90
689.73	15901.60
689.86	16049.05
690.00	15978.84
690.13	15875.85
690.27	15971.82
690.41	15868.83
690.54	15770.53
690.68	15791.59
690.81	15899.26
690.95	15625.42
691.08	15578.61
691.22	15510.73
691.35	15157.31
691.49	15417.11
691.62	15250.93
691.76	15562.22
691.89	15030.92
692.03	15056.67
692.16	14789.85
692.30	14796.87
692.43	14963.04
692.57	14705.59
692.70	14799.21
692.84	14630.69
692.97	14822.61
693.11	14740.69
693.24	14640.05
693.38	14651.75
693.51	14572.18
693.65	14478.55
693.78	14415.36
693.92	14401.32
694.05	14169.60
694.19	14398.98
694.32	14352.16
694.45	13870.01
694.59	14113.43
694.72	14228.12
694.86	14045.55
694.99	13586.81
695.13	13853.63
695.26	13673.41
695.39	13708.52
695.53	13727.24
695.66	13839.59
695.80	13453.40
695.93	13813.84
696.07	13467.44
696.20	13680.43
696.33	13551.70
696.47	13516.59
696.60	13453.40
696.73	13170.19
696.87	13179.56
697.00	13083.59
697.14	12931.46
697.27	12985.29
697.40	13055.51
697.54	12879.97
697.67	12807.41
697.80	12608.47
697.94	12723.15
698.07	12498.46
698.21	12573.36
698.34	12451.65
698.47	12844.86
698.61	12430.59
698.74	12554.63
698.87	12559.31
699.01	12636.55
699.14	12297.17
699.27	12512.50
699.40	12212.92
699.54	11992.90
699.67	11932.05
699.80	12013.97
699.94	12004.61
700.07	11974.18
700.20	11726.08
700.34	11943.75
700.47	11805.66
700.60	11569.27
700.73	11705.02
700.87	11875.88
701.00	11545.86
701.13	11623.10
701.26	11620.76
701.40	11414.79
701.53	11749.49
701.66	11400.75
701.79	11595.01
701.93	11314.15
702.06	11147.97
702.19	11157.33
702.32	11096.48
702.46	11243.93
702.59	10974.77
702.72	11000.52
702.85	10799.23
702.99	10995.84
703.12	10768.80
703.25	10684.55
703.38	10743.06
703.51	10565.18
703.65	10700.93
703.78	10504.32
703.91	10581.56
704.04	10752.42
704.17	10686.89
704.31	10574.54
704.44	10438.79
704.57	10169.63
704.70	10050.26
704.83	10345.17
704.96	10200.05
705.10	9898.13
705.23	10143.88
>>>>>End Processed Spectral Data<<<<<
