SpectraSuite Data File
++++++++++++++++++++++++++++++++++++
Date: Fri Oct 18 13:58:07 GMT-05:00 2013
User: bianchi
Dark Spectrum Present: No
Reference Spectrum Present: No
Number of Sampled Component Spectra: 1
Spectrometers: USB2+H05261
Integration Time (usec): 50000 (USB2+H05261)
Spectra Averaged: 1 (USB2+H05261)
Boxcar Smoothing: 0 (USB2+H05261)
Correct for Electrical Dark: No (USB2+H05261)
Strobe/Lamp Enabled: No (USB2+H05261)
Correct for Detector Non-linearity: No (USB2+H05261)
Correct for Stray Light: No (USB2+H05261)
Number of Pixels in Processed Spectrum: 2048
>>>>>Begin Processed Spectral Data<<<<<
365.73	0.00
365.92	0.00
366.12	0.00
366.32	0.00
366.52	0.00
366.72	0.00
366.91	0.00
367.11	0.00
367.31	0.00
367.51	0.00
367.70	0.00
367.90	0.00
368.10	0.00
368.30	0.00
368.49	0.00
368.69	0.00
368.89	0.00
369.09	0.00
369.28	0.00
369.48	0.00
369.68	0.00
369.87	0.00
370.07	0.00
370.27	0.00
370.47	4.68
370.66	81.92
370.86	110.01
371.06	138.09
371.25	107.66
371.45	145.11
371.65	142.77
371.84	145.11
372.04	220.01
372.24	173.20
372.44	231.71
372.63	175.54
372.83	306.61
373.03	208.31
373.22	236.39
373.42	191.92
373.62	194.26
373.81	299.59
374.01	184.90
374.21	220.01
374.40	177.88
374.60	259.80
374.79	259.80
374.99	273.84
375.19	245.76
375.38	234.05
375.58	194.26
375.78	299.59
375.97	236.39
376.17	243.42
376.37	287.89
376.56	308.95
376.76	294.91
376.95	212.99
377.15	252.78
377.35	243.42
377.54	283.20
377.74	290.23
377.93	231.71
378.13	351.08
378.33	322.99
378.52	299.59
378.72	285.55
378.91	271.50
379.11	259.80
379.31	191.92
379.50	280.86
379.70	306.61
379.89	278.52
380.09	294.91
380.28	353.42
380.48	301.93
380.68	327.68
380.87	318.31
381.07	315.97
381.26	283.20
381.46	325.33
381.65	369.80
381.85	306.61
382.04	379.17
382.24	322.99
382.43	234.05
382.63	362.78
382.83	362.78
383.02	491.51
383.22	290.23
383.41	313.63
383.61	351.08
383.80	423.64
384.00	353.42
384.19	306.61
384.39	388.53
384.58	379.17
384.78	320.65
384.97	421.30
385.17	379.17
385.36	468.11
385.56	353.42
385.75	344.06
385.95	482.15
386.14	369.80
386.34	463.43
386.53	369.80
386.72	414.27
386.92	386.19
387.11	444.70
387.31	461.09
387.50	425.98
387.70	365.12
387.89	465.77
388.09	454.06
388.28	416.62
388.48	454.06
388.67	468.11
388.86	479.81
389.06	505.56
389.25	409.59
389.45	451.72
389.64	521.94
389.84	376.83
390.03	482.15
390.22	465.77
390.42	416.62
390.61	519.60
390.81	430.66
391.00	428.32
391.19	463.43
391.39	414.27
391.58	550.03
391.78	538.32
391.97	510.24
392.16	557.05
392.36	643.65
392.55	585.13
392.75	528.96
392.94	524.28
393.13	554.71
393.33	507.90
393.52	601.52
393.71	608.54
393.91	564.07
394.10	613.22
394.29	547.69
394.49	479.81
394.68	610.88
394.88	540.66
395.07	638.97
395.26	587.47
395.46	678.76
395.65	657.69
395.84	643.65
396.04	697.48
396.23	587.47
396.42	596.84
396.62	627.26
396.81	657.69
397.00	655.35
397.19	702.16
397.39	571.09
397.58	695.14
397.77	727.91
397.97	725.57
398.16	674.07
398.35	734.93
398.55	709.18
398.74	662.37
398.93	793.44
399.12	727.91
399.32	784.08
399.51	648.33
399.70	709.18
399.90	767.70
400.09	737.27
400.28	765.36
400.47	706.84
400.67	795.78
400.86	744.29
401.05	833.23
401.24	802.80
401.44	795.78
401.63	854.30
401.82	912.81
402.01	849.61
402.21	889.40
402.40	814.51
402.59	866.00
402.78	819.19
402.97	840.25
403.17	873.02
403.36	877.70
403.55	870.68
403.74	910.47
403.93	933.87
404.13	961.96
404.32	814.51
404.51	926.85
404.70	990.05
404.89	847.27
405.09	990.05
405.28	884.72
405.47	922.17
405.66	980.68
405.85	959.62
406.05	1090.69
406.24	1032.18
406.43	1107.07
406.62	1011.11
406.81	1109.41
407.00	1039.20
407.20	947.92
407.39	1076.65
407.58	1018.13
407.77	1036.86
407.96	1181.97
408.15	950.26
408.34	1139.84
408.54	1146.86
408.73	1153.88
408.92	1165.59
409.11	1200.69
409.30	1160.91
409.49	1081.33
409.68	1181.97
409.87	1086.01
410.07	1198.35
410.26	1149.20
410.45	1282.61
410.64	1226.44
410.83	1240.48
411.02	1254.53
411.21	1348.15
411.40	1181.97
411.59	1352.83
411.78	1329.42
411.98	1228.78
412.17	1299.00
412.36	1322.40
412.55	1303.68
412.74	1446.45
412.93	1301.34
413.12	1404.32
413.31	1418.36
413.50	1355.17
413.69	1441.77
413.88	1430.07
414.07	1458.15
414.26	1486.24
414.45	1444.11
414.64	1519.01
414.83	1551.78
415.02	1563.48
415.22	1519.01
415.41	1629.01
415.60	1598.59
415.79	1593.90
415.98	1629.01
416.17	1556.46
416.36	1593.90
416.55	1666.46
416.74	1617.31
416.93	1696.89
417.12	1696.89
417.31	1666.46
417.50	1703.91
417.69	1689.87
417.88	1732.00
418.07	1736.68
418.26	1717.95
418.45	1736.68
418.64	1764.76
418.83	1809.23
419.02	1834.98
419.21	1825.62
419.39	1849.02
419.58	1837.32
419.77	1781.15
419.96	1954.35
420.15	1907.54
420.34	1853.70
420.53	1935.62
420.72	1930.94
420.91	1947.33
421.10	1937.96
421.29	2031.58
421.48	1856.04
421.67	1961.37
421.86	1937.96
422.05	2010.52
422.24	1930.94
422.43	1895.83
422.61	2066.69
422.80	1973.07
422.99	1968.39
423.18	2022.22
423.37	2143.93
423.56	2017.54
423.75	1968.39
423.94	1905.20
424.13	1839.66
424.32	1926.26
424.50	2157.97
424.69	2134.57
424.88	2083.08
425.07	2050.31
425.26	2076.06
425.45	2040.95
425.64	2108.82
425.83	2113.50
426.01	2090.10
426.20	2090.10
426.39	2017.54
426.58	1998.82
426.77	2141.59
426.96	2169.68
427.15	2106.48
427.33	2059.67
427.52	2115.84
427.71	2066.69
427.90	2221.17
428.09	2242.23
428.28	2157.97
428.46	2186.06
428.65	2179.04
428.84	2146.27
429.03	2218.83
429.22	2186.06
429.40	2216.49
429.59	2333.51
429.78	2195.42
429.97	2167.34
430.16	2263.30
430.34	2317.13
430.53	2303.09
430.72	2347.56
430.91	2270.32
431.10	2253.94
431.28	2289.04
431.47	2289.04
431.66	2480.97
431.85	2445.86
432.03	2469.27
432.22	2506.71
432.41	2368.62
432.60	2455.22
432.79	2420.11
432.97	2490.33
433.16	2562.89
433.35	2537.14
433.54	2469.27
433.72	2621.40
433.91	2462.24
434.10	2684.59
434.28	2588.63
434.47	2548.84
434.66	2560.55
434.85	2642.46
435.03	2586.29
435.22	2691.62
435.41	2684.59
435.59	2626.08
435.78	2677.57
435.97	2642.46
436.16	2630.76
436.34	2712.68
436.53	2647.15
436.72	2759.49
436.90	2736.09
437.09	2815.66
437.28	2703.32
437.46	2820.35
437.65	2825.03
437.84	2679.91
438.02	2717.36
438.21	2843.75
438.40	2703.32
438.58	2932.69
438.77	3028.65
438.96	2775.88
439.14	2906.95
439.33	2995.89
439.52	2967.80
439.70	2942.05
439.89	3110.57
440.08	3089.51
440.26	3016.95
440.45	2949.08
440.63	2986.52
440.82	3162.06
441.01	3206.53
441.19	3136.32
441.38	3171.43
441.57	3295.47
441.75	3267.39
441.94	3351.65
442.12	3236.96
442.31	3314.20
442.50	3241.64
442.68	3339.94
442.87	3456.97
443.05	3414.84
443.24	3417.18
443.43	3428.88
443.61	3400.80
443.80	3487.40
443.98	3358.67
444.17	3251.00
444.35	3361.01
444.54	3527.19
444.73	3527.19
444.91	3475.70
445.10	3468.67
445.28	3562.30
445.47	3361.01
445.65	3463.99
445.84	3499.10
446.02	3571.66
446.21	3517.83
446.39	3456.97
446.58	3529.53
446.77	3447.61
446.95	3473.36
447.14	3396.12
447.32	3515.48
447.51	3480.38
447.69	3517.83
447.88	3550.59
448.06	3595.06
448.25	3606.77
448.43	3557.61
448.62	3590.38
448.80	3623.15
448.99	3592.72
449.17	3702.73
449.36	3644.21
449.54	3665.28
449.73	3665.28
449.91	3772.94
450.10	3686.34
450.28	3911.04
450.46	3796.35
450.65	3810.39
450.83	3786.99
451.02	3749.54
451.20	3826.78
451.39	3852.52
451.57	3737.84
451.76	3847.84
451.94	3885.29
452.13	3918.06
452.31	3726.13
452.49	3819.75
452.68	3782.31
452.86	3775.28
453.05	3728.47
453.23	3911.04
453.42	3838.48
453.60	3922.74
453.78	3857.20
453.97	3836.14
454.15	3929.76
454.34	3960.19
454.52	4067.85
454.70	3932.10
454.89	3950.82
455.07	4018.70
455.26	4063.17
455.44	4173.18
455.62	4140.41
455.81	4053.81
455.99	4337.01
456.17	4142.75
456.36	4030.40
456.54	4156.79
456.73	4292.54
456.91	4369.78
457.09	4411.91
457.28	4322.97
457.46	4175.52
457.64	4353.40
457.83	4365.10
458.01	4287.86
458.19	4505.53
458.38	4423.61
458.56	4393.19
458.74	4491.49
458.93	4547.66
459.11	4514.89
459.29	4528.94
459.48	4585.11
459.66	4503.19
459.84	4767.67
460.03	4580.43
460.21	4582.77
460.39	4669.37
460.57	4643.62
460.76	4503.19
460.94	4830.87
461.12	4681.07
461.31	4744.27
461.49	4762.99
461.67	4770.01
461.85	4798.10
462.04	4695.11
462.22	5034.49
462.40	4784.06
462.59	4809.80
462.77	4894.06
462.95	4915.12
463.13	4603.83
463.32	4971.30
463.50	4933.85
463.68	4795.76
463.86	4997.04
464.05	4898.74
464.23	4882.36
464.41	4837.89
464.59	4816.82
464.78	5060.24
464.96	5050.88
465.14	4973.64
465.32	5078.96
465.50	5053.22
465.69	5123.43
465.87	4840.23
466.05	5020.45
466.23	5050.88
466.41	5069.60
466.60	5158.54
466.78	4933.85
466.96	5011.09
467.14	4994.70
467.32	5071.94
467.51	5144.50
467.69	5160.88
467.87	5153.86
468.05	5261.52
468.23	5242.80
468.41	5224.08
468.60	5280.25
468.78	5359.83
468.96	5228.76
469.14	5348.12
469.32	5528.35
469.50	5289.61
469.69	5385.57
469.87	5507.28
470.05	5554.09
470.23	5462.81
470.41	5607.92
470.59	5605.58
470.77	5577.50
470.95	5540.05
471.14	5643.03
471.32	5469.83
471.50	5617.29
471.68	5617.29
471.86	5708.57
472.04	5767.08
472.22	5767.08
472.40	5610.26
472.58	5783.46
472.77	5767.08
472.95	5762.40
473.13	5851.34
473.31	5809.21
473.49	5849.00
473.67	5813.89
473.85	6040.92
474.03	6115.82
474.21	6218.80
474.39	6092.41
474.57	6127.52
474.75	6139.23
474.93	6296.04
475.12	5966.03
475.30	6291.36
475.48	6310.08
475.66	6373.28
475.84	6384.98
476.02	6487.96
476.20	6499.67
476.38	6506.69
476.56	6733.72
476.74	6604.99
476.92	6565.20
477.10	6675.21
477.28	6956.07
477.46	6696.27
477.64	6817.98
477.82	6874.15
478.00	7068.42
478.18	7035.65
478.36	6970.12
478.54	7138.63
478.72	7112.89
478.90	7229.91
479.08	7314.17
479.26	7346.94
479.44	7365.67
479.62	7346.94
479.80	7510.78
479.98	7590.36
480.16	7686.32
480.34	7599.72
480.52	7740.15
480.70	7864.20
480.88	7779.94
481.06	7887.61
481.24	7964.84
481.41	7962.50
481.59	8081.87
481.77	8044.42
481.95	8191.88
482.13	8063.15
482.31	8236.35
482.49	8379.12
482.67	8449.33
482.85	8400.18
483.03	8657.64
483.21	8540.61
483.39	8538.27
483.57	8692.75
483.74	8636.58
483.92	8842.54
484.10	8753.60
484.28	9060.21
484.46	9025.11
484.64	9437.04
484.82	9142.13
485.00	9144.47
485.18	9284.91
485.35	9654.71
485.53	9472.15
485.71	9490.87
485.89	9701.52
486.07	9675.77
486.25	9750.67
486.43	9907.49
486.61	9949.62
486.78	10108.77
486.96	9947.28
487.14	10181.33
487.32	10256.23
487.50	10143.88
487.68	10256.23
487.85	10448.15
488.03	10445.81
488.21	10794.55
488.39	10672.84
488.57	10904.56
488.75	11044.99
488.92	10949.03
489.10	11159.67
489.28	11059.03
489.46	11204.14
489.64	11173.72
489.81	11274.36
489.99	11417.13
490.17	11513.10
490.35	11756.51
490.53	11779.92
490.70	11700.34
490.88	11679.27
491.06	11864.18
491.24	11885.24
491.41	11852.47
491.59	12147.38
491.77	11878.22
491.95	12217.60
492.13	12535.91
492.30	12503.14
492.48	12575.70
492.66	12519.53
492.84	12681.02
493.01	12966.57
493.19	12664.64
493.37	12894.01
493.54	12849.54
493.72	12982.95
493.90	13118.70
494.08	12971.25
494.25	13277.86
494.43	13249.77
494.61	13509.57
494.79	13558.72
494.96	13530.64
495.14	13558.72
495.32	13504.89
495.49	13743.63
495.67	13867.67
495.85	13825.54
496.02	14099.39
496.20	14211.73
496.38	14115.77
496.55	13912.14
496.73	14384.93
496.91	14237.48
497.09	14534.73
497.26	14501.96
497.44	14300.67
497.62	14459.83
497.79	14640.05
497.97	14934.96
498.14	15166.67
498.32	15143.27
498.50	14911.55
498.67	15185.40
498.85	15227.53
499.03	15152.63
499.20	15335.19
499.38	15454.56
499.56	15662.86
499.73	15721.38
499.91	15700.31
500.08	15618.39
500.26	15405.41
500.44	15983.52
500.61	15697.97
500.79	15669.89
500.97	15969.48
501.14	16231.62
501.32	16023.31
501.49	16091.18
501.67	16042.03
501.84	16245.66
502.02	15896.92
502.20	16652.91
502.37	16376.73
502.55	16100.55
502.72	16414.18
502.90	16451.63
503.07	16290.13
503.25	16554.61
503.43	16702.06
503.60	16659.93
503.78	17018.04
503.95	16690.36
504.13	16901.01
504.30	16762.92
504.48	16882.28
504.65	17104.64
504.83	17401.88
505.01	17261.45
505.18	17275.49
505.36	17312.94
505.53	17193.58
505.71	17369.12
505.88	17427.63
506.06	17207.62
506.23	17476.78
506.41	17380.82
506.58	17556.36
506.76	17675.73
506.93	17921.48
507.11	17586.79
507.28	17734.24
507.46	17610.19
507.63	17790.41
507.81	18272.56
507.98	17912.12
508.16	17837.22
508.33	17841.90
508.50	18104.04
508.68	18185.96
508.85	18396.61
509.03	18597.90
509.20	18469.17
509.38	18572.15
509.55	18387.25
509.73	18628.32
509.90	18190.64
510.08	18705.56
510.25	18537.04
510.42	18658.75
510.60	19007.49
510.77	18745.35
510.95	18860.04
511.12	19073.03
511.30	18661.09
511.47	19058.98
511.64	19033.24
511.82	19131.54
511.99	19066.00
512.17	19452.19
512.34	19403.04
512.51	19545.81
512.69	19735.40
512.86	19550.49
513.04	19826.68
513.21	19534.11
513.38	19499.00
513.56	19473.26
513.73	19503.68
513.90	19927.32
514.08	19662.84
514.25	20039.67
514.43	20037.33
514.60	20053.71
514.77	20065.41
514.95	20191.80
515.12	20182.44
515.29	20130.95
515.47	20290.10
515.64	20416.49
515.81	20467.98
515.99	20538.20
516.16	20648.21
516.33	20629.48
516.51	20503.09
516.68	20734.81
516.85	20397.77
517.03	20599.05
517.20	20879.92
517.37	20800.34
517.54	20807.36
517.72	20903.32
517.89	20922.05
518.06	20807.36
518.24	20947.79
518.41	20875.24
518.58	21280.15
518.75	21177.17
518.93	21305.90
519.10	20961.84
519.27	21139.72
519.45	21448.67
519.62	21418.24
519.79	21111.63
519.96	21561.02
520.14	21642.93
520.31	21385.47
520.48	21811.45
520.65	21467.39
520.83	21462.71
521.00	21703.79
521.17	21532.93
521.34	21769.32
521.52	21722.51
521.69	21553.99
521.86	21802.09
522.03	22181.26
522.20	22183.60
522.38	22047.85
522.55	21923.80
522.72	22246.79
522.89	22015.08
523.07	22148.49
523.24	22384.88
523.41	22431.69
523.58	22349.78
523.75	22525.32
523.92	22410.63
524.10	22412.97
524.27	22719.58
524.44	22684.47
524.61	22721.92
524.78	22822.56
524.96	22906.82
525.13	23019.17
525.30	22878.74
525.47	22672.77
525.64	22719.58
525.81	23293.01
525.98	23009.81
526.16	23098.75
526.33	23030.87
526.50	23491.96
526.67	22993.42
526.84	23161.94
527.01	23056.62
527.18	23073.00
527.36	23372.59
527.53	23531.75
527.70	23857.08
527.87	23597.28
528.04	23482.59
528.21	23836.02
528.38	23468.55
528.55	23723.67
528.72	23625.37
528.89	23749.42
529.07	23740.05
529.24	23758.78
529.41	23819.63
529.58	23707.29
529.75	23763.46
529.92	24084.11
530.09	23831.33
530.26	23988.15
530.43	24023.26
530.60	24252.63
530.77	24046.66
530.94	24130.92
531.11	23789.20
531.28	24175.39
531.46	24364.98
531.63	24400.08
531.80	24329.87
531.97	24215.18
532.14	24510.09
532.31	24100.50
532.48	24339.23
532.65	24737.12
532.82	24360.30
532.99	24924.36
533.16	24474.98
533.33	24620.10
533.50	24936.07
533.67	24996.92
533.84	24741.80
534.01	24669.25
534.18	24442.21
534.35	24842.45
534.52	25132.67
534.69	25099.90
534.86	25010.96
535.03	24755.85
535.20	25076.50
535.37	24980.54
535.54	24629.46
535.71	25195.87
535.88	25532.90
536.05	25200.55
536.22	25235.66
536.38	25319.92
536.55	25198.21
536.72	25067.14
536.89	25530.56
537.06	25280.13
537.23	25518.86
537.40	25439.28
537.57	25802.07
537.74	25598.44
537.91	25659.29
538.08	25841.85
538.25	25280.13
538.42	25495.46
538.59	25881.64
538.75	25678.02
538.92	25240.34
539.09	25654.61
539.26	25811.43
539.43	25521.20
539.60	25855.90
539.77	25949.52
539.94	25975.27
540.11	25778.66
540.28	25909.73
540.44	25647.59
540.61	25883.98
540.78	25876.96
540.95	26501.89
541.12	25942.50
541.29	26155.49
541.46	26040.80
541.62	26253.79
541.79	26061.87
541.96	25928.45
542.13	25881.64
542.30	26316.98
542.47	26174.21
542.63	26649.34
542.80	26513.59
542.97	26508.91
543.14	26661.04
543.31	26813.18
543.48	27007.44
543.64	26855.31
543.81	26981.70
543.98	27115.11
544.15	27424.06
544.32	27381.93
544.48	27218.09
544.65	27007.44
544.82	26726.58
544.99	26897.44
545.16	26941.91
545.32	27028.51
545.49	27459.16
545.66	27281.28
545.83	27070.64
546.00	27395.97
546.16	27145.53
546.33	26911.48
546.50	26820.20
546.67	27239.15
546.83	26951.27
547.00	27236.81
547.17	27501.29
547.34	27201.71
547.50	27676.83
547.67	27473.21
547.84	27267.24
548.00	27187.66
548.17	27740.03
548.34	27559.81
548.51	27714.28
548.67	27639.39
548.84	27676.83
549.01	27557.47
549.18	27763.43
549.34	27550.45
549.51	27658.11
549.68	27651.09
549.84	27527.04
550.01	27910.89
550.18	27730.67
550.34	27646.41
550.51	27873.44
550.68	27990.47
550.84	27784.50
551.01	28121.54
551.18	27789.18
551.34	27770.46
551.51	28013.87
551.68	27899.19
551.84	28184.73
552.01	27971.74
552.18	28456.23
552.34	27938.97
552.51	28032.60
552.68	27861.74
552.84	28091.11
553.01	28210.48
553.18	28180.05
553.34	27936.63
553.51	28020.89
553.67	28243.24
553.84	28247.93
554.01	28318.14
554.17	28786.25
554.34	28182.39
554.51	28589.64
554.67	28542.83
554.84	28573.26
555.00	28161.33
555.17	28196.43
555.33	28446.87
555.50	28257.29
555.67	28863.49
555.83	28844.76
556.00	28535.81
556.16	28800.29
556.33	28683.27
556.50	28414.10
556.66	28994.56
556.83	28470.28
556.99	28922.00
557.16	29013.28
557.32	29181.80
557.49	28989.88
557.65	28875.19
557.82	28882.21
557.98	29081.16
558.15	28627.09
558.32	29280.10
558.48	29057.75
558.65	29015.62
558.81	29298.83
558.98	29015.62
559.14	29209.89
559.31	29104.56
559.47	29165.42
559.64	29261.38
559.80	29322.23
559.97	29247.33
560.13	28985.19
560.30	29277.76
560.46	29319.89
560.63	29113.92
560.79	28903.28
560.96	29247.33
561.12	29074.13
561.29	28779.23
561.45	29085.84
561.61	29556.28
561.78	29268.40
561.94	29252.02
562.11	29097.54
562.27	29200.52
562.44	29621.82
562.60	29336.27
562.77	28914.98
562.93	29181.80
563.10	29837.15
563.26	29528.20
563.42	29549.26
563.59	29355.00
563.75	29556.28
563.92	29841.83
564.08	29495.43
564.24	29228.61
564.41	29720.12
564.57	29181.80
564.74	29490.75
564.90	29380.74
565.07	29628.84
565.23	29825.45
565.39	29455.64
565.56	29603.10
565.72	29399.47
565.88	29837.15
566.05	29158.39
566.21	29832.47
566.38	29352.66
566.54	29968.22
566.70	29977.58
566.87	29675.65
567.03	29607.78
567.19	29858.21
567.36	30221.00
567.52	29582.03
567.68	30087.59
567.85	29479.05
568.01	29584.37
568.17	29577.35
568.34	30029.07
568.50	30040.78
568.66	30445.69
568.83	30078.22
568.99	29951.84
569.15	29701.40
569.32	29734.17
569.48	29816.08
569.64	30071.20
569.81	30075.88
569.97	30052.48
570.13	30195.25
570.30	29560.97
570.46	30029.07
570.62	30092.27
570.78	30099.29
570.95	29745.87
571.11	30335.68
571.27	29930.77
571.43	29874.60
571.60	30082.91
571.76	29638.20
571.92	29582.03
572.09	30162.48
572.25	29940.13
572.41	30225.68
572.57	30012.69
572.74	29736.51
572.90	30298.23
573.06	29696.72
573.22	29869.92
573.38	30335.68
573.55	29797.36
573.71	30185.89
573.87	30586.12
574.03	30237.38
574.20	30279.51
574.36	29874.60
574.52	30281.85
574.68	30096.95
574.84	30518.25
575.01	30651.66
575.17	30513.56
575.33	30015.03
575.49	29909.71
575.65	30380.15
575.82	30345.05
575.98	30426.96
576.14	30281.85
576.30	30071.20
576.46	29968.22
576.62	29979.92
576.79	30326.32
576.95	30012.69
577.11	29912.05
577.27	30410.58
577.43	30216.32
577.59	30008.01
577.75	30361.43
577.92	29762.25
578.08	30068.86
578.24	30232.70
578.40	30366.11
578.56	30766.34
578.72	30375.47
578.88	30342.70
579.04	30309.94
579.21	30462.07
579.37	30277.17
579.53	30682.08
579.69	30110.99
579.85	30148.44
580.01	29993.97
580.17	30068.86
580.33	30265.47
580.49	30068.86
580.65	30429.30
580.82	30471.43
580.98	30071.20
581.14	30401.22
581.30	30338.02
581.46	30403.56
581.62	30654.00
581.78	30249.08
581.94	30167.16
582.10	30302.92
582.26	30146.10
582.42	30288.87
582.58	30375.47
582.74	30237.38
582.90	30724.21
583.06	30749.96
583.22	30291.21
583.38	30572.08
583.54	30452.71
583.70	30064.18
583.86	30506.54
584.02	30513.56
584.18	30567.40
584.34	30834.22
584.50	30700.81
584.66	30492.50
584.82	30497.18
584.98	30501.86
585.14	30223.34
585.30	30312.28
585.46	30459.73
585.62	30415.26
585.78	30623.57
585.94	30499.52
586.10	30527.61
586.26	30651.66
586.42	30429.30
586.58	30698.47
586.74	30700.81
586.90	30436.33
587.06	30384.83
587.22	30342.70
587.38	30394.20
587.54	30984.01
587.70	30726.55
587.86	30637.61
588.02	30988.69
588.18	31307.01
588.34	30756.98
588.49	30714.85
588.65	30714.85
588.81	30494.84
588.97	30721.87
589.13	30658.68
589.29	30424.62
589.45	30850.60
589.61	30817.83
589.77	30909.11
589.93	31117.42
590.08	30642.29
590.24	31150.19
590.40	30864.64
590.56	31051.89
590.72	30815.49
590.88	30560.37
591.04	30639.95
591.20	31309.35
591.35	30967.63
591.51	31431.05
591.67	30888.05
591.83	31337.43
591.99	31040.18
592.15	30927.84
592.31	30862.30
592.46	30934.86
592.62	30724.21
592.78	30962.95
592.94	30586.12
593.10	30717.19
593.26	30740.60
593.41	31199.34
593.57	31145.51
593.73	30904.43
593.89	30948.90
594.05	30841.24
594.20	30883.37
594.36	30967.63
594.52	31005.08
594.68	31005.08
594.84	30682.08
594.99	31044.87
595.15	31133.81
595.31	31213.38
595.47	31545.74
595.62	31243.81
595.78	31030.82
595.94	30803.79
596.10	31108.06
596.25	31173.60
596.41	30876.35
596.57	31033.16
596.73	31173.60
596.88	30969.97
597.04	31166.57
597.20	31377.22
597.36	31084.65
597.51	31592.55
597.67	31040.18
597.83	31065.93
597.99	31225.09
598.14	30918.48
598.30	30838.90
598.46	31386.58
598.61	31189.98
598.77	30789.75
598.93	31129.12
599.09	31189.98
599.24	31388.92
599.40	31585.53
599.56	31400.63
599.71	31353.82
599.87	31178.28
600.03	31307.01
600.18	31042.53
600.34	30993.37
600.50	30909.11
600.65	30953.58
600.81	31049.55
600.97	31512.97
601.12	31391.26
601.28	31211.04
601.44	31173.60
601.59	31391.26
601.75	31030.82
601.91	31534.04
602.06	31105.72
602.22	31260.20
602.37	31035.50
602.53	30892.73
602.69	31234.45
602.84	30916.14
603.00	31475.52
603.16	31463.82
603.31	31285.94
603.47	30707.83
603.62	31040.18
603.78	31199.34
603.94	30897.41
604.09	31028.48
604.25	31119.76
604.40	30693.79
604.56	31402.97
604.71	31651.06
604.87	30939.54
605.03	31019.12
605.18	31243.81
605.34	31414.67
605.49	30838.90
605.65	30759.32
605.80	30642.29
605.96	30969.97
606.12	30771.02
606.27	31007.42
606.43	30745.28
606.58	31021.46
606.74	31442.76
606.89	31407.65
607.05	31122.10
607.20	31194.66
607.36	30703.15
607.51	30712.51
607.67	30864.64
607.82	30801.45
607.98	30979.33
608.13	31096.36
608.29	30888.05
608.44	30803.79
608.60	30705.49
608.75	31115.08
608.91	30855.28
609.06	30764.00
609.22	30991.03
609.37	30841.24
609.53	31028.48
609.68	30609.53
609.84	30558.03
609.99	30913.80
610.15	30656.34
610.30	30639.95
610.46	30663.36
610.61	30551.01
610.76	31473.18
610.92	30780.39
611.07	30611.87
611.23	30656.34
611.38	30574.42
611.54	30433.99
611.69	30492.50
611.84	30593.14
612.00	30747.62
612.15	30689.10
612.31	30691.44
612.46	30703.15
612.62	31009.76
612.77	31072.95
612.92	31194.66
613.08	30857.62
613.23	31040.18
613.39	30778.04
613.54	30586.12
613.69	30380.15
613.85	30293.55
614.00	30565.06
614.15	30295.89
614.31	30438.67
614.46	30773.36
614.62	30747.62
614.77	30405.90
614.92	30817.83
615.08	30527.61
615.23	30717.19
615.38	30408.24
615.54	30204.61
615.69	30426.96
615.84	30171.85
616.00	30459.73
616.15	30057.16
616.30	30426.96
616.46	30176.53
616.61	30223.34
616.76	30733.57
616.92	30426.96
617.07	30682.08
617.22	29989.28
617.37	29986.94
617.53	30281.85
617.68	30045.46
617.83	30139.08
617.99	29883.96
618.14	30195.25
618.29	30288.87
618.45	30136.74
618.60	29954.18
618.75	29940.13
618.90	30291.21
619.06	30204.61
619.21	30106.31
619.36	30038.44
619.51	29722.46
619.67	29954.18
619.82	29806.72
619.97	30040.78
620.12	29701.40
620.28	29977.58
620.43	29926.09
620.58	30244.40
620.73	29773.95
620.89	29972.90
621.04	29956.52
621.19	29869.92
621.34	29947.15
621.49	29277.76
621.65	29912.05
621.80	29792.68
621.95	29659.27
622.10	29619.48
622.25	29886.30
622.41	29790.34
622.56	29467.34
622.71	29780.98
622.86	29916.73
623.01	29773.95
623.16	29699.06
623.32	29385.43
623.47	29722.46
623.62	29659.27
623.77	29675.65
623.92	29720.12
624.07	29308.19
624.23	29469.69
624.38	29507.13
624.53	29483.73
624.68	29474.37
624.83	29961.20
624.98	29600.76
625.13	29425.22
625.29	29741.19
625.44	29432.24
625.59	29167.76
625.74	29071.79
625.89	29376.06
626.04	29102.22
626.19	29137.33
626.34	29575.01
626.49	29324.57
626.65	29371.38
626.80	29312.87
626.95	29366.70
627.10	29076.48
627.25	29106.90
627.40	29280.10
627.55	29069.45
627.70	29022.64
627.85	28748.80
628.00	28931.36
628.15	29223.93
628.30	28762.84
628.45	28987.53
628.60	29123.29
628.76	28561.56
628.91	29275.42
629.06	29032.00
629.21	29184.14
629.36	29184.14
629.51	28606.03
629.66	28762.84
629.81	28435.17
629.96	28933.70
630.11	28982.85
630.26	28746.46
630.41	29186.48
630.56	28676.24
630.71	28725.39
630.86	28657.52
631.01	29174.78
631.16	29015.62
631.31	28526.45
631.46	28423.47
631.61	28753.48
631.76	28849.44
631.91	28580.28
632.06	28641.14
632.21	28699.65
632.36	28514.75
632.51	28297.08
632.66	28570.92
632.81	28421.13
632.96	28694.97
633.10	28325.16
633.25	28652.84
633.40	28690.29
633.55	28589.64
633.70	28400.06
633.85	28180.05
634.00	27943.66
634.15	28084.09
634.30	28128.56
634.45	28030.26
634.60	27910.89
634.75	28503.04
634.90	28514.75
635.05	28552.20
635.19	28173.03
635.34	28388.36
635.49	28496.02
635.64	28170.69
635.79	28428.15
635.94	28250.27
636.09	28599.01
636.24	27988.13
636.39	27990.47
636.53	28060.68
636.68	28114.52
636.83	28011.53
636.98	28023.23
637.13	28168.35
637.28	28254.95
637.43	27875.78
637.57	28315.80
637.72	27906.21
637.87	27779.82
638.02	27817.27
638.17	27924.93
638.32	27934.29
638.46	27903.87
638.61	27494.27
638.76	27615.98
638.91	27442.78
639.06	27747.05
639.20	27747.05
639.35	27814.93
639.50	28105.15
639.65	27838.33
639.80	28084.09
639.94	27618.32
640.09	28173.03
640.24	27190.00
640.39	27255.54
640.54	27363.20
640.68	27384.27
640.83	27630.02
640.98	27477.89
641.13	27232.13
641.27	27606.62
641.42	27683.86
641.57	27608.96
641.72	27414.69
641.86	27379.59
642.01	26808.50
642.16	27641.73
642.31	27583.21
642.45	27536.40
642.60	27262.56
642.75	27192.34
642.90	27274.26
643.04	26991.06
643.19	27190.00
643.34	26932.54
643.48	27021.48
643.63	27005.10
643.78	27370.22
643.93	27491.93
644.07	27178.30
644.22	27337.46
644.37	26991.06
644.51	27435.76
644.66	27159.58
644.81	26740.62
644.95	27061.27
645.10	26909.14
645.25	26974.67
645.39	27274.26
645.54	26780.41
645.69	26930.20
645.83	27229.79
645.98	27302.35
646.13	26820.20
646.27	27070.64
646.42	26916.16
646.57	27124.47
646.71	26892.76
646.86	26998.08
647.00	27370.22
647.15	26691.47
647.30	27016.80
647.44	26988.72
647.59	26675.09
647.74	26590.83
647.88	26590.83
648.03	27185.32
648.17	27201.71
648.32	26654.02
648.47	26630.62
648.61	26806.16
648.76	26649.34
648.90	27063.61
649.05	26714.87
649.20	26356.77
649.34	26632.96
649.49	26354.43
649.63	26408.26
649.78	26441.03
649.92	26452.73
650.07	26654.02
650.21	26436.35
650.36	26389.54
650.51	26700.83
650.65	26761.69
650.80	26609.55
650.94	26401.24
651.09	26073.57
651.23	26515.93
651.38	26441.03
651.52	26160.17
651.67	26373.16
651.81	26394.22
651.96	26284.22
652.10	26780.41
652.25	26412.95
652.39	26562.74
652.54	26415.29
652.68	26101.65
652.83	26382.52
652.97	26436.35
653.12	26368.48
653.26	26022.08
653.41	26111.02
653.55	26319.32
653.70	26043.14
653.84	25986.97
653.99	26141.44
654.13	25893.35
654.27	26197.62
654.42	26080.59
654.56	26129.74
654.71	26082.93
654.85	25963.56
655.00	26228.04
655.14	25933.14
655.29	25806.75
655.43	25923.77
655.57	25827.81
655.72	25488.43
655.86	25673.34
656.01	25806.75
656.15	25715.47
656.30	25764.62
656.44	25769.30
656.58	25558.65
656.73	25315.23
656.87	25935.48
657.01	25432.26
657.16	25928.45
657.30	25972.92
657.45	25717.81
657.59	25724.83
657.73	25731.85
657.88	25668.66
658.02	25652.27
658.16	25565.67
658.31	25530.56
658.45	25565.67
658.60	25041.39
658.74	25104.59
658.88	25282.47
659.03	25497.80
659.17	25415.88
659.31	25324.60
659.46	25607.80
659.60	25418.22
659.74	25593.76
659.89	24999.26
660.03	25123.31
660.17	25303.53
660.32	25109.27
660.46	24849.47
660.60	24797.98
660.74	24994.58
660.89	24882.24
661.03	25097.56
661.17	24940.75
661.32	25062.46
661.46	25071.82
661.60	25230.98
661.74	24961.81
661.89	24751.17
662.03	24915.00
662.17	24725.42
662.31	24556.90
662.46	24575.62
662.60	24746.48
662.74	24456.26
662.88	24673.93
663.03	24673.93
663.17	24575.62
663.31	24325.19
663.45	24613.07
663.60	24114.54
663.74	24472.64
663.88	24451.58
664.02	24411.79
664.17	24596.69
664.31	24070.07
664.45	24285.40
664.59	24533.50
664.73	24269.01
664.88	23999.85
665.02	23789.20
665.16	24093.47
665.30	23843.04
665.44	23931.98
665.59	23772.82
665.73	23697.92
665.87	23828.99
666.01	23931.98
666.15	23929.64
666.29	24149.65
666.44	23819.63
666.58	23955.38
666.72	23786.86
666.86	23976.45
667.00	24030.28
667.14	23697.92
667.28	23445.15
667.43	23463.87
667.57	23709.63
667.71	23597.28
667.85	23307.05
667.99	23529.41
668.13	23140.88
668.27	23363.23
668.41	23704.95
668.56	23253.22
668.70	23494.30
668.84	23435.78
668.98	23065.98
669.12	23108.11
669.26	23154.92
669.40	23201.73
669.54	23311.74
669.68	23236.84
669.82	22771.07
669.96	23110.45
670.10	22764.05
670.25	23087.04
670.39	23019.17
670.53	22640.00
670.67	22546.38
670.81	22808.52
670.95	22487.87
671.09	22703.20
671.23	22796.82
671.37	22820.22
671.51	22513.61
671.65	23094.07
671.79	22661.07
671.93	22455.10
672.07	22499.57
672.21	22506.59
672.35	22141.47
672.49	22132.11
672.63	22319.35
672.77	22043.17
672.91	22036.14
673.05	22272.54
673.19	22010.40
673.33	22293.60
673.47	22263.18
673.61	22412.97
673.75	22176.58
673.89	22087.64
674.03	21912.10
674.17	21900.39
674.31	21750.60
674.45	21841.88
674.59	21397.18
674.73	21507.18
674.87	21626.55
675.01	21748.26
675.15	21458.03
675.29	21378.45
675.43	21507.18
675.56	21357.39
675.70	21057.80
675.84	21184.19
675.98	20779.28
676.12	21212.28
676.26	21083.55
676.40	21263.77
676.54	20870.56
676.68	20922.05
676.82	20856.51
676.96	21025.03
677.10	20772.25
677.23	20704.38
677.37	20685.65
677.51	20776.94
677.65	20556.93
677.79	20198.82
677.93	20503.09
678.07	20105.20
678.21	20322.87
678.34	20182.44
678.48	20336.91
678.62	20154.35
678.76	20283.08
678.90	20149.67
679.04	20004.56
679.18	19924.98
679.31	20140.31
679.45	19850.08
679.59	19728.38
679.73	19379.64
679.87	19543.47
680.00	19349.21
680.14	19793.91
680.28	19613.69
680.42	19440.49
680.56	19679.22
680.70	19665.18
680.83	19157.28
680.97	19002.81
681.11	19152.60
681.25	19286.01
681.39	18979.40
681.52	18960.68
681.66	18843.65
681.80	18817.91
681.94	18895.14
682.07	18867.06
682.21	18553.43
682.35	18586.19
682.49	18733.65
682.62	18462.15
682.76	18445.76
682.90	18827.27
683.04	18523.00
683.17	18279.58
683.31	18457.46
683.45	18693.86
683.59	18373.21
683.72	18043.19
683.86	18136.81
684.00	18146.17
684.13	17972.97
684.27	17968.29
684.41	17783.39
684.55	17481.46
684.68	17724.88
684.82	17502.53
684.96	17539.97
685.09	17434.65
685.23	17561.04
685.37	17432.31
685.50	17692.11
685.64	17549.34
685.78	17547.00
685.91	17282.52
686.05	17249.75
686.19	17324.65
686.32	17474.44
686.46	17090.59
686.60	16767.60
686.73	16936.12
686.87	16666.95
687.01	16802.71
687.14	16641.21
687.28	16669.30
687.42	16535.88
687.55	16542.91
687.69	16568.65
687.82	16418.86
687.96	16739.51
688.10	16353.32
688.23	16709.08
688.37	16322.90
688.50	16339.28
688.64	16470.35
688.78	16194.17
688.91	15817.34
689.05	16219.91
689.18	15981.18
689.32	15386.68
689.46	15580.95
689.59	15831.38
689.73	15838.41
689.86	16023.31
690.00	15723.72
690.13	15487.32
690.27	15573.92
690.41	15735.42
690.54	15180.71
690.68	15351.57
690.81	15597.33
690.95	15365.62
691.08	15255.61
691.22	15218.16
691.35	15311.78
691.49	15318.81
691.62	15290.72
691.76	15087.09
691.89	14726.65
692.03	14801.55
692.16	14682.18
692.30	14698.56
692.43	14618.99
692.57	14326.42
692.70	14471.53
692.84	14370.89
692.97	14284.29
693.11	14359.19
693.24	14494.94
693.38	14443.45
693.51	14345.14
693.65	14260.88
693.78	14125.13
693.92	14195.35
694.05	14181.31
694.19	14441.11
694.32	13844.27
694.45	14057.26
694.59	13647.66
694.72	13666.39
694.86	13448.72
694.99	13561.06
695.13	13521.27
695.26	13312.97
695.39	13535.32
695.53	13743.63
695.66	13369.14
695.80	13259.13
695.93	13301.26
696.07	13525.96
696.20	13205.30
696.33	13139.77
696.47	13247.43
696.60	13226.37
696.73	13095.30
696.87	13078.91
697.00	13001.68
697.14	12629.53
697.27	12524.21
697.40	13006.36
697.54	12592.08
697.67	12367.39
697.80	12416.54
697.94	12306.54
698.07	12142.70
698.21	12205.89
698.34	12423.56
698.47	12388.46
698.61	12505.48
698.74	12404.84
698.87	12339.30
699.01	11955.46
699.14	11948.43
699.27	11920.35
699.40	12112.27
699.54	11932.05
699.67	12105.25
699.80	11936.73
699.94	11777.58
700.07	11468.62
700.20	11698.00
700.34	11672.25
700.47	11473.31
700.60	11599.70
700.73	11515.44
700.87	11370.32
701.00	11405.43
701.13	11372.66
701.26	11192.44
701.40	11597.35
701.53	11197.12
701.66	11222.87
701.79	11335.21
701.93	11019.24
702.06	11037.97
702.19	11126.91
702.32	10576.88
702.46	10817.96
702.59	10654.12
702.72	10600.29
702.85	10696.25
702.99	10761.78
703.12	10750.08
703.25	10644.76
703.38	10448.15
703.51	10534.75
703.65	10616.67
703.78	10551.14
703.91	10506.66
704.04	10595.61
704.17	10394.32
704.31	10237.50
704.44	10232.82
704.57	10064.30
704.70	10026.86
704.83	10001.11
704.96	10094.73
705.10	9820.89
705.23	9839.61
>>>>>End Processed Spectral Data<<<<<
