SpectraSuite Data File
++++++++++++++++++++++++++++++++++++
Date: Fri Oct 18 13:58:14 GMT-05:00 2013
User: bianchi
Dark Spectrum Present: No
Reference Spectrum Present: No
Number of Sampled Component Spectra: 1
Spectrometers: USB2+H05261
Integration Time (usec): 50000 (USB2+H05261)
Spectra Averaged: 1 (USB2+H05261)
Boxcar Smoothing: 0 (USB2+H05261)
Correct for Electrical Dark: No (USB2+H05261)
Strobe/Lamp Enabled: No (USB2+H05261)
Correct for Detector Non-linearity: No (USB2+H05261)
Correct for Stray Light: No (USB2+H05261)
Number of Pixels in Processed Spectrum: 2048
>>>>>Begin Processed Spectral Data<<<<<
365.73	0.00
365.92	0.00
366.12	0.00
366.32	0.00
366.52	0.00
366.72	0.00
366.91	0.00
367.11	0.00
367.31	0.00
367.51	0.00
367.70	0.00
367.90	0.00
368.10	0.00
368.30	0.00
368.49	0.00
368.69	0.00
368.89	0.00
369.09	0.00
369.28	0.00
369.48	0.00
369.68	0.00
369.87	0.00
370.07	0.00
370.27	0.00
370.47	0.00
370.66	79.58
370.86	93.62
371.06	147.45
371.25	184.90
371.45	152.13
371.65	131.07
371.84	154.48
372.04	67.88
372.24	161.50
372.44	124.05
372.63	210.65
372.83	292.57
373.03	180.22
373.22	191.92
373.42	229.37
373.62	182.56
373.81	229.37
374.01	252.78
374.21	252.78
374.40	252.78
374.60	294.91
374.79	182.56
374.99	234.05
375.19	280.86
375.38	198.95
375.58	194.26
375.78	313.63
375.97	203.63
376.17	308.95
376.37	252.78
376.56	327.68
376.76	222.35
376.95	259.80
377.15	217.67
377.35	315.97
377.54	283.20
377.74	255.12
377.93	297.25
378.13	339.38
378.33	273.84
378.52	304.27
378.72	278.52
378.91	327.68
379.11	231.71
379.31	353.42
379.50	269.16
379.70	259.80
379.89	390.87
380.09	337.04
380.28	369.80
380.48	379.17
380.68	262.14
380.87	266.82
381.07	301.93
381.26	248.10
381.46	238.73
381.65	255.12
381.85	341.72
382.04	339.38
382.24	325.33
382.43	308.95
382.63	360.44
382.83	322.99
383.02	386.19
383.22	332.36
383.41	346.40
383.61	416.62
383.80	372.15
384.00	332.36
384.19	322.99
384.39	348.74
384.58	395.55
384.78	337.04
384.97	402.57
385.17	386.19
385.36	381.51
385.56	388.53
385.75	416.62
385.95	358.10
386.14	404.91
386.34	322.99
386.53	287.89
386.72	402.57
386.92	388.53
387.11	376.83
387.31	418.96
387.50	421.30
387.70	278.52
387.89	451.72
388.09	484.49
388.28	397.89
388.48	339.38
388.67	479.81
388.86	442.36
389.06	447.04
389.25	491.51
389.45	409.59
389.64	449.38
389.84	517.26
390.03	517.26
390.22	437.68
390.42	430.66
390.61	496.19
390.81	437.68
391.00	437.68
391.19	444.70
391.39	489.17
391.58	526.62
391.78	512.58
391.97	543.00
392.16	475.13
392.36	524.28
392.55	592.16
392.75	550.03
392.94	491.51
393.13	514.92
393.33	484.49
393.52	528.96
393.71	601.52
393.91	594.50
394.10	465.77
394.29	573.43
394.49	472.79
394.68	585.13
394.88	662.37
395.07	629.60
395.26	580.45
395.46	589.82
395.65	568.75
395.84	585.13
396.04	685.78
396.23	627.26
396.42	655.35
396.62	608.54
396.81	617.90
397.00	706.84
397.19	664.71
397.39	662.37
397.58	636.63
397.77	702.16
397.97	638.97
398.16	643.65
398.35	641.31
398.55	681.10
398.74	655.35
398.93	732.59
399.12	683.44
399.32	676.41
399.51	699.82
399.70	758.33
399.90	664.71
400.09	760.67
400.28	840.25
400.47	763.01
400.67	669.39
400.86	760.67
401.05	751.31
401.24	786.42
401.44	760.67
401.63	821.53
401.82	847.27
402.01	753.65
402.21	748.97
402.40	919.83
402.59	828.55
402.78	837.91
402.97	866.00
403.17	847.27
403.36	814.51
403.55	858.98
403.74	905.79
403.93	868.34
404.13	1015.79
404.32	910.47
404.51	861.32
404.70	898.77
404.89	961.96
405.09	968.98
405.28	924.51
405.47	973.66
405.66	966.64
405.85	1008.77
406.05	945.58
406.24	985.37
406.43	1064.94
406.62	1043.88
406.81	1039.20
407.00	983.02
407.20	971.32
407.39	1086.01
407.58	950.26
407.77	1128.14
407.96	1111.75
408.15	1039.20
408.34	1083.67
408.54	1123.46
408.73	1146.86
408.92	1158.57
409.11	1093.03
409.30	1172.61
409.49	1128.14
409.68	1116.44
409.87	1165.59
410.07	1191.33
410.26	1179.63
410.45	1167.93
410.64	1198.35
410.83	1233.46
411.02	1172.61
411.21	1238.14
411.40	1306.02
411.59	1254.53
411.78	1263.89
411.98	1254.53
412.17	1212.40
412.36	1320.06
412.55	1294.32
412.74	1397.30
412.93	1404.32
413.12	1301.34
413.31	1432.41
413.50	1350.49
413.69	1404.32
413.88	1427.73
414.07	1399.64
414.26	1380.92
414.45	1465.18
414.64	1483.90
414.83	1528.37
415.02	1458.15
415.22	1434.75
415.41	1446.45
415.60	1542.41
415.79	1591.56
415.98	1692.21
416.17	1633.69
416.36	1502.62
416.55	1577.52
416.74	1530.71
416.93	1657.10
417.12	1614.97
417.31	1617.31
417.50	1570.50
417.69	1741.36
417.88	1708.59
418.07	1708.59
418.26	1717.95
418.45	1682.85
418.64	1687.53
418.83	1860.73
419.02	1694.55
419.21	1806.89
419.39	1781.15
419.58	1792.85
419.77	1788.17
419.96	1853.70
420.15	1844.34
420.34	1856.04
420.53	1891.15
420.72	1832.64
420.91	1790.51
421.10	1853.70
421.29	2031.58
421.48	1895.83
421.67	1928.60
421.86	1921.58
422.05	2045.63
422.24	1937.96
422.43	2054.99
422.61	2092.44
422.80	1923.92
422.99	1982.43
423.18	1977.75
423.37	1959.03
423.56	2026.90
423.75	1959.03
423.94	1898.17
424.13	1884.13
424.32	1839.66
424.50	2202.44
424.69	2022.22
424.88	2012.86
425.07	2015.20
425.26	2052.65
425.45	1973.07
425.64	2040.95
425.83	1996.48
426.01	2167.34
426.20	2092.44
426.39	2076.06
426.58	2010.52
426.77	2054.99
426.96	2125.21
427.15	2127.55
427.33	2136.91
427.52	2169.68
427.71	2108.82
427.90	2202.44
428.09	2157.97
428.28	2141.59
428.46	2153.29
428.65	2200.10
428.84	2270.32
429.03	2293.72
429.22	2174.36
429.40	2167.34
429.59	2181.38
429.78	2249.25
429.97	2111.16
430.16	2249.25
430.34	2263.30
430.53	2345.22
430.72	2312.45
430.91	2235.21
431.10	2312.45
431.28	2303.09
431.47	2317.13
431.66	2373.30
431.85	2415.43
432.03	2448.20
432.22	2485.65
432.41	2373.30
432.60	2347.56
432.79	2443.52
432.97	2572.25
433.16	2471.61
433.35	2469.27
433.54	2487.99
433.72	2525.44
433.91	2387.35
434.10	2537.14
434.28	2403.73
434.47	2523.10
434.66	2581.61
434.85	2605.02
435.03	2623.74
435.22	2616.72
435.41	2684.59
435.59	2612.04
435.78	2710.34
435.97	2729.06
436.16	2600.34
436.34	2722.04
436.53	2700.98
436.72	2677.57
436.90	2691.62
437.09	2628.42
437.28	2708.00
437.46	2710.34
437.65	2684.59
437.84	2766.51
438.02	2789.92
438.21	2757.15
438.40	2754.81
438.58	2871.84
438.77	2834.39
438.96	2818.00
439.14	2902.26
439.33	2974.82
439.52	2979.50
439.70	2874.18
439.89	2930.35
440.08	2906.95
440.26	3080.14
440.45	3091.85
440.63	3035.67
440.82	3049.72
441.01	2944.39
441.19	3201.85
441.38	3143.34
441.57	3180.79
441.75	3150.36
441.94	3208.87
442.12	3183.13
442.31	3445.27
442.50	3215.90
442.68	3243.98
442.87	3318.88
443.05	3396.12
443.24	3344.63
443.43	3445.27
443.61	3555.27
443.80	3372.71
443.98	3328.24
444.17	3173.77
444.35	3316.54
444.54	3403.14
444.73	3421.86
444.91	3391.44
445.10	3332.92
445.28	3456.97
445.47	3517.83
445.65	3445.27
445.84	3379.73
446.02	3400.80
446.21	3555.27
446.39	3461.65
446.58	3494.42
446.77	3471.01
446.95	3283.77
447.14	3562.30
447.32	3508.46
447.51	3445.27
447.69	3599.74
447.88	3433.57
448.06	3569.32
448.25	3534.21
448.43	3655.92
448.62	3616.13
448.80	3499.10
448.99	3571.66
449.17	3625.49
449.36	3625.49
449.54	3684.00
449.73	3618.47
449.91	3754.22
450.10	3744.86
450.28	3735.50
450.46	3768.26
450.65	3705.07
450.83	3815.07
451.02	3742.52
451.20	3749.54
451.39	3744.86
451.57	3737.84
451.76	3730.81
451.94	3777.62
452.13	3772.94
452.31	3882.95
452.49	3705.07
452.68	3831.46
452.86	3857.20
453.05	3887.63
453.23	3925.08
453.42	3761.24
453.60	3796.35
453.78	4016.36
453.97	3817.41
454.15	3801.03
454.34	3791.67
454.52	4051.47
454.70	4056.15
454.89	3990.61
455.07	3918.06
455.26	3957.85
455.44	4046.79
455.62	4241.05
455.81	4147.43
455.99	4051.47
456.17	4042.11
456.36	4063.17
456.54	4159.13
456.73	4107.64
456.91	4224.67
457.09	4173.18
457.28	4395.53
457.46	4170.83
457.64	4325.31
457.83	4334.67
458.01	4269.14
458.19	4486.81
458.38	4491.49
458.56	4437.66
458.74	4428.29
458.93	4315.95
459.11	4374.46
459.29	4325.31
459.48	4568.73
459.66	4542.98
459.84	4617.88
460.03	4617.88
460.21	4575.75
460.39	4547.66
460.57	4463.40
460.76	4510.21
460.94	4470.42
461.12	4425.95
461.31	4573.41
461.49	4491.49
461.67	4594.47
461.85	4758.31
462.04	4737.24
462.22	4915.12
462.40	4774.69
462.59	4779.37
462.77	4952.57
462.95	4755.97
463.13	4720.86
463.32	4660.01
463.50	4833.21
463.68	4821.50
463.86	4882.36
464.05	4812.14
464.23	4791.08
464.41	4950.23
464.59	4603.83
464.78	4891.72
464.96	4847.25
465.14	4695.11
465.32	4891.72
465.50	4793.42
465.69	4997.04
465.87	5025.13
466.05	4992.36
466.23	4847.25
466.41	5130.45
466.60	5256.84
466.78	4903.42
466.96	5130.45
467.14	4971.30
467.32	4983.00
467.51	5217.05
467.69	4987.68
467.87	5123.43
468.05	5050.88
468.23	5043.85
468.41	5088.32
468.60	5102.37
468.78	5231.10
468.96	5221.74
469.14	5172.58
469.32	5210.03
469.50	5179.61
469.69	5334.08
469.87	5308.34
470.05	5310.68
470.23	5427.70
470.41	5355.15
470.59	5549.41
470.77	5465.15
470.95	5476.85
471.14	5540.05
471.32	5338.76
471.50	5638.35
471.68	5621.97
471.86	5568.13
472.04	5823.25
472.22	5926.24
472.40	5731.97
472.58	5743.67
472.77	5753.04
472.95	5753.04
473.13	5851.34
473.31	5795.17
473.49	5987.09
473.67	5881.77
473.85	5916.87
474.03	6118.16
474.21	5881.77
474.39	5872.40
474.57	5977.73
474.75	6209.44
474.93	6193.06
475.12	6267.95
475.30	6108.80
475.48	6122.84
475.66	6092.41
475.84	6305.40
476.02	6539.46
476.20	6263.27
476.38	6492.65
476.56	6534.78
476.74	6516.05
476.92	6401.37
477.10	6569.88
477.28	6719.68
477.46	6630.74
477.64	6738.40
477.82	6684.57
478.00	6832.02
478.18	6815.64
478.36	6857.77
478.54	6979.48
478.72	6986.50
478.90	6993.52
479.08	7349.28
479.26	7131.61
479.44	7117.57
479.62	7145.66
479.80	7321.20
479.98	7433.54
480.16	7414.82
480.34	7524.82
480.52	7520.14
480.70	7527.16
480.88	7351.62
481.06	7576.31
481.24	7681.64
481.41	7667.60
481.59	7955.48
481.77	8011.65
481.95	7648.87
482.13	8135.70
482.31	8315.92
482.49	8173.15
482.67	8276.13
482.85	8283.16
483.03	8547.64
483.21	8397.84
483.39	8566.36
483.57	8547.64
483.74	8596.79
483.92	8664.66
484.10	8627.21
484.28	8933.82
484.46	8971.27
484.64	9200.65
484.82	8875.31
485.00	8945.53
485.18	9261.50
485.35	9486.19
485.53	9378.53
485.71	9399.59
485.89	9771.74
486.07	9479.17
486.25	9652.37
486.43	9575.13
486.61	9692.16
486.78	9844.29
486.96	10038.56
487.14	9984.73
487.32	9900.47
487.50	10092.39
487.68	10174.31
487.85	10305.38
488.03	10380.28
488.21	10429.43
488.39	10668.16
488.57	10677.52
488.75	10579.22
488.92	10698.59
489.10	10696.25
489.28	10892.85
489.46	11037.97
489.64	10780.51
489.81	11356.28
489.99	11332.87
490.17	11206.48
490.35	11353.94
490.53	11351.60
490.70	11154.99
490.88	11566.93
491.06	11707.36
491.24	11620.76
491.41	11850.13
491.59	11831.41
491.77	11962.48
491.95	12173.13
492.13	12074.82
492.30	12224.62
492.48	12365.05
492.66	12287.81
492.84	12306.54
493.01	12489.10
493.19	12353.35
493.37	12578.04
493.54	12531.23
493.72	12849.54
493.90	12791.03
494.08	12915.08
494.25	12889.33
494.43	13081.25
494.61	13015.72
494.79	13142.11
494.96	13177.22
495.14	13434.68
495.32	13558.72
495.49	13680.43
495.67	13605.53
495.85	13621.92
496.02	13673.41
496.20	13797.46
496.38	13834.91
496.55	13895.76
496.73	14347.48
496.91	14136.84
497.09	14321.74
497.26	14038.53
497.44	14340.46
497.62	14207.05
497.79	14527.71
497.97	14153.22
498.14	14642.39
498.32	14745.38
498.50	14487.92
498.67	14899.85
498.85	15033.26
499.03	14780.48
499.20	14740.69
499.38	14953.68
499.56	15197.10
499.73	15112.84
499.91	15225.18
500.08	15180.71
500.26	15403.07
500.44	15283.70
500.61	15208.80
500.79	15222.84
500.97	15611.37
501.14	15740.10
501.32	15606.69
501.49	15590.31
501.67	15726.06
501.84	15854.79
502.02	15896.92
502.20	16091.18
502.37	16102.89
502.55	15854.79
502.72	15850.11
502.90	15960.11
503.07	16002.24
503.25	16425.88
503.43	16198.85
503.60	16641.21
503.78	16613.12
503.95	16531.20
504.13	16671.64
504.30	16561.63
504.48	16606.10
504.65	16791.00
504.83	16709.08
505.01	16676.32
505.18	16716.11
505.36	17078.89
505.53	16879.94
505.71	17027.40
505.88	17018.04
506.06	16987.61
506.23	17523.59
506.41	17092.93
506.58	17160.81
506.76	17221.66
506.93	17081.23
507.11	17488.48
507.28	17537.63
507.46	17467.42
507.63	17610.19
507.81	17792.75
507.98	17652.32
508.16	17893.40
508.33	17612.53
508.50	17825.52
508.68	17722.54
508.85	17902.76
509.03	17902.76
509.20	17942.55
509.38	18129.79
509.55	18265.54
509.73	18293.63
509.90	18672.79
510.08	18038.51
510.25	18408.31
510.42	18230.43
510.60	18651.73
510.77	18492.57
510.95	18520.66
511.12	18501.93
511.30	18368.52
511.47	18913.87
511.64	18862.38
511.82	18661.09
511.99	18651.73
512.17	19091.75
512.34	18911.53
512.51	19201.76
512.69	19075.37
512.86	19218.14
513.04	19370.27
513.21	19396.02
513.38	19421.77
513.56	19377.30
513.73	19187.71
513.90	19164.31
514.08	19222.82
514.25	19686.25
514.43	19620.71
514.60	19662.84
514.77	19676.88
514.95	19836.04
515.12	19754.12
515.29	19381.98
515.47	19793.91
515.64	19936.68
515.81	19566.88
515.99	20116.90
516.16	20177.76
516.33	20039.67
516.51	20222.23
516.68	20032.65
516.85	20173.08
517.03	20357.98
517.20	20514.80
517.37	20264.36
517.54	20673.95
517.72	20177.76
517.89	20453.94
518.06	20582.67
518.24	20367.34
518.41	20695.02
518.58	20573.31
518.75	20767.57
518.93	21053.12
519.10	20971.20
519.27	20891.62
519.45	21025.03
519.62	20854.17
519.79	20795.66
519.96	20884.60
520.14	21303.56
520.31	21006.31
520.48	21172.49
520.65	21078.86
520.83	21158.44
521.00	20861.19
521.17	21277.81
521.34	21116.31
521.52	21614.85
521.69	21612.51
521.86	21418.24
522.03	21879.33
522.20	21706.13
522.38	21380.79
522.55	21715.49
522.72	21598.46
522.89	21783.37
523.07	22012.74
523.24	21940.18
523.41	21914.44
523.58	21984.65
523.75	21998.70
523.92	22003.38
524.10	21844.22
524.27	22150.83
524.44	22167.21
524.61	22457.44
524.78	22225.73
524.96	22267.86
525.13	22146.15
525.30	22501.91
525.47	22401.27
525.64	22398.93
525.81	22726.60
525.98	22537.02
526.16	22637.66
526.33	22710.22
526.50	22738.30
526.67	22621.28
526.84	22775.75
527.01	22625.96
527.18	22888.10
527.36	22796.82
527.53	23091.73
527.70	23033.21
527.87	23119.81
528.04	23236.84
528.21	22808.52
528.38	22925.55
528.55	23080.02
528.72	23316.42
528.89	23468.55
529.07	23250.88
529.24	23388.97
529.41	23311.74
529.58	23098.75
529.75	23063.64
529.92	23557.49
530.09	23585.58
530.26	23513.02
530.43	23510.68
530.60	23241.52
530.77	23452.17
530.94	23866.44
531.11	23173.64
531.28	23513.02
531.46	23709.63
531.63	23578.56
531.80	23894.53
531.97	24011.56
532.14	23817.29
532.31	23847.72
532.48	24098.16
532.65	24060.71
532.82	23971.77
532.99	24034.96
533.16	24027.94
533.33	24472.64
533.50	24428.17
533.67	24205.82
533.84	24175.39
534.01	24456.26
534.18	24137.94
534.35	24203.48
534.52	24613.07
534.69	24184.76
534.86	24741.80
535.03	24439.87
535.20	24444.56
535.37	24503.07
535.54	24587.33
535.71	24386.04
535.88	24336.89
536.05	24828.40
536.22	24744.14
536.38	24924.36
536.55	24889.26
536.72	24940.75
536.89	25055.43
537.06	24943.09
537.23	25104.59
537.40	24886.92
537.57	24739.46
537.74	25266.08
537.91	25490.77
538.08	24905.64
538.25	25088.20
538.42	25394.81
538.59	25172.46
538.75	24723.08
538.92	25345.66
539.09	25256.72
539.26	25142.03
539.43	25397.15
539.60	25500.14
539.77	25256.72
539.94	25668.66
540.11	25502.48
540.28	25563.33
540.44	25589.08
540.61	25628.87
540.78	25495.46
540.95	25443.96
541.12	25846.54
541.29	25521.20
541.46	25589.08
541.62	25352.68
541.79	25610.14
541.96	25415.88
542.13	25556.31
542.30	25872.28
542.47	26169.53
542.63	26162.51
542.80	26122.72
542.97	26113.36
543.14	26064.21
543.31	26148.46
543.48	25900.37
543.64	26567.42
543.81	26373.16
543.98	26225.70
544.15	26539.33
544.32	26345.07
544.48	26567.42
544.65	26155.49
544.82	26548.70
544.99	25989.31
545.16	26518.27
545.32	26122.72
545.49	26293.58
545.66	26293.58
545.83	26501.89
546.00	26679.77
546.16	26448.05
546.33	26742.96
546.50	26118.04
546.67	26548.70
546.83	26609.55
547.00	26712.53
547.17	26813.18
547.34	26930.20
547.50	26944.25
547.67	27129.15
547.84	27164.26
548.00	27094.04
548.17	26965.31
548.34	27044.89
548.51	27288.31
548.67	27211.07
548.84	27058.93
549.01	26979.36
549.18	27040.21
549.34	26972.33
549.51	27047.23
549.68	27154.90
549.84	27227.45
550.01	27562.15
550.18	27438.10
550.34	27150.21
550.51	27711.94
550.68	27527.04
550.84	27185.32
551.01	27658.11
551.18	27405.33
551.34	27351.50
551.51	27655.77
551.68	26944.25
551.84	27828.97
552.01	27405.33
552.18	27452.14
552.34	27545.76
552.51	27679.18
552.68	27770.46
552.84	27496.61
553.01	28027.92
553.18	27854.72
553.34	28030.26
553.51	27665.13
553.67	27896.85
553.84	28070.04
554.01	27576.19
554.17	27824.29
554.34	27597.26
554.51	27946.00
554.67	27854.72
554.84	28046.64
555.00	28084.09
555.17	27850.03
555.33	28025.57
555.50	27953.02
555.67	28400.06
555.83	28053.66
556.00	27943.66
556.16	28081.75
556.33	28020.89
556.50	28346.23
556.66	28098.13
556.83	28254.95
556.99	28472.62
557.16	28606.03
557.32	28481.98
557.49	28591.98
557.65	28121.54
557.82	27915.57
557.98	28290.06
558.15	28460.91
558.32	28549.85
558.48	28156.64
558.65	28425.81
558.81	28182.39
558.98	28280.69
559.14	28470.28
559.31	28645.82
559.47	28582.62
559.64	28510.07
559.80	28561.56
559.97	28751.14
560.13	28486.66
560.30	29015.62
560.46	28957.11
560.63	28680.92
560.79	28650.50
560.96	28833.06
561.12	28734.76
561.29	28573.26
561.45	28428.15
561.61	28863.49
561.78	28926.68
561.94	28393.04
562.11	28840.08
562.27	29027.32
562.44	28671.56
562.60	28566.24
562.77	28716.03
562.93	28575.60
563.10	29071.79
563.26	28793.27
563.42	29219.25
563.59	29064.77
563.75	28917.32
563.92	28673.90
564.08	28800.29
564.24	28744.12
564.41	28896.25
564.57	28938.38
564.74	29165.42
564.90	28907.96
565.07	28917.32
565.23	28872.85
565.39	29123.29
565.56	29226.27
565.72	29195.84
565.88	29020.30
566.05	28907.96
566.21	29259.04
566.38	28711.35
566.54	29064.77
566.70	29333.93
566.87	29390.11
567.03	29130.31
567.19	29380.74
567.36	29282.44
567.52	29088.18
567.68	29322.23
567.85	28659.86
568.01	29027.32
568.17	29095.20
568.34	29308.19
568.50	29242.65
568.66	29151.37
568.83	29170.10
568.99	29682.67
569.15	28914.98
569.32	29146.69
569.48	29146.69
569.64	29586.71
569.81	29156.05
569.97	29352.66
570.13	29057.75
570.30	29186.48
570.46	29687.36
570.62	29310.53
570.78	29261.38
570.95	28933.70
571.11	29394.79
571.27	28917.32
571.43	29378.40
571.60	29071.79
571.76	28971.15
571.92	29607.78
572.09	29752.89
572.25	29720.12
572.41	29369.04
572.57	29467.34
572.74	29687.36
572.90	29535.22
573.06	29502.45
573.22	29607.78
573.38	29720.12
573.55	29434.58
573.71	29710.76
573.87	29666.29
574.03	29586.71
574.20	29511.81
574.36	29252.02
574.52	29701.40
574.68	29460.32
574.84	29404.15
575.01	29371.38
575.17	29539.90
575.33	29413.51
575.49	29462.66
575.65	29708.42
575.82	29523.52
575.98	29907.37
576.14	29701.40
576.30	29418.19
576.46	29324.57
576.62	29706.08
576.79	29392.45
576.95	29666.29
577.11	29699.06
577.27	29710.76
577.43	29844.17
577.59	29521.18
577.75	29624.16
577.92	29439.26
578.08	29472.03
578.24	29575.01
578.40	29497.77
578.56	29663.95
578.72	30080.56
578.88	29708.42
579.04	30108.65
579.21	29942.47
579.37	29542.24
579.53	30033.75
579.69	29097.54
579.85	29556.28
580.01	29469.69
580.17	29647.57
580.33	29633.52
580.49	29373.72
580.65	29703.74
580.82	29727.14
580.98	29715.44
581.14	29373.72
581.30	29968.22
581.46	29577.35
581.62	29137.33
581.78	29722.46
581.94	29649.91
582.10	29434.58
582.26	29734.17
582.42	30103.97
582.58	29741.19
582.74	29858.21
582.90	29916.73
583.06	30026.73
583.22	29642.88
583.38	29790.34
583.54	29659.27
583.70	29755.23
583.86	29743.53
584.02	29841.83
584.18	29869.92
584.34	29722.46
584.50	29816.08
584.66	29724.80
584.82	29605.44
584.98	30073.54
585.14	29635.86
585.30	29593.73
585.46	29848.85
585.62	29600.76
585.78	29986.94
585.94	29666.29
586.10	29954.18
586.26	29528.20
586.42	30211.64
586.58	30115.67
586.74	29633.52
586.90	29577.35
587.06	29797.36
587.22	30010.35
587.38	29771.61
587.54	29937.79
587.70	30132.06
587.86	29998.65
588.02	29869.92
588.18	30361.43
588.34	29839.49
588.49	30232.70
588.65	29797.36
588.81	30223.34
588.97	29841.83
589.13	29720.12
589.29	29989.28
589.45	29855.87
589.61	30047.80
589.77	30270.15
589.93	30541.65
590.08	30321.64
590.24	30331.00
590.40	29919.07
590.56	30054.82
590.72	29986.94
590.88	30274.83
591.04	30005.67
591.20	30389.52
591.35	30443.35
591.51	30651.66
591.67	30270.15
591.83	30181.21
591.99	30251.42
592.15	30096.95
592.31	30178.87
592.46	29947.15
592.62	29930.77
592.78	30244.40
592.94	29823.11
593.10	30206.95
593.26	30391.86
593.41	30525.27
593.57	29963.54
593.73	30171.85
593.89	30380.15
594.05	30099.29
594.20	30064.18
594.36	29963.54
594.52	30501.86
594.68	30012.69
594.84	30153.12
594.99	30450.37
595.15	29942.47
595.31	30092.27
595.47	30331.00
595.62	30831.88
595.78	30312.28
595.94	30345.05
596.10	30431.65
596.25	30792.09
596.41	29947.15
596.57	30120.35
596.73	30450.37
596.88	30085.25
597.04	30522.93
597.20	30618.89
597.36	30328.66
597.51	30604.84
597.67	30199.93
597.83	30305.26
597.99	30682.08
598.14	30298.23
598.30	30511.22
598.46	29937.79
598.61	30490.16
598.77	30277.17
598.93	30625.91
599.09	30412.92
599.24	30403.56
599.40	30787.41
599.56	30752.30
599.71	30422.28
599.87	30370.79
600.03	30441.01
600.18	30293.55
600.34	30401.22
600.50	30345.05
600.65	30354.41
600.81	30639.95
600.97	30857.62
601.12	30801.45
601.28	30597.82
601.44	30300.58
601.59	30581.44
601.75	30223.34
601.91	30604.84
602.06	30026.73
602.22	30595.48
602.37	30455.05
602.53	30508.88
602.69	30672.72
602.84	30438.67
603.00	30373.13
603.16	30340.36
603.31	30281.85
603.47	30068.86
603.62	30349.73
603.78	30148.44
603.94	30415.26
604.09	30302.92
604.25	30433.99
604.40	30581.44
604.56	30630.59
604.71	30480.80
604.87	30419.94
605.03	30675.06
605.18	30139.08
605.34	30628.25
605.49	30237.38
605.65	30160.14
605.80	29720.12
605.96	30031.41
606.12	30075.88
606.27	30539.31
606.43	30333.34
606.58	30354.41
606.74	30382.49
606.89	30363.77
607.05	30866.98
607.20	30464.41
607.36	30562.72
607.51	30314.62
607.67	30139.08
607.82	29778.64
607.98	30274.83
608.13	30078.22
608.29	30300.58
608.44	30045.46
608.60	30080.56
608.75	30148.44
608.91	30316.96
609.06	30387.18
609.22	30192.91
609.37	30139.08
609.53	30052.48
609.68	30061.84
609.84	30078.22
609.99	30026.73
610.15	29972.90
610.30	30043.12
610.46	29879.28
610.61	29883.96
610.76	30019.71
610.92	30024.39
611.07	30038.44
611.23	29809.06
611.38	29949.50
611.54	29654.59
611.69	29537.56
611.84	29923.75
612.00	29858.21
612.15	30015.03
612.31	30043.12
612.46	29738.85
612.62	29979.92
612.77	30148.44
612.92	30015.03
613.08	30059.50
613.23	29944.81
613.39	29699.06
613.54	29677.99
613.69	30008.01
613.85	29642.88
614.00	29783.32
614.15	29776.30
614.31	29699.06
614.46	30143.76
614.62	29869.92
614.77	29986.94
614.92	29418.19
615.08	29493.09
615.23	29797.36
615.38	29656.93
615.54	29165.42
615.69	29575.01
615.84	29638.20
616.00	29593.73
616.15	29567.99
616.30	29862.90
616.46	29614.80
616.61	29797.36
616.76	30087.59
616.92	29441.60
617.07	29497.77
617.22	29397.13
617.37	29500.11
617.53	29839.49
617.68	29586.71
617.83	29223.93
617.99	29303.51
618.14	29743.53
618.29	29223.93
618.45	29479.05
618.60	29226.27
618.75	29479.05
618.90	29081.16
619.06	29209.89
619.21	29542.24
619.36	29331.59
619.51	29448.62
619.67	28819.02
619.82	28931.36
619.97	29315.21
620.12	29242.65
620.28	28910.30
620.43	29350.32
620.58	29457.98
620.73	29266.06
620.89	29479.05
621.04	29275.42
621.19	29406.49
621.34	29167.76
621.49	28945.41
621.65	29055.41
621.80	29163.08
621.95	28989.88
622.10	29287.12
622.25	29165.42
622.41	28870.51
622.56	29198.18
622.71	29048.39
622.86	28893.91
623.01	28734.76
623.16	29067.11
623.32	28503.04
623.47	29289.46
623.62	28575.60
623.77	28809.65
623.92	28961.79
624.07	28582.62
624.23	28788.59
624.38	28943.06
624.53	29055.41
624.68	29188.82
624.83	28741.78
624.98	28954.77
625.13	28936.04
625.29	28732.42
625.44	28889.23
625.59	28570.92
625.74	28453.89
625.89	28407.08
626.04	28329.84
626.19	28622.41
626.34	28411.76
626.49	28393.04
626.65	28402.40
626.80	28479.64
626.95	28760.50
627.10	28891.57
627.25	28699.65
627.40	28397.72
627.55	28201.11
627.70	28240.90
627.85	27978.76
628.00	28446.87
628.15	28191.75
628.30	28329.84
628.45	28161.33
628.60	28149.62
628.76	28453.89
628.91	28247.93
629.06	28474.96
629.21	28648.16
629.36	28645.82
629.51	28166.01
629.66	27812.59
629.81	27941.32
629.96	28044.30
630.11	28386.02
630.26	28259.63
630.41	28341.55
630.56	27711.94
630.71	28044.30
630.86	27873.44
631.01	28189.41
631.16	28126.22
631.31	27960.04
631.46	27765.78
631.61	28086.43
631.76	28173.03
631.91	27613.64
632.06	27861.74
632.21	28112.17
632.36	28053.66
632.51	27557.47
632.66	27967.06
632.81	27988.13
632.96	27978.76
633.10	28039.62
633.25	28091.11
633.40	27845.35
633.55	27892.16
633.70	27744.71
633.85	27517.68
634.00	27531.72
634.15	27562.15
634.30	27707.26
634.45	27716.62
634.60	27592.58
634.75	27520.02
634.90	27480.23
635.05	27676.83
635.19	27431.08
635.34	27922.59
635.49	27754.07
635.64	27714.28
635.79	27510.66
635.94	27585.55
636.09	27491.93
636.24	27056.59
636.39	27056.59
636.53	27557.47
636.68	27520.02
636.83	27599.60
636.98	27576.19
637.13	27180.64
637.28	27608.96
637.43	27524.70
637.57	27311.71
637.72	27311.71
637.87	27328.10
638.02	27164.26
638.17	27267.24
638.32	27126.81
638.46	27166.60
638.61	26977.01
638.76	26487.84
638.91	26925.52
639.06	26815.52
639.20	27285.97
639.35	27129.15
639.50	27175.96
639.65	27370.22
639.80	27234.47
639.94	26764.03
640.09	26967.65
640.24	27199.37
640.39	26902.12
640.54	27047.23
640.68	26831.90
640.83	27075.32
640.98	26466.78
641.13	26794.45
641.27	27005.10
641.42	26604.87
641.57	26831.90
641.72	26946.59
641.86	26534.65
642.01	26857.65
642.16	26930.20
642.31	26651.68
642.45	26635.30
642.60	26590.83
642.75	26331.03
642.90	26841.26
643.04	26244.43
643.19	26600.19
643.34	26897.44
643.48	26370.82
643.63	26665.72
643.78	26464.44
643.93	26562.74
644.07	26843.60
644.22	26478.48
644.37	26588.49
644.51	26628.27
644.66	26359.11
644.81	26176.55
644.95	26277.19
645.10	26202.30
645.25	26345.07
645.39	26333.37
645.54	26251.45
645.69	26387.20
645.83	26328.69
645.98	26347.41
646.13	26698.49
646.27	26068.89
646.42	26544.02
646.57	26005.69
646.71	26031.44
646.86	26384.86
647.00	26230.38
647.15	26419.97
647.30	25823.13
647.44	26347.41
647.59	26082.93
647.74	26031.44
647.88	25874.62
648.03	26331.03
648.17	26347.41
648.32	26331.03
648.47	26174.21
648.61	25851.22
648.76	26338.05
648.90	26162.51
649.05	26178.89
649.20	25963.56
649.34	25916.75
649.49	26005.69
649.63	25757.60
649.78	25584.40
649.92	25795.04
650.07	26054.84
650.21	25776.32
650.36	25993.99
650.51	25572.69
650.65	25954.20
650.80	25830.15
650.94	25727.17
651.09	26017.40
651.23	25607.80
651.38	25717.81
651.52	25921.43
651.67	25745.89
651.81	25809.09
651.96	25771.64
652.10	25745.89
652.25	25678.02
652.39	25673.34
652.54	25736.53
652.68	25703.76
652.83	25717.81
652.97	25682.70
653.12	25633.55
653.26	25268.42
653.41	25322.26
653.55	25429.92
653.70	25481.41
653.84	25242.68
653.99	25376.09
654.13	25551.63
654.27	25504.82
654.42	25605.46
654.56	25448.64
654.71	25565.67
654.85	25205.23
655.00	25493.12
655.14	25319.92
655.29	25493.12
655.43	25495.46
655.57	25083.52
655.72	25359.70
655.86	25259.06
656.01	25263.74
656.15	25240.34
656.30	24814.36
656.44	25151.40
656.58	25097.56
656.73	24959.47
656.87	25401.83
657.01	24943.09
657.16	25565.67
657.30	25256.72
657.45	25036.71
657.59	25078.84
657.73	24889.26
657.88	24783.93
658.02	24971.18
658.16	25006.28
658.31	25142.03
658.45	24702.01
658.60	24383.70
658.74	24706.70
658.88	24861.17
659.03	24879.89
659.17	24580.31
659.31	24732.44
659.46	24634.14
659.60	24819.04
659.74	24648.18
659.89	24484.34
660.03	24299.44
660.17	24629.46
660.32	24833.08
660.46	24339.23
660.60	24107.52
660.74	24175.39
660.89	24533.50
661.03	24037.30
661.17	24444.56
661.32	24269.01
661.46	24439.87
661.60	24278.38
661.74	24386.04
661.89	24470.30
662.03	24364.98
662.17	24187.10
662.31	23747.08
662.46	23988.15
662.60	23894.53
662.74	24053.69
662.88	23789.20
663.03	23922.62
663.17	23789.20
663.31	23730.69
663.45	24137.94
663.60	23728.35
663.74	23583.24
663.88	23953.04
664.02	23517.70
664.17	23625.37
664.31	23480.25
664.45	23803.25
664.59	23538.77
664.73	23520.04
664.88	23285.99
665.02	23318.76
665.16	23077.68
665.30	23234.50
665.44	23110.45
665.59	23084.70
665.73	23534.09
665.87	23171.30
666.01	23080.02
666.15	23431.10
666.29	23517.70
666.44	23166.62
666.58	23009.81
666.72	22953.63
666.86	23363.23
667.00	22768.73
667.14	23082.36
667.28	23014.49
667.43	22878.74
667.57	22768.73
667.71	22841.29
667.85	23154.92
667.99	22679.79
668.13	22778.09
668.27	22726.60
668.41	23028.53
668.56	22661.07
668.70	22955.97
668.84	23037.89
668.98	22492.55
669.12	22448.08
669.26	22771.07
669.40	22621.28
669.54	22597.87
669.68	22345.09
669.82	22291.26
669.96	22445.74
670.10	22108.70
670.25	22459.78
670.39	22302.96
670.53	22265.52
670.67	22031.46
670.81	22478.50
670.95	22211.68
671.09	22085.30
671.23	22256.15
671.37	22218.71
671.51	22209.34
671.65	22354.46
671.79	22010.40
671.93	21511.86
672.07	21944.86
672.21	21830.18
672.35	21757.62
672.49	21411.22
672.63	21546.97
672.77	21429.94
672.91	21376.11
673.05	21153.76
673.19	21348.03
673.33	21383.13
673.47	21135.04
673.61	21717.83
673.75	21160.78
673.89	21359.73
674.03	21432.29
674.17	21078.86
674.31	21092.91
674.45	21322.28
674.59	21025.03
674.73	21088.23
674.87	21083.55
675.01	21032.05
675.15	20638.84
675.29	20910.35
675.43	20912.69
675.56	20746.51
675.70	20924.39
675.84	20629.48
675.98	20203.50
676.12	20465.64
676.26	20917.37
676.40	20657.57
676.54	20690.34
676.68	20741.83
676.82	20049.03
676.96	20081.80
677.10	20350.96
677.23	20374.36
677.37	20369.68
677.51	20149.67
677.65	19901.58
677.79	19878.17
677.93	19936.68
678.07	19484.96
678.21	19365.59
678.34	19737.74
678.48	19414.74
678.62	19515.39
678.76	19480.28
678.90	19276.65
679.04	19665.18
679.18	19496.66
679.31	19150.26
679.45	19293.04
679.59	19108.13
679.73	18824.93
679.87	18752.37
680.00	18995.79
680.14	18721.95
680.28	18801.52
680.42	18979.40
680.56	18871.74
680.70	18974.72
680.83	19073.03
680.97	18466.83
681.11	18733.65
681.25	18677.48
681.39	18630.66
681.52	18307.67
681.66	18450.44
681.80	18609.60
681.94	18375.55
682.07	18333.42
682.21	18307.67
682.35	18305.33
682.49	18176.60
682.62	17902.76
682.76	17909.78
682.90	18024.47
683.04	17987.02
683.17	17816.16
683.31	17937.87
683.45	17818.50
683.59	17762.33
683.72	17348.05
683.86	17727.22
684.00	17465.08
684.13	17179.53
684.27	17319.96
684.41	17537.63
684.55	17118.68
684.68	16971.22
684.82	17074.21
684.96	17207.62
685.09	16910.37
685.23	17043.78
685.37	16987.61
685.50	17081.23
685.64	17050.80
685.78	16868.24
685.91	17118.68
686.05	17041.44
686.19	16585.04
686.32	16826.11
686.46	16666.95
686.60	16208.21
686.73	16582.70
686.87	16341.62
687.01	16685.68
687.14	16245.66
687.28	16177.78
687.42	16212.89
687.55	15929.69
687.69	15932.03
687.82	16013.95
687.96	16266.72
688.10	15913.30
688.23	16067.78
688.37	15901.60
688.50	16154.38
688.64	15936.71
688.78	15782.23
688.91	15857.13
689.05	15599.67
689.18	15527.11
689.32	15229.87
689.46	15410.09
689.59	15119.86
689.73	15325.83
689.86	15510.73
690.00	14995.81
690.13	15136.24
690.27	15225.18
690.41	14984.11
690.54	15068.37
690.68	15225.18
690.81	15126.88
690.95	15014.54
691.08	14846.02
691.22	14944.32
691.35	14656.43
691.49	14743.03
691.62	14736.01
691.76	14525.36
691.89	14469.19
692.03	14251.52
692.16	14211.73
692.30	14160.24
692.43	14288.97
692.57	14061.94
692.70	14197.69
692.84	14115.77
692.97	14024.49
693.11	13937.89
693.24	14010.45
693.38	13982.36
693.51	13874.70
693.65	13900.44
693.78	13870.01
693.92	13727.24
694.05	13743.63
694.19	13486.17
694.32	13605.53
694.45	13661.71
694.59	13317.65
694.72	13097.64
694.86	13074.23
694.99	13022.74
695.13	13310.63
695.26	13165.51
695.39	13067.21
695.53	13167.85
695.66	13137.43
695.80	13013.38
695.93	12870.61
696.07	12882.31
696.20	12992.31
696.33	12835.50
696.47	13004.02
696.60	12727.83
696.73	12641.23
696.87	12720.81
697.00	12556.97
697.14	12449.31
697.27	12346.33
697.40	12264.41
697.54	12210.57
697.67	12439.95
697.80	12079.50
697.94	12301.86
698.07	11918.01
698.21	11946.09
698.34	12191.85
698.47	12093.55
698.61	12093.55
698.74	11932.05
698.87	12154.40
699.01	11932.05
699.14	11719.06
699.27	11580.97
699.40	11702.68
699.54	11646.51
699.67	11838.43
699.80	11569.27
699.94	11272.02
700.07	11459.26
700.20	11199.46
700.34	11206.48
700.47	11339.90
700.60	11360.96
700.73	11241.59
700.87	11047.33
701.00	11052.01
701.13	10993.50
701.26	11037.97
701.40	11307.13
701.53	10937.32
701.66	10759.44
701.79	10902.22
701.93	10789.87
702.06	10590.92
702.19	10511.35
702.32	10682.20
702.46	10441.13
702.59	10527.73
702.72	10457.51
702.85	10267.93
702.99	10518.37
703.12	10443.47
703.25	10225.80
703.38	10321.76
703.51	10178.99
703.65	10356.87
703.78	10239.84
703.91	10237.50
704.04	10214.10
704.17	9954.30
704.31	9973.02
704.44	10052.60
704.57	9914.51
704.70	9640.67
704.83	9743.65
704.96	9767.06
705.10	9598.54
705.23	9540.02
>>>>>End Processed Spectral Data<<<<<
