SpectraSuite Data File
++++++++++++++++++++++++++++++++++++
Date: Fri Oct 18 13:58:28 GMT-05:00 2013
User: bianchi
Dark Spectrum Present: No
Reference Spectrum Present: No
Number of Sampled Component Spectra: 1
Spectrometers: USB2+H05261
Integration Time (usec): 50000 (USB2+H05261)
Spectra Averaged: 1 (USB2+H05261)
Boxcar Smoothing: 0 (USB2+H05261)
Correct for Electrical Dark: No (USB2+H05261)
Strobe/Lamp Enabled: No (USB2+H05261)
Correct for Detector Non-linearity: No (USB2+H05261)
Correct for Stray Light: No (USB2+H05261)
Number of Pixels in Processed Spectrum: 2048
>>>>>Begin Processed Spectral Data<<<<<
365.73	0.00
365.92	0.00
366.12	0.00
366.32	0.00
366.52	0.00
366.72	0.00
366.91	0.00
367.11	0.00
367.31	0.00
367.51	0.00
367.70	0.00
367.90	0.00
368.10	0.00
368.30	0.00
368.49	0.00
368.69	0.00
368.89	0.00
369.09	0.00
369.28	0.00
369.48	0.00
369.68	0.00
369.87	0.00
370.07	0.00
370.27	0.00
370.47	0.00
370.66	0.00
370.86	133.41
371.06	142.77
371.25	184.90
371.45	161.50
371.65	117.03
371.84	112.35
372.04	163.84
372.24	252.78
372.44	191.92
372.63	255.12
372.83	229.37
373.03	208.31
373.22	208.31
373.42	220.01
373.62	238.73
373.81	262.14
374.01	245.76
374.21	262.14
374.40	259.80
374.60	269.16
374.79	276.18
374.99	187.24
375.19	276.18
375.38	278.52
375.58	294.91
375.78	301.93
375.97	245.76
376.17	264.48
376.37	332.36
376.56	325.33
376.76	220.01
376.95	280.86
377.15	259.80
377.35	311.29
377.54	355.76
377.74	252.78
377.93	250.44
378.13	266.82
378.33	294.91
378.52	264.48
378.72	257.46
378.91	287.89
379.11	287.89
379.31	290.23
379.50	362.78
379.70	262.14
379.89	308.95
380.09	266.82
380.28	227.03
380.48	341.72
380.68	341.72
380.87	231.71
381.07	269.16
381.26	346.40
381.46	358.10
381.65	269.16
381.85	308.95
382.04	301.93
382.24	285.55
382.43	428.32
382.63	435.34
382.83	306.61
383.02	395.55
383.22	322.99
383.41	358.10
383.61	414.27
383.80	388.53
384.00	372.15
384.19	365.12
384.39	311.29
384.58	322.99
384.78	365.12
384.97	334.70
385.17	404.91
385.36	383.85
385.56	416.62
385.75	320.65
385.95	365.12
386.14	393.21
386.34	351.08
386.53	440.02
386.72	451.72
386.92	388.53
387.11	440.02
387.31	397.89
387.50	402.57
387.70	381.51
387.89	418.96
388.09	463.43
388.28	456.40
388.48	463.43
388.67	400.23
388.86	470.45
389.06	428.32
389.25	458.74
389.45	493.85
389.64	402.57
389.84	465.77
390.03	454.06
390.22	496.19
390.42	470.45
390.61	365.12
390.81	449.38
391.00	407.25
391.19	554.71
391.39	540.66
391.58	470.45
391.78	489.17
391.97	482.15
392.16	486.83
392.36	533.64
392.55	517.26
392.75	526.62
392.94	610.88
393.13	557.05
393.33	538.32
393.52	587.47
393.71	638.97
393.91	627.26
394.10	512.58
394.29	608.54
394.49	589.82
394.68	557.05
394.88	641.31
395.07	559.39
395.26	547.69
395.46	550.03
395.65	620.24
395.84	641.31
396.04	629.60
396.23	550.03
396.42	657.69
396.62	638.97
396.81	571.09
397.00	657.69
397.19	690.46
397.39	690.46
397.58	674.07
397.77	688.12
397.97	720.88
398.16	725.57
398.35	702.16
398.55	603.86
398.74	755.99
398.93	758.33
399.12	741.95
399.32	746.63
399.51	746.63
399.70	816.85
399.90	713.86
400.09	751.31
400.28	849.61
400.47	744.29
400.67	748.97
400.86	744.29
401.05	727.91
401.24	798.12
401.44	884.72
401.63	753.65
401.82	812.17
402.01	795.78
402.21	791.10
402.40	809.83
402.59	826.21
402.78	763.01
402.97	875.36
403.17	765.36
403.36	873.02
403.55	823.87
403.74	933.87
403.93	844.93
404.13	875.36
404.32	929.19
404.51	954.94
404.70	891.74
404.89	938.55
405.09	966.64
405.28	1015.79
405.47	987.71
405.66	894.08
405.85	938.55
406.05	905.79
406.24	931.53
406.43	968.98
406.62	961.96
406.81	1104.73
407.00	954.94
407.20	978.34
407.39	990.05
407.58	994.73
407.77	1053.24
407.96	1071.97
408.15	1078.99
408.34	1034.52
408.54	1025.15
408.73	1125.80
408.92	1081.33
409.11	1210.06
409.30	1114.10
409.49	1076.65
409.68	1067.28
409.87	1125.80
410.07	1219.42
410.26	1123.46
410.45	1207.72
410.64	1245.16
410.83	1196.01
411.02	1193.67
411.21	1207.72
411.40	1280.27
411.59	1203.04
411.78	1231.12
411.98	1235.80
412.17	1273.25
412.36	1341.13
412.55	1430.07
412.74	1373.89
412.93	1455.81
413.12	1306.02
413.31	1423.05
413.50	1369.21
413.69	1413.68
413.88	1291.98
414.07	1427.73
414.26	1397.30
414.45	1474.54
414.64	1425.39
414.83	1565.82
415.02	1521.35
415.22	1472.20
415.41	1502.62
415.60	1544.75
415.79	1537.73
415.98	1575.18
416.17	1631.35
416.36	1657.10
416.55	1617.31
416.74	1584.54
416.93	1596.25
417.12	1668.80
417.31	1584.54
417.50	1607.95
417.69	1682.85
417.88	1626.67
418.07	1675.82
418.26	1715.61
418.45	1741.36
418.64	1795.19
418.83	1816.26
419.02	1778.81
419.21	1757.74
419.39	1842.00
419.58	1816.26
419.77	1856.04
419.96	1825.62
420.15	1811.57
420.34	1874.77
420.53	1834.98
420.72	1853.70
420.91	1937.96
421.10	1991.80
421.29	2031.58
421.48	1872.43
421.67	1909.88
421.86	1959.03
422.05	1977.75
422.24	1975.41
422.43	1928.60
422.61	1982.43
422.80	2076.06
422.99	1944.99
423.18	1980.09
423.37	2017.54
423.56	2029.24
423.75	1975.41
423.94	1888.81
424.13	1785.83
424.32	1832.64
424.50	2043.29
424.69	2146.27
424.88	2076.06
425.07	1813.92
425.26	2120.53
425.45	2169.68
425.64	2165.00
425.83	1916.90
426.01	1987.11
426.20	2052.65
426.39	2050.31
426.58	2118.18
426.77	2026.90
426.96	2108.82
427.15	1980.09
427.33	2150.95
427.52	2172.02
427.71	2139.25
427.90	2083.08
428.09	2085.42
428.28	2148.61
428.46	2160.31
428.65	2251.60
428.84	2275.00
429.03	2249.25
429.22	2167.34
429.40	2179.04
429.59	2265.64
429.78	2148.61
429.97	2129.89
430.16	2204.78
430.34	2275.00
430.53	2291.38
430.72	2338.20
430.91	2279.68
431.10	2368.62
431.28	2373.30
431.47	2312.45
431.66	2490.33
431.85	2413.09
432.03	2377.98
432.22	2359.26
432.41	2436.50
432.60	2406.07
432.79	2464.58
432.97	2448.20
433.16	2408.41
433.35	2387.35
433.54	2455.22
433.72	2487.99
433.91	2473.95
434.10	2417.77
434.28	2424.80
434.47	2525.44
434.66	2553.52
434.85	2495.01
435.03	2569.91
435.22	2476.29
435.41	2649.49
435.59	2551.18
435.78	2672.89
435.97	2635.44
436.16	2593.31
436.34	2623.74
436.53	2682.25
436.72	2686.94
436.90	2628.42
437.09	2759.49
437.28	2530.12
437.46	2724.38
437.65	2778.22
437.84	2782.90
438.02	2848.43
438.21	2689.28
438.40	2693.96
438.58	2846.09
438.77	2871.84
438.96	2944.39
439.14	2946.73
439.33	2981.84
439.52	2942.05
439.70	2944.39
439.89	3047.38
440.08	3035.67
440.26	3042.70
440.45	3080.14
440.63	2986.52
440.82	3143.34
441.01	3030.99
441.19	3159.72
441.38	3124.62
441.57	3213.56
441.75	3253.34
441.94	3304.84
442.12	3274.41
442.31	3129.30
442.50	3185.47
442.68	3304.84
442.87	3197.17
443.05	3122.27
443.24	3241.64
443.43	3377.39
443.61	3426.54
443.80	3342.28
443.98	3255.69
444.17	3243.98
444.35	3419.52
444.54	3503.78
444.73	3403.14
444.91	3478.04
445.10	3368.03
445.28	3478.04
445.47	3459.31
445.65	3471.01
445.84	3318.88
446.02	3405.48
446.21	3442.93
446.39	3377.39
446.58	3569.32
446.77	3485.06
446.95	3346.97
447.14	3513.14
447.32	3634.85
447.51	3398.46
447.69	3471.01
447.88	3517.83
448.06	3358.67
448.25	3335.26
448.43	3433.57
448.62	3489.74
448.80	3471.01
448.99	3538.89
449.17	3552.93
449.36	3506.12
449.54	3625.49
449.73	3768.26
449.91	3639.53
450.10	3751.88
450.28	3772.94
450.46	3791.67
450.65	3836.14
450.83	3810.39
451.02	3749.54
451.20	3714.43
451.39	3747.20
451.57	3824.44
451.76	3761.24
451.94	3784.65
452.13	3698.05
452.31	3822.09
452.49	3667.62
452.68	3974.23
452.86	3875.93
453.05	3971.89
453.23	4063.17
453.42	3761.24
453.60	3794.01
453.78	3831.46
453.97	3775.28
454.15	3946.14
454.34	3815.07
454.52	3882.95
454.70	3808.05
454.89	3925.08
455.07	4030.40
455.26	4025.72
455.44	4037.42
455.62	4035.08
455.81	4009.34
455.99	3988.27
456.17	4063.17
456.36	4072.53
456.54	4187.22
456.73	4248.07
456.91	4278.50
457.09	4311.27
457.28	4329.99
457.46	4301.90
457.64	4395.53
457.83	4278.50
458.01	4217.65
458.19	4306.59
458.38	4386.16
458.56	4425.95
458.74	4351.06
458.93	4308.93
459.11	4360.42
459.29	4568.73
459.48	4493.83
459.66	4430.63
459.84	4409.57
460.03	4432.97
460.21	4411.91
460.39	4418.93
460.57	4386.16
460.76	4493.83
460.94	4479.79
461.12	4624.90
461.31	4634.26
461.49	4669.37
461.67	4634.26
461.85	4606.17
462.04	4592.13
462.22	4760.65
462.40	4812.14
462.59	4748.95
462.77	4746.61
462.95	4772.35
463.13	4821.50
463.32	4805.12
463.50	4983.00
463.68	4891.72
463.86	4985.34
464.05	4683.41
464.23	4800.44
464.41	4800.44
464.59	4753.63
464.78	4947.89
464.96	4753.63
465.14	4842.57
465.32	4997.04
465.50	5144.50
465.69	4947.89
465.87	4957.25
466.05	4978.32
466.23	4828.53
466.41	4947.89
466.60	5060.24
466.78	4943.21
466.96	5069.60
467.14	5043.85
467.32	5128.11
467.51	5128.11
467.69	5013.43
467.87	5165.56
468.05	5156.20
468.23	4936.19
468.41	5015.77
468.60	5011.09
468.78	5221.74
468.96	5163.22
469.14	5195.99
469.32	5401.96
469.50	5341.10
469.69	5369.19
469.87	5383.23
470.05	5284.93
470.23	5298.97
470.41	5317.70
470.59	5380.89
470.77	5397.28
470.95	5511.96
471.14	5479.19
471.32	5490.90
471.50	5593.88
471.68	5476.85
471.86	5631.33
472.04	5708.57
472.22	5755.38
472.40	5610.26
472.58	5703.89
472.77	5748.36
472.95	5741.33
473.13	5961.34
473.31	5696.86
473.49	5785.80
473.67	5877.09
473.85	5769.42
474.03	5994.11
474.21	6012.84
474.39	5930.92
474.57	6019.86
474.75	5898.15
474.93	5996.45
475.12	6127.52
475.30	6303.06
475.48	6090.07
475.66	6211.78
475.84	6143.91
476.02	6242.21
476.20	6267.95
476.38	6293.70
476.56	6424.77
476.74	6679.89
476.92	6417.75
477.10	6328.81
477.28	6623.72
477.46	6548.82
477.64	6565.20
477.82	6534.78
478.00	6846.07
478.18	6729.04
478.36	6937.35
478.54	6993.52
478.72	7084.80
478.90	7012.24
479.08	7157.36
479.26	7023.95
479.44	7133.95
479.62	7185.44
479.80	7339.92
479.98	7276.73
480.16	7564.61
480.34	7339.92
480.52	7447.58
480.70	7508.44
480.88	7494.40
481.06	7660.57
481.24	7655.89
481.41	7667.60
481.59	7836.11
481.77	7852.50
481.95	7810.37
482.13	7960.16
482.31	7967.18
482.49	8088.89
482.67	8189.53
482.85	8320.60
483.03	8250.39
483.21	8344.01
483.39	8517.21
483.57	8292.52
483.74	8683.39
483.92	8704.45
484.10	8594.45
484.28	8868.29
484.46	8879.99
484.64	9121.07
484.82	8828.50
485.00	8821.48
485.18	9282.56
485.35	9329.38
485.53	9090.64
485.71	9341.08
485.89	9320.01
486.07	9444.06
486.25	9392.57
486.43	9589.17
486.61	9846.63
486.78	9781.10
486.96	10064.30
487.14	9888.76
487.32	9846.63
487.50	10083.03
487.68	9968.34
487.85	10408.36
488.03	10354.53
488.21	10413.04
488.39	10604.97
488.57	10443.47
488.75	10637.73
488.92	10778.17
489.10	11002.86
489.28	10848.38
489.46	10920.94
489.64	11052.01
489.81	11311.81
489.99	11056.69
490.17	11108.18
490.35	11367.98
490.53	11480.33
490.70	11332.87
490.88	11538.84
491.06	11632.46
491.24	11707.36
491.41	11651.19
491.59	11988.22
491.77	11740.13
491.95	12002.27
492.13	12133.34
492.30	12016.31
492.48	12285.47
492.66	12208.23
492.84	12416.54
493.01	12292.49
493.19	12367.39
493.37	12784.01
493.54	12823.80
493.72	12510.16
493.90	12835.50
494.08	12809.75
494.25	12968.91
494.43	13090.62
494.61	13238.07
494.79	13006.36
494.96	13111.68
495.14	13369.14
495.32	13511.91
495.49	13420.63
495.67	13724.90
495.85	13626.60
496.02	13919.17
496.20	13614.90
496.38	13970.66
496.55	13565.74
496.73	14040.87
496.91	14286.63
497.09	14237.48
497.26	14087.68
497.44	14370.89
497.62	14178.97
497.79	14480.89
497.97	14253.86
498.14	14595.58
498.32	14628.35
498.50	14829.63
498.67	15143.27
498.85	14951.34
499.03	14902.19
499.20	14979.43
499.38	14810.91
499.56	15140.93
499.73	15428.81
499.91	15225.18
500.08	15140.93
500.26	15225.18
500.44	15279.02
500.61	15201.78
500.79	15073.05
500.97	15335.19
501.14	15948.41
501.32	15501.37
501.49	15812.66
501.67	15609.03
501.84	15847.77
502.02	15658.18
502.20	15906.28
502.37	16086.50
502.55	16011.60
502.72	16180.12
502.90	16011.60
503.07	15777.55
503.25	16397.79
503.43	15796.28
503.60	16170.76
503.78	16145.02
503.95	16615.46
504.13	16503.12
504.30	16491.41
504.48	16589.72
504.65	16428.22
504.83	16762.92
505.01	16725.47
505.18	16929.09
505.36	16730.15
505.53	16697.38
505.71	16929.09
505.88	16837.81
506.06	17032.08
506.23	17319.96
506.41	17310.60
506.58	17465.08
506.76	17245.07
506.93	17287.20
507.11	17315.28
507.28	17322.30
507.46	17383.16
507.63	17504.87
507.81	17612.53
507.98	17551.68
508.16	17263.79
508.33	17694.45
508.50	17666.36
508.68	17858.29
508.85	17771.69
509.03	17895.74
509.20	18171.92
509.38	18129.79
509.55	18141.49
509.73	18366.18
509.90	18401.29
510.08	18024.47
510.25	18288.95
510.42	18307.67
510.60	18633.00
510.77	18693.86
510.95	18541.72
511.12	18443.42
511.30	18579.17
511.47	18588.53
511.64	18764.07
511.82	18850.67
511.99	18967.70
512.17	19037.92
512.34	19068.34
512.51	19014.51
512.69	18925.57
512.86	19073.03
513.04	19337.51
513.21	19339.85
513.38	19328.14
513.56	19328.14
513.73	19295.38
513.90	19433.47
514.08	19044.94
514.25	19367.93
514.43	19796.25
514.60	19733.06
514.77	19562.20
514.95	19838.38
515.12	19592.62
515.29	19894.55
515.47	19810.29
515.64	19894.55
515.81	19861.79
515.99	19917.96
516.16	20271.38
516.33	20236.27
516.51	20152.01
516.68	19796.25
516.85	20144.99
517.03	20173.08
517.20	20149.67
517.37	20255.00
517.54	20680.97
517.72	20348.62
517.89	20219.89
518.06	20601.40
518.24	20655.23
518.41	20652.89
518.58	20556.93
518.75	20343.94
518.93	20739.49
519.10	20842.47
519.27	20608.42
519.45	20538.20
519.62	20730.12
519.79	20865.88
519.96	20945.45
520.14	20767.57
520.31	20795.66
520.48	21195.89
520.65	21177.17
520.83	21415.90
521.00	21195.89
521.17	20978.22
521.34	21216.96
521.52	21326.96
521.69	21308.24
521.86	21591.44
522.03	21266.11
522.20	21413.56
522.38	21736.56
522.55	21521.23
522.72	21474.42
522.89	21570.38
523.07	22108.70
523.24	21729.53
523.41	22075.93
523.58	21954.22
523.75	22183.60
523.92	21785.71
524.10	21500.16
524.27	21778.68
524.44	21968.27
524.61	22263.18
524.78	22302.96
524.96	22246.79
525.13	22532.34
525.30	22017.42
525.47	22260.84
525.64	22258.49
525.81	22654.05
525.98	22384.88
526.16	22558.08
526.33	22597.87
526.50	22794.48
526.67	22281.90
526.84	22640.00
527.01	22398.93
527.18	22576.81
527.36	22810.86
527.53	23009.81
527.70	22764.05
527.87	22815.54
528.04	23157.26
528.21	22972.36
528.38	22930.23
528.55	22867.03
528.72	23211.09
528.89	23255.56
529.07	23517.70
529.24	23021.51
529.41	23587.92
529.58	23393.65
529.75	23538.77
529.92	23466.21
530.09	23253.22
530.26	23435.78
530.43	23969.43
530.60	23412.38
530.77	23571.54
530.94	23651.11
531.11	23452.17
531.28	23555.15
531.46	23789.20
531.63	23772.82
531.80	23716.65
531.97	23714.31
532.14	24053.69
532.31	23948.36
532.48	24034.96
532.65	23969.43
532.82	23833.68
532.99	23927.30
533.16	23976.45
533.33	23978.79
533.50	24273.70
533.67	24369.66
533.84	24250.29
534.01	24023.26
534.18	24308.80
534.35	24489.03
534.52	24645.84
534.69	24474.98
534.86	24514.77
535.03	24189.44
535.20	24692.65
535.37	24561.58
535.54	24673.93
535.71	24201.14
535.88	24627.12
536.05	24627.12
536.22	24746.48
536.38	24503.07
536.55	24893.94
536.72	24748.82
536.89	24610.73
537.06	24652.86
537.23	24746.48
537.40	24631.80
537.57	25027.35
537.74	24685.63
537.91	25144.38
538.08	25270.76
538.25	24933.73
538.42	24891.60
538.59	25083.52
538.75	24987.56
538.92	25247.36
539.09	25214.59
539.26	25184.16
539.43	25179.48
539.60	25357.36
539.77	25179.48
539.94	25348.00
540.11	25373.75
540.28	25270.76
540.44	25518.86
540.61	25025.01
540.78	25369.07
540.95	25809.09
541.12	25191.19
541.29	25600.78
541.46	25626.53
541.62	25158.42
541.79	25500.14
541.96	25010.96
542.13	25420.56
542.30	25834.83
542.47	25748.23
542.63	25624.18
542.80	25832.49
542.97	26064.21
543.14	26211.66
543.31	25844.20
543.48	25830.15
543.64	26513.59
543.81	26670.40
543.98	26410.60
544.15	26452.73
544.32	26345.07
544.48	26239.75
544.65	26031.44
544.82	26146.12
544.99	26167.19
545.16	26485.50
545.32	26462.10
545.49	26602.53
545.66	26441.03
545.83	26749.98
546.00	26546.36
546.16	26445.71
546.33	26551.04
546.50	25944.84
546.67	26534.65
546.83	26443.37
547.00	26796.79
547.17	26670.40
547.34	26412.95
547.50	27009.78
547.67	26944.25
547.84	26829.56
548.00	26890.41
548.17	26824.88
548.34	26962.97
548.51	27080.00
548.67	27218.09
548.84	26991.06
549.01	27063.61
549.18	26796.79
549.34	26696.15
549.51	26602.53
549.68	26962.97
549.84	26946.59
550.01	27194.68
550.18	26941.91
550.34	27548.11
550.51	27555.13
550.68	27206.39
550.84	26883.39
551.01	27438.10
551.18	27552.79
551.34	27072.98
551.51	27150.21
551.68	27550.45
551.84	27302.35
552.01	27211.07
552.18	27620.66
552.34	27351.50
552.51	27557.47
552.68	27197.02
552.84	27201.71
553.01	27667.47
553.18	27606.62
553.34	27667.47
553.51	27498.95
553.67	27709.60
553.84	28112.17
554.01	27737.69
554.17	27707.26
554.34	27779.82
554.51	27733.01
554.67	27714.28
554.84	27779.82
555.00	27756.41
555.17	27608.96
555.33	27763.43
555.50	27988.13
555.67	27875.78
555.83	27604.28
556.00	27885.14
556.16	28154.30
556.33	28018.55
556.50	28175.37
556.66	27903.87
556.83	28142.60
556.99	28641.14
557.16	27924.93
557.32	28767.52
557.49	28496.02
557.65	27873.44
557.82	27793.86
557.98	28240.90
558.15	28615.39
558.32	28400.06
558.48	27946.00
558.65	28318.14
558.81	28423.47
558.98	28423.47
559.14	28357.93
559.31	28442.19
559.47	28034.94
559.64	28636.45
559.80	28254.95
559.97	28559.22
560.13	28397.72
560.30	28266.65
560.46	28526.45
560.63	28301.76
560.79	28694.97
560.96	28364.95
561.12	28306.44
561.29	28517.09
561.45	28271.33
561.61	28725.39
561.78	28486.66
561.94	28680.92
562.11	28423.47
562.27	28360.27
562.44	28701.99
562.60	28320.48
562.77	28797.95
562.93	28552.20
563.10	28936.04
563.26	28261.97
563.42	28767.52
563.59	28828.38
563.75	28762.84
563.92	28811.99
564.08	28659.86
564.24	28840.08
564.41	28477.30
564.57	28797.95
564.74	28664.54
564.90	29050.73
565.07	29001.58
565.23	28964.13
565.39	28594.32
565.56	28526.45
565.72	28554.54
565.88	28980.51
566.05	28620.07
566.21	28737.10
566.38	28793.27
566.54	28917.32
566.70	29406.49
566.87	29167.76
567.03	28898.59
567.19	29289.46
567.36	28886.89
567.52	28966.47
567.68	29315.21
567.85	28664.54
568.01	28898.59
568.17	28554.54
568.34	29008.60
568.50	29322.23
568.66	29221.59
568.83	29347.98
568.99	28910.30
569.15	28924.34
569.32	28924.34
569.48	29008.60
569.64	28673.90
569.81	28957.11
569.97	29092.86
570.13	29209.89
570.30	29032.00
570.46	29399.47
570.62	29223.93
570.78	29010.94
570.95	28877.53
571.11	29113.92
571.27	28947.75
571.43	29244.99
571.60	28760.50
571.76	29776.30
571.92	29085.84
572.09	29237.97
572.25	29249.67
572.41	29390.11
572.57	29261.38
572.74	29553.94
572.90	29312.87
573.06	29340.96
573.22	29336.27
573.38	29291.80
573.55	29352.66
573.71	29263.72
573.87	29303.51
574.03	29347.98
574.20	29635.86
574.36	29165.42
574.52	29472.03
574.68	29479.05
574.84	29355.00
575.01	29460.32
575.17	29467.34
575.33	29399.47
575.49	29214.57
575.65	29378.40
575.82	29713.10
575.98	29261.38
576.14	29287.12
576.30	29085.84
576.46	29383.09
576.62	29619.48
576.79	29364.36
576.95	29333.93
577.11	29385.43
577.27	29600.76
577.43	29659.27
577.59	29390.11
577.75	29443.94
577.92	29226.27
578.08	29226.27
578.24	29425.22
578.40	29593.73
578.56	29659.27
578.72	29596.07
578.88	29720.12
579.04	29453.30
579.21	29242.65
579.37	29273.08
579.53	29596.07
579.69	29570.33
579.85	29383.09
580.01	29401.81
580.17	29270.74
580.33	29441.60
580.49	29933.11
580.65	29343.30
580.82	29736.51
580.98	29926.09
581.14	29319.89
581.30	29919.07
581.46	29509.47
581.62	29418.19
581.78	29399.47
581.94	29628.84
582.10	29516.50
582.26	29469.69
582.42	29446.28
582.58	29912.05
582.74	30139.08
582.90	29729.48
583.06	30073.54
583.22	29750.55
583.38	29472.03
583.54	29570.33
583.70	29631.18
583.86	29193.50
584.02	29425.22
584.18	30253.76
584.34	29797.36
584.50	29972.90
584.66	29755.23
584.82	29422.87
584.98	29593.73
585.14	29528.20
585.30	29486.07
585.46	29460.32
585.62	29404.15
585.78	29937.79
585.94	29893.32
586.10	29502.45
586.26	29956.52
586.42	29954.18
586.58	29881.62
586.74	29825.45
586.90	29731.83
587.06	29027.32
587.22	29647.57
587.38	29722.46
587.54	29769.27
587.70	29600.76
587.86	30115.67
588.02	30096.95
588.18	29848.85
588.34	29666.29
588.49	29839.49
588.65	29689.70
588.81	29827.79
588.97	29853.53
589.13	29785.66
589.29	29860.55
589.45	29979.92
589.61	29916.73
589.77	30192.91
589.93	30073.54
590.08	29860.55
590.24	30110.99
590.40	30141.42
590.56	30057.16
590.72	29626.50
590.88	29827.79
591.04	29717.78
591.20	29963.54
591.35	30054.82
591.51	30338.02
591.67	30441.01
591.83	30515.90
591.99	29923.75
592.15	29989.28
592.31	30017.37
592.46	29565.65
592.62	29621.82
592.78	29888.64
592.94	29919.07
593.10	29834.81
593.26	30331.00
593.41	30438.67
593.57	30148.44
593.73	29958.86
593.89	30164.82
594.05	30169.51
594.20	30103.97
594.36	29881.62
594.52	29869.92
594.68	29668.63
594.84	29785.66
594.99	30122.69
595.15	30094.61
595.31	30443.35
595.47	30146.10
595.62	30462.07
595.78	30150.78
595.94	30017.37
596.10	30136.74
596.25	29923.75
596.41	29586.71
596.57	29949.50
596.73	30256.11
596.88	30008.01
597.04	30087.59
597.20	30169.51
597.36	30560.37
597.51	30480.80
597.67	30188.23
597.83	29919.07
597.99	30323.98
598.14	30162.48
598.30	29947.15
598.46	29954.18
598.61	30017.37
598.77	30029.07
598.93	29972.90
599.09	30588.46
599.24	30820.17
599.40	30419.94
599.56	30323.98
599.71	30305.26
599.87	30527.61
600.03	29860.55
600.18	29706.08
600.34	30469.09
600.50	29947.15
600.65	30085.25
600.81	30389.52
600.97	30141.42
601.12	30377.81
601.28	30181.21
601.44	30333.34
601.59	30632.93
601.75	30066.52
601.91	30319.30
602.06	30225.68
602.22	30106.31
602.37	29773.95
602.53	30455.05
602.69	30405.90
602.84	30188.23
603.00	30263.13
603.16	30335.68
603.31	30525.27
603.47	30232.70
603.62	30015.03
603.78	30419.94
603.94	29926.09
604.09	30096.95
604.25	29900.34
604.40	29956.52
604.56	30061.84
604.71	30176.53
604.87	30356.75
605.03	30239.72
605.18	30167.16
605.34	30284.19
605.49	29841.83
605.65	30183.55
605.80	29965.88
605.96	30143.76
606.12	29743.53
606.27	30394.20
606.43	30174.19
606.58	30176.53
606.74	30731.23
606.89	30150.78
607.05	30501.86
607.20	30160.14
607.36	29993.97
607.51	30438.67
607.67	29832.47
607.82	30082.91
607.98	29954.18
608.13	30010.35
608.29	30169.51
608.44	30176.53
608.60	30022.05
608.75	30190.57
608.91	30188.23
609.06	29811.40
609.22	30047.80
609.37	29876.94
609.53	29937.79
609.68	29750.55
609.84	29647.57
609.99	29935.45
610.15	29876.94
610.30	29832.47
610.46	29687.36
610.61	30206.95
610.76	30026.73
610.92	29839.49
611.07	30141.42
611.23	29766.93
611.38	29869.92
611.54	29385.43
611.69	29556.28
611.84	29872.26
612.00	29596.07
612.15	29586.71
612.31	29933.11
612.46	29333.93
612.62	29661.61
612.77	29652.25
612.92	29507.13
613.08	30038.44
613.23	29670.97
613.39	29614.80
613.54	29397.13
613.69	29535.22
613.85	29273.08
614.00	29392.45
614.15	29778.64
614.31	29722.46
614.46	29905.02
614.62	29549.26
614.77	29673.31
614.92	29282.44
615.08	29769.27
615.23	29422.87
615.38	29528.20
615.54	29277.76
615.69	29406.49
615.84	29275.42
616.00	29575.01
616.15	29235.63
616.30	29610.12
616.46	29422.87
616.61	29399.47
616.76	29392.45
616.92	29851.19
617.07	29572.67
617.22	29214.57
617.37	29013.28
617.53	29291.80
617.68	29132.65
617.83	29226.27
617.99	28987.53
618.14	28893.91
618.29	29193.50
618.45	29165.42
618.60	29345.64
618.75	29001.58
618.90	29357.34
619.06	29322.23
619.21	28720.71
619.36	29120.95
619.51	29125.63
619.67	28491.34
619.82	28706.67
619.97	29048.39
620.12	29181.80
620.28	28907.96
620.43	29060.09
620.58	28924.34
620.73	29230.95
620.89	29298.83
621.04	29598.41
621.19	29223.93
621.34	29347.98
621.49	28847.10
621.65	28989.88
621.80	28875.19
621.95	28865.83
622.10	28741.78
622.25	28741.78
622.41	28671.56
622.56	28783.91
622.71	28811.99
622.86	28973.49
623.01	28910.30
623.16	28783.91
623.32	28917.32
623.47	28762.84
623.62	28613.05
623.77	28858.81
623.92	28914.98
624.07	28357.93
624.23	28587.30
624.38	28615.39
624.53	28753.48
624.68	28725.39
624.83	28713.69
624.98	28580.28
625.13	28687.95
625.29	28765.18
625.44	28620.07
625.59	28297.08
625.74	28554.54
625.89	28313.46
626.04	28046.64
626.19	28418.78
626.34	28093.45
626.49	28116.86
626.65	28327.50
626.80	28751.14
626.95	28313.46
627.10	28292.40
627.25	28261.97
627.40	28217.50
627.55	28100.47
627.70	28428.15
627.85	28018.55
628.00	28086.43
628.15	27901.53
628.30	28137.92
628.45	28037.28
628.60	27899.19
628.76	28137.92
628.91	28201.11
629.06	27894.50
629.21	28507.72
629.36	28297.08
629.51	27964.72
629.66	27852.38
629.81	28074.73
629.96	27992.81
630.11	28027.92
630.26	27761.09
630.41	27730.67
630.56	27850.03
630.71	27992.81
630.86	27730.67
631.01	27679.18
631.16	28079.41
631.31	27648.75
631.46	27454.48
631.61	27749.39
631.76	28053.66
631.91	27470.87
632.06	27559.81
632.21	27466.19
632.36	27468.53
632.51	27384.27
632.66	27592.58
632.81	27627.68
632.96	27592.58
633.10	27632.36
633.25	27651.09
633.40	27583.21
633.55	27571.51
633.70	27283.62
633.85	27325.75
634.00	27421.72
634.15	27679.18
634.30	27412.35
634.45	27711.94
634.60	26967.65
634.75	27358.52
634.90	27356.18
635.05	27515.34
635.19	27075.32
635.34	27580.87
635.49	27445.12
635.64	27630.02
635.79	27208.73
635.94	27288.31
636.09	27241.50
636.24	26995.74
636.39	26831.90
636.53	27117.45
636.68	27051.91
636.83	27145.53
636.98	27351.50
637.13	27084.68
637.28	27246.18
637.43	26951.27
637.57	27122.13
637.72	27187.66
637.87	27300.01
638.02	27133.83
638.17	27325.75
638.32	26925.52
638.46	26663.38
638.61	26611.89
638.76	26684.45
638.91	26977.01
639.06	27154.90
639.20	26937.23
639.35	26735.94
639.50	26932.54
639.65	26967.65
639.80	26969.99
639.94	27077.66
640.09	27014.46
640.24	26904.46
640.39	26817.86
640.54	27049.57
640.68	26625.93
640.83	26583.80
640.98	26794.45
641.13	26412.95
641.27	26670.40
641.42	26464.44
641.57	26455.08
641.72	26803.82
641.86	26759.34
642.01	26209.32
642.16	26621.25
642.31	26515.93
642.45	26253.79
642.60	26380.18
642.75	26515.93
642.90	26127.40
643.04	26424.65
643.19	26469.12
643.34	26181.23
643.48	26551.04
643.63	26328.69
643.78	26316.98
643.93	26490.18
644.07	26469.12
644.22	26675.09
644.37	26342.73
644.51	26431.67
644.66	26457.42
644.81	26298.26
644.95	26394.22
645.10	26349.75
645.25	26375.50
645.39	26272.51
645.54	26384.86
645.69	26225.70
645.83	26005.69
645.98	26031.44
646.13	26260.81
646.27	26181.23
646.42	26225.70
646.57	26148.46
646.71	25979.95
646.86	26111.02
647.00	26012.71
647.15	25893.35
647.30	26230.38
647.44	25577.37
647.59	26080.59
647.74	25699.08
647.88	25795.04
648.03	26171.87
648.17	25874.62
648.32	25687.38
648.47	25907.39
648.61	25956.54
648.76	26066.55
648.90	26202.30
649.05	25776.32
649.20	25757.60
649.34	25989.31
649.49	25699.08
649.63	25539.93
649.78	25738.87
649.92	25324.60
650.07	25474.39
650.21	25666.31
650.36	25621.84
650.51	25474.39
650.65	25858.24
650.80	25762.28
650.94	25858.24
651.09	25706.10
651.23	25525.88
651.38	25425.24
651.52	25404.17
651.67	25167.78
651.81	25830.15
651.96	25425.24
652.10	25455.67
652.25	25675.68
652.39	25596.10
652.54	25727.17
652.68	25308.21
652.83	25783.34
652.97	25708.44
653.12	25350.34
653.26	25289.49
653.41	25350.34
653.55	25254.38
653.70	25198.21
653.84	25256.72
653.99	25027.35
654.13	24938.41
654.27	24959.47
654.42	25458.01
654.56	25635.89
654.71	25350.34
654.85	25017.99
655.00	25268.42
655.14	25212.25
655.29	24980.54
655.43	25303.53
655.57	25003.94
655.72	24893.94
655.86	25259.06
656.01	24809.68
656.15	24915.00
656.30	24933.73
656.44	24783.93
656.58	24877.55
656.73	24882.24
656.87	24713.72
657.01	24795.64
657.16	25495.46
657.30	25331.62
657.45	24725.42
657.59	25092.88
657.73	24732.44
657.88	24662.22
658.02	24755.85
658.16	24465.62
658.31	24802.66
658.45	24383.70
658.60	24718.40
658.74	24603.71
658.88	24379.02
659.03	24428.17
659.17	24563.92
659.31	24685.63
659.46	24751.17
659.60	24905.64
659.74	24561.58
659.89	24411.79
660.03	24329.87
660.17	24507.75
660.32	24322.85
660.46	24414.13
660.60	24159.01
660.74	24299.44
660.89	24079.43
661.03	23838.36
661.17	24311.14
661.32	23943.68
661.46	24156.67
661.60	24222.20
661.74	24112.20
661.89	24208.16
662.03	24276.04
662.17	23847.72
662.31	23723.67
662.46	24243.27
662.60	24105.18
662.74	23782.18
662.88	23754.10
663.03	23817.29
663.17	23482.59
663.31	23201.73
663.45	23473.23
663.60	23466.21
663.74	23838.36
663.88	23363.23
664.02	23463.87
664.17	23566.85
664.31	23400.68
664.45	23353.87
664.59	23386.63
664.73	23386.63
664.88	23653.45
665.02	22885.76
665.16	23522.38
665.30	23325.78
665.44	23250.88
665.59	22885.76
665.73	23438.12
665.87	23133.86
666.01	22806.18
666.15	23168.96
666.29	23253.22
666.44	23063.64
666.58	22993.42
666.72	22965.34
666.86	23080.02
667.00	23351.52
667.14	22939.59
667.28	22703.20
667.43	22635.32
667.57	22918.53
667.71	22782.77
667.85	22785.12
667.99	22553.40
668.13	22937.25
668.27	22904.48
668.41	22878.74
668.56	22314.67
668.70	22551.06
668.84	22342.75
668.98	22735.96
669.12	22530.00
669.26	22618.94
669.40	22396.59
669.54	22148.49
669.68	22127.42
669.82	22122.74
669.96	21998.70
670.10	22253.81
670.25	22211.68
670.39	21979.97
670.53	22094.66
670.67	21764.64
670.81	21996.35
670.95	22064.23
671.09	22036.14
671.23	21898.05
671.37	21898.05
671.51	22160.19
671.65	21986.99
671.79	21837.20
671.93	21525.91
672.07	21575.06
672.21	21348.03
672.35	21568.04
672.49	21467.39
672.63	21619.53
672.77	21624.21
672.91	21177.17
673.05	21233.34
673.19	21682.72
673.33	21376.11
673.47	21462.71
673.61	21420.58
673.75	21289.51
673.89	21071.84
674.03	21205.25
674.17	21088.23
674.31	20842.47
674.45	21263.77
674.59	20851.83
674.73	21076.52
674.87	20739.49
675.01	20774.60
675.15	20671.61
675.29	20772.25
675.43	20615.44
675.56	20524.16
675.70	20554.58
675.84	20688.00
675.98	20168.40
676.12	20664.59
676.26	20802.68
676.40	20404.79
676.54	20203.50
676.68	20428.20
676.82	19793.91
676.96	20189.46
677.10	20032.65
677.23	19721.35
677.37	19868.81
677.51	19899.23
677.65	19878.17
677.79	19875.83
677.93	19810.29
678.07	19550.49
678.21	19840.72
678.34	19587.94
678.48	19461.55
678.62	19573.90
678.76	19150.26
678.90	19157.28
679.04	19550.49
679.18	19346.87
679.31	19005.15
679.45	18963.02
679.59	18647.05
679.73	18923.23
679.87	18913.87
680.00	18668.11
680.14	19014.51
680.28	18759.39
680.42	18785.14
680.56	18661.09
680.70	18686.84
680.83	18714.92
680.97	18663.43
681.11	18778.12
681.25	18403.63
681.39	18415.34
681.52	18448.10
681.66	18349.80
681.80	18321.71
681.94	18146.17
682.07	18127.45
682.21	17980.00
682.35	18029.15
682.49	18010.42
682.62	17834.88
682.76	17888.71
682.90	17977.65
683.04	17521.25
683.17	17853.61
683.31	17745.94
683.45	17612.53
683.59	17563.38
683.72	17649.98
683.86	17408.90
684.00	17228.68
684.13	17376.14
684.27	17322.30
684.41	17102.29
684.55	17111.66
684.68	16783.98
684.82	16732.49
684.96	17348.05
685.09	16776.96
685.23	16713.77
685.37	16720.79
685.50	17085.91
685.64	17116.34
685.78	16713.77
685.91	16861.22
686.05	16641.21
686.19	16809.73
686.32	16489.07
686.46	16367.37
686.60	16170.76
686.73	16379.07
686.87	16353.32
687.01	16280.77
687.14	16369.71
687.28	15967.13
687.42	16219.91
687.55	16063.10
687.69	15864.15
687.82	15763.51
687.96	15782.23
688.10	15541.16
688.23	15962.45
688.37	16016.29
688.50	15868.83
688.64	15917.98
688.78	15665.21
688.91	15246.25
689.05	15452.22
689.18	15424.13
689.32	15152.63
689.46	15426.47
689.59	15019.22
689.73	15040.28
689.86	15176.03
690.00	14813.25
690.13	15047.30
690.27	14991.13
690.41	15101.14
690.54	15007.52
690.68	14956.02
690.81	15049.64
690.95	14885.81
691.08	14822.61
691.22	14824.95
691.35	14473.87
691.49	14408.34
691.62	14562.81
691.76	14338.12
691.89	14279.61
692.03	14139.18
692.16	14244.50
692.30	14181.31
692.43	14075.98
692.57	14218.75
692.70	13855.97
692.84	14017.47
692.97	14059.60
693.11	14188.33
693.24	13741.29
693.38	13731.92
693.51	13898.10
693.65	13820.86
693.78	13792.78
693.92	13675.75
694.05	13778.73
694.19	13376.16
694.32	13422.97
694.45	13439.36
694.59	13397.23
694.72	12994.65
694.86	13130.41
694.99	12922.10
695.13	12952.52
695.26	13184.24
695.39	12894.01
695.53	13104.66
695.66	12968.91
695.80	12798.05
695.93	12931.46
696.07	12947.84
696.20	12865.92
696.33	12889.33
696.47	12685.70
696.60	12615.49
696.73	12634.21
696.87	12641.23
697.00	12610.81
697.14	12278.45
697.27	12196.53
697.40	12140.36
697.54	12233.98
697.67	12056.10
697.80	12091.21
697.94	11808.00
698.07	11866.52
698.21	11997.59
698.34	11910.99
698.47	11918.01
698.61	11698.00
698.74	11836.09
698.87	11599.70
699.01	11597.35
699.14	11665.23
699.27	12009.29
699.40	11426.50
699.54	11538.84
699.67	11325.85
699.80	11482.67
699.94	11169.04
700.07	11157.33
700.20	11164.36
700.34	11044.99
700.47	11136.27
700.60	11166.70
700.73	11089.46
700.87	11171.38
701.00	11112.86
701.13	11143.29
701.26	11049.67
701.40	10752.42
701.53	10970.09
701.66	10986.47
701.79	10986.47
701.93	10630.71
702.06	10518.37
702.19	10565.18
702.32	10476.24
702.46	10279.63
702.59	10396.66
702.72	10321.76
702.85	10106.43
702.99	10232.82
703.12	10317.08
703.25	10012.81
703.38	10209.42
703.51	10321.76
703.65	10092.39
703.78	10029.20
703.91	10080.69
704.04	9874.72
704.17	10057.28
704.31	10040.90
704.44	9750.67
704.57	9907.49
704.70	9788.12
704.83	9673.43
704.96	9558.75
705.10	9364.48
705.23	9652.37
>>>>>End Processed Spectral Data<<<<<
