SpectraSuite Data File
++++++++++++++++++++++++++++++++++++
Date: Fri Oct 18 13:58:04 GMT-05:00 2013
User: bianchi
Dark Spectrum Present: No
Reference Spectrum Present: No
Number of Sampled Component Spectra: 1
Spectrometers: USB2+H05261
Integration Time (usec): 50000 (USB2+H05261)
Spectra Averaged: 1 (USB2+H05261)
Boxcar Smoothing: 0 (USB2+H05261)
Correct for Electrical Dark: No (USB2+H05261)
Strobe/Lamp Enabled: No (USB2+H05261)
Correct for Detector Non-linearity: No (USB2+H05261)
Correct for Stray Light: No (USB2+H05261)
Number of Pixels in Processed Spectrum: 2048
>>>>>Begin Processed Spectral Data<<<<<
365.73	0.00
365.92	0.00
366.12	0.00
366.32	0.00
366.52	0.00
366.72	0.00
366.91	0.00
367.11	0.00
367.31	0.00
367.51	0.00
367.70	0.00
367.90	0.00
368.10	0.00
368.30	0.00
368.49	0.00
368.69	0.00
368.89	0.00
369.09	0.00
369.28	0.00
369.48	0.00
369.68	0.00
369.87	0.00
370.07	0.00
370.27	0.00
370.47	0.00
370.66	0.00
370.86	93.62
371.06	159.16
371.25	149.79
371.45	124.05
371.65	140.43
371.84	182.56
372.04	138.09
372.24	205.97
372.44	145.11
372.63	177.88
372.83	201.29
373.03	201.29
373.22	159.16
373.42	203.63
373.62	208.31
373.81	229.37
374.01	203.63
374.21	238.73
374.40	194.26
374.60	276.18
374.79	259.80
374.99	224.69
375.19	231.71
375.38	280.86
375.58	287.89
375.78	257.46
375.97	266.82
376.17	337.04
376.37	318.31
376.56	248.10
376.76	201.29
376.95	248.10
377.15	262.14
377.35	292.57
377.54	280.86
377.74	308.95
377.93	227.03
378.13	341.72
378.33	238.73
378.52	325.33
378.72	280.86
378.91	290.23
379.11	262.14
379.31	273.84
379.50	287.89
379.70	257.46
379.89	360.44
380.09	220.01
380.28	255.12
380.48	355.76
380.68	348.74
380.87	297.25
381.07	285.55
381.26	290.23
381.46	325.33
381.65	339.38
381.85	404.91
382.04	358.10
382.24	297.25
382.43	299.59
382.63	334.70
382.83	337.04
383.02	290.23
383.22	306.61
383.41	308.95
383.61	414.27
383.80	381.51
384.00	430.66
384.19	402.57
384.39	344.06
384.58	313.63
384.78	475.13
384.97	402.57
385.17	353.42
385.36	318.31
385.56	409.59
385.75	330.02
385.95	388.53
386.14	390.87
386.34	379.17
386.53	486.83
386.72	400.23
386.92	430.66
387.11	393.21
387.31	493.85
387.50	411.93
387.70	404.91
387.89	435.34
388.09	454.06
388.28	393.21
388.48	437.68
388.67	440.02
388.86	461.09
389.06	458.74
389.25	489.17
389.45	543.00
389.64	500.87
389.84	477.47
390.03	517.26
390.22	528.96
390.42	503.22
390.61	486.83
390.81	458.74
391.00	617.90
391.19	421.30
391.39	503.22
391.58	503.22
391.78	447.04
391.97	482.15
392.16	512.58
392.36	561.73
392.55	543.00
392.75	486.83
392.94	571.09
393.13	528.96
393.33	568.75
393.52	451.72
393.71	624.92
393.91	592.16
394.10	566.41
394.29	564.07
394.49	571.09
394.68	641.31
394.88	571.09
395.07	592.16
395.26	594.50
395.46	599.18
395.65	606.20
395.84	720.88
396.04	653.01
396.23	629.60
396.42	660.03
396.62	631.94
396.81	692.80
397.00	699.82
397.19	571.09
397.39	683.44
397.58	674.07
397.77	681.10
397.97	706.84
398.16	690.46
398.35	723.23
398.55	681.10
398.74	622.58
398.93	753.65
399.12	695.14
399.32	683.44
399.51	784.08
399.70	732.59
399.90	819.19
400.09	699.82
400.28	755.99
400.47	800.46
400.67	681.10
400.86	784.08
401.05	798.12
401.24	849.61
401.44	863.66
401.63	835.57
401.82	912.81
402.01	849.61
402.21	849.61
402.40	779.40
402.59	868.34
402.78	849.61
402.97	915.15
403.17	891.74
403.36	919.83
403.55	809.83
403.74	947.92
403.93	938.55
404.13	908.13
404.32	976.00
404.51	861.32
404.70	849.61
404.89	961.96
405.09	889.40
405.28	990.05
405.47	964.30
405.66	1057.92
405.85	1020.47
406.05	966.64
406.24	938.55
406.43	1015.79
406.62	1015.79
406.81	1071.97
407.00	1011.11
407.20	936.21
407.39	1001.75
407.58	1107.07
407.77	1088.35
407.96	1048.56
408.15	1081.33
408.34	1149.20
408.54	1137.50
408.73	1109.41
408.92	1104.73
409.11	999.41
409.30	1238.14
409.49	1046.22
409.68	1013.45
409.87	1123.46
410.07	1198.35
410.26	1228.78
410.45	1284.95
410.64	1294.32
410.83	1181.97
411.02	1261.55
411.21	1287.29
411.40	1221.76
411.59	1256.87
411.78	1303.68
411.98	1261.55
412.17	1345.81
412.36	1252.19
412.55	1315.38
412.74	1380.92
412.93	1394.96
413.12	1341.13
413.31	1401.98
413.50	1432.41
413.69	1451.13
413.88	1411.34
414.07	1343.47
414.26	1469.86
414.45	1413.68
414.64	1448.79
414.83	1469.86
415.02	1483.90
415.22	1526.03
415.41	1481.56
415.60	1638.38
415.79	1558.80
415.98	1582.20
416.17	1535.39
416.36	1523.69
416.55	1561.14
416.74	1561.14
416.93	1612.63
417.12	1668.80
417.31	1790.51
417.50	1710.93
417.69	1788.17
417.88	1769.44
418.07	1722.63
418.26	1692.21
418.45	1834.98
418.64	1830.30
418.83	1790.51
419.02	1827.96
419.21	1825.62
419.39	1893.49
419.58	1783.49
419.77	1898.17
419.96	1783.49
420.15	1888.81
420.34	1909.88
420.53	1886.47
420.72	1923.92
420.91	1900.52
421.10	1991.80
421.29	1935.62
421.48	1834.98
421.67	1916.90
421.86	1996.48
422.05	2015.20
422.24	2003.50
422.43	2022.22
422.61	1973.07
422.80	1949.67
422.99	2008.18
423.18	1954.35
423.37	2073.71
423.56	2024.56
423.75	1952.01
423.94	2040.95
424.13	1863.07
424.32	1933.28
424.50	2108.82
424.69	2101.80
424.88	2111.16
425.07	2024.56
425.26	2092.44
425.45	1966.05
425.64	1966.05
425.83	2062.01
426.01	2090.10
426.20	2085.42
426.39	1893.49
426.58	2045.63
426.77	2204.78
426.96	2033.93
427.15	2141.59
427.33	2160.31
427.52	2125.21
427.71	2195.42
427.90	2106.48
428.09	2186.06
428.28	2232.87
428.46	2195.42
428.65	2115.84
428.84	2244.57
429.03	2216.49
429.22	2307.77
429.40	2258.62
429.59	2218.83
429.78	2122.87
429.97	2195.42
430.16	2153.29
430.34	2347.56
430.53	2434.16
430.72	2483.31
430.91	2406.07
431.10	2408.41
431.28	2504.37
431.47	2471.61
431.66	2354.58
431.85	2392.03
432.03	2443.52
432.22	2490.33
432.41	2450.54
432.60	2452.88
432.79	2478.63
432.97	2506.71
433.16	2413.09
433.35	2511.39
433.54	2583.95
433.72	2555.86
433.91	2537.14
434.10	2590.97
434.28	2504.37
434.47	2464.58
434.66	2628.42
434.85	2628.42
435.03	2581.61
435.22	2640.12
435.41	2796.94
435.59	2696.30
435.78	2612.04
435.97	2794.60
436.16	2661.19
436.34	2647.15
436.53	2810.98
436.72	2700.98
436.90	2738.43
437.09	2771.19
437.28	2661.19
437.46	2785.24
437.65	2794.60
437.84	2768.85
438.02	2705.66
438.21	2860.13
438.40	2768.85
438.58	2874.18
438.77	2855.45
438.96	2932.69
439.14	3026.31
439.33	2953.76
439.52	3080.14
439.70	3000.57
439.89	3073.12
440.08	2906.95
440.26	3026.31
440.45	3014.61
440.63	3023.97
440.82	3138.66
441.01	3077.80
441.19	3166.74
441.38	3260.37
441.57	3241.64
441.75	3288.45
441.94	3405.48
442.12	3297.81
442.31	3386.76
442.50	3295.47
442.68	3302.50
442.87	3337.60
443.05	3368.03
443.24	3325.90
443.43	3400.80
443.61	3454.63
443.80	3506.12
443.98	3269.73
444.17	3323.56
444.35	3431.23
444.54	3562.30
444.73	3403.14
444.91	3529.53
445.10	3370.37
445.28	3407.82
445.47	3433.57
445.65	3400.80
445.84	3599.74
446.02	3581.02
446.21	3398.46
446.39	3506.12
446.58	3522.51
446.77	3480.38
446.95	3433.57
447.14	3419.52
447.32	3541.23
447.51	3459.31
447.69	3574.00
447.88	3653.58
448.06	3620.81
448.25	3660.60
448.43	3473.36
448.62	3440.59
448.80	3421.86
448.99	3662.94
449.17	3674.64
449.36	3548.25
449.54	3583.36
449.73	3536.55
449.91	3861.88
450.10	3737.84
450.28	3782.31
450.46	3772.94
450.65	3662.94
450.83	3859.54
451.02	3833.80
451.20	3882.95
451.39	3899.33
451.57	3887.63
451.76	3815.07
451.94	3913.38
452.13	3950.82
452.31	3915.72
452.49	3726.13
452.68	3878.27
452.86	3934.44
453.05	4067.85
453.23	4030.40
453.42	3925.08
453.60	3894.65
453.78	3988.27
453.97	4007.00
454.15	3976.57
454.34	4002.32
454.52	4105.30
454.70	4149.77
454.89	3995.29
455.07	4049.13
455.26	4219.99
455.44	4196.58
455.62	4016.36
455.81	4070.19
455.99	4182.54
456.17	4229.35
456.36	4175.52
456.54	4217.65
456.73	4173.18
456.91	4217.65
457.09	4479.79
457.28	4341.69
457.46	4224.67
457.64	4369.78
457.83	4311.27
458.01	4287.86
458.19	4416.59
458.38	4322.97
458.56	4468.08
458.74	4538.30
458.93	4526.60
459.11	4500.85
459.29	4643.62
459.48	4461.06
459.66	4484.47
459.84	4608.51
460.03	4535.96
460.21	4589.79
460.39	4643.62
460.57	4538.30
460.76	4573.41
460.94	4645.96
461.12	4767.67
461.31	4660.01
461.49	4559.36
461.67	4664.69
461.85	4770.01
462.04	4875.34
462.22	4940.87
462.40	4784.06
462.59	4704.48
462.77	4868.31
462.95	4882.36
463.13	4856.61
463.32	4835.55
463.50	4936.19
463.68	4844.91
463.86	4739.58
464.05	4765.33
464.23	4940.87
464.41	4908.10
464.59	4905.76
464.78	5069.60
464.96	5104.71
465.14	5076.62
465.32	4983.00
465.50	5198.33
465.69	4968.96
465.87	4898.74
466.05	5104.71
466.23	5083.64
466.41	5137.48
466.60	5322.38
466.78	5184.29
466.96	5064.92
467.14	5088.32
467.32	5177.26
467.51	5273.23
467.69	5015.77
467.87	5198.33
468.05	5233.44
468.23	5132.79
468.41	5275.57
468.60	5287.27
468.78	5233.44
468.96	5275.57
469.14	5371.53
469.32	5416.00
469.50	5245.14
469.69	5408.98
469.87	5383.23
470.05	5516.64
470.23	5430.04
470.41	5481.53
470.59	5530.69
470.77	5682.82
470.95	5474.51
471.14	5731.97
471.32	5542.39
471.50	5657.07
471.68	5687.50
471.86	5511.96
472.04	5748.36
472.22	5813.89
472.40	5664.10
472.58	5781.12
472.77	5926.24
472.95	5706.23
473.13	6101.78
473.31	5769.42
473.49	5788.14
473.67	5980.07
473.85	5956.66
474.03	6017.52
474.21	6134.54
474.39	6164.97
474.57	6120.50
474.75	6389.66
474.93	6160.29
475.12	6310.08
475.30	6354.55
475.48	6134.54
475.66	6078.37
475.84	6352.21
476.02	6408.39
476.20	6413.07
476.38	6459.88
476.56	6651.80
476.74	6607.33
476.92	6750.10
477.10	6604.99
477.28	6628.40
477.46	6619.04
477.64	6644.78
477.82	6951.39
478.00	7119.91
478.18	7143.32
478.36	7155.02
478.54	7119.91
478.72	7023.95
478.90	7262.68
479.08	7269.70
479.26	7253.32
479.44	7517.80
479.62	7473.33
479.80	7452.27
479.98	7555.25
480.16	7637.17
480.34	7552.91
480.52	7686.32
480.70	7754.19
480.88	7805.69
481.06	7770.58
481.24	7758.88
481.41	8067.83
481.59	7873.56
481.77	8009.31
481.95	8044.42
482.13	8119.32
482.31	8161.45
482.49	8308.90
482.67	8374.44
482.85	8430.61
483.03	8669.34
483.21	8514.87
483.39	8709.13
483.57	8603.81
483.74	8807.44
483.92	8896.38
484.10	8945.53
484.28	8840.20
484.46	9139.79
484.64	9245.12
484.82	9181.92
485.00	9341.08
485.18	9207.67
485.35	9575.13
485.53	9334.06
485.71	9455.76
485.89	9811.53
486.07	9764.72
486.25	9947.28
486.43	9811.53
486.61	10122.82
486.78	9980.04
486.96	10368.57
487.14	10218.78
487.32	10038.56
487.50	10211.76
487.68	10363.89
487.85	10651.78
488.03	10810.93
488.21	10724.33
488.39	10569.86
488.57	10778.17
488.75	10607.31
488.92	10942.00
489.10	11094.14
489.28	10970.09
489.46	11522.46
489.64	11377.34
489.81	11276.70
489.99	11592.67
490.17	11653.53
490.35	11578.63
490.53	11566.93
490.70	11810.34
490.88	11669.91
491.06	11838.43
491.24	11705.02
491.41	11805.66
491.59	12194.19
491.77	12182.49
491.95	12219.94
492.13	12695.07
492.30	12578.04
492.48	12269.09
492.66	12470.37
492.84	12503.14
493.01	12575.70
493.19	12875.29
493.37	12798.05
493.54	12919.76
493.72	12877.63
493.90	13048.49
494.08	13102.32
494.25	13069.55
494.43	13338.71
494.61	13425.31
494.79	13638.30
494.96	13607.87
495.14	13621.92
495.32	13401.91
495.49	13870.01
495.67	13961.30
495.85	13792.78
496.02	14071.30
496.20	14284.29
496.38	13949.59
496.55	14132.15
496.73	14363.87
496.91	14504.30
497.09	14314.72
497.26	14558.13
497.44	14616.65
497.62	14670.48
497.79	14654.09
497.97	14736.01
498.14	15023.90
498.32	15084.75
498.50	15140.93
498.67	15215.82
498.85	14981.77
499.03	15433.49
499.20	15344.55
499.38	14960.70
499.56	15365.62
499.73	15424.13
499.91	15447.54
500.08	15688.61
500.26	15536.48
500.44	15480.30
500.61	15740.10
500.79	15712.02
500.97	15857.13
501.14	16166.08
501.32	16142.67
501.49	16133.31
501.67	15941.39
501.84	16063.10
502.02	15920.32
502.20	16493.76
502.37	16418.86
502.55	16365.03
502.72	16074.80
502.90	16552.27
503.07	16421.20
503.25	16856.54
503.43	16690.36
503.60	16442.26
503.78	16931.44
503.95	16521.84
504.13	16896.33
504.30	17032.08
504.48	16840.15
504.65	16971.22
504.83	17001.65
505.01	17121.02
505.18	16987.61
505.36	17261.45
505.53	17224.00
505.71	17448.69
505.88	17249.75
506.06	17472.10
506.23	17486.14
506.41	17472.10
506.58	17624.23
506.76	17610.19
506.93	17884.03
507.11	17692.11
507.28	17759.98
507.46	17785.73
507.63	17816.16
507.81	17968.29
507.98	17881.69
508.16	18113.41
508.33	17881.69
508.50	18249.16
508.68	17717.86
508.85	18586.19
509.03	18401.29
509.20	18537.04
509.38	18455.12
509.55	18810.89
509.73	18618.96
509.90	18803.86
510.08	18860.04
510.25	18684.50
510.42	18817.91
510.60	18803.86
510.77	18878.76
510.95	19211.12
511.12	18834.29
511.30	18735.99
511.47	19206.44
511.64	19026.21
511.82	19239.20
511.99	19225.16
512.17	19290.70
512.34	19410.06
512.51	19278.99
512.69	19456.87
512.86	19894.55
513.04	19325.80
513.21	19889.87
513.38	19889.87
513.56	19782.21
513.73	19943.70
513.90	19840.72
514.08	19421.77
514.25	19831.36
514.43	20091.16
514.60	20056.05
514.77	20456.28
514.95	20264.36
515.12	19983.49
515.29	19929.66
515.47	20182.44
515.64	20411.81
515.81	20198.82
515.99	20793.32
516.16	20568.63
516.33	20442.24
516.51	20573.31
516.68	20372.02
516.85	20439.90
517.03	20816.72
517.20	20702.04
517.37	21018.01
517.54	20713.74
517.72	21060.14
517.89	21015.67
518.06	20814.38
518.24	20912.69
518.41	20973.54
518.58	21345.69
518.75	21036.74
518.93	21039.08
519.10	21266.11
519.27	21343.35
519.45	21057.80
519.62	21156.10
519.79	21472.07
519.96	21490.80
520.14	21720.17
520.31	21226.32
520.48	21453.35
520.65	21500.16
520.83	22001.04
521.00	21675.70
521.17	21884.01
521.34	21708.47
521.52	21846.56
521.69	21762.30
521.86	22113.38
522.03	22087.64
522.20	22127.42
522.38	22185.94
522.55	21862.94
522.72	21961.25
522.89	21926.14
523.07	22349.78
523.24	22579.15
523.41	22368.50
523.58	22448.08
523.75	22834.27
523.92	22164.87
524.10	22356.80
524.27	22644.68
524.44	22930.23
524.61	23051.94
524.78	22789.80
524.96	22562.76
525.13	22560.42
525.30	22927.89
525.47	22869.37
525.64	22941.93
525.81	23426.42
525.98	23288.33
526.16	23260.24
526.33	23281.31
526.50	23386.63
526.67	23009.81
526.84	23260.24
527.01	23040.23
527.18	23426.42
527.36	23702.61
527.53	23391.31
527.70	23573.88
527.87	23573.88
528.04	23552.81
528.21	23601.96
528.38	23623.03
528.55	23922.62
528.72	23557.49
528.89	23742.39
529.07	23735.37
529.24	23590.26
529.41	24020.92
529.58	23711.97
529.75	23585.58
529.92	24123.90
530.09	23831.33
530.26	23791.55
530.43	24011.56
530.60	23887.51
530.77	24360.30
530.94	23995.17
531.11	23833.68
531.28	24353.27
531.46	24226.89
531.63	23946.02
531.80	24592.01
531.97	24737.12
532.14	24442.21
532.31	24285.40
532.48	24479.66
532.65	24802.66
532.82	24372.00
532.99	24634.14
533.16	24547.54
533.33	24762.87
533.50	24641.16
533.67	24821.38
533.84	24673.93
534.01	24718.40
534.18	24758.19
534.35	24905.64
534.52	24692.65
534.69	25156.08
534.86	25053.09
535.03	24549.88
535.20	25074.16
535.37	24943.09
535.54	24980.54
535.71	24620.10
535.88	25106.93
536.05	25060.12
536.22	25195.87
536.38	25425.24
536.55	25055.43
536.72	25390.13
536.89	25427.58
537.06	25287.15
537.23	25153.74
537.40	25357.36
537.57	25575.03
537.74	25504.82
537.91	25638.23
538.08	25607.80
538.25	25612.48
538.42	25656.95
538.59	25872.28
538.75	25741.21
538.92	25745.89
539.09	25926.11
539.26	25708.44
539.43	26050.16
539.60	25703.76
539.77	25811.43
539.94	25905.05
540.11	25954.20
540.28	26143.78
540.44	26068.89
540.61	26267.83
540.78	25846.54
540.95	25923.77
541.12	26113.36
541.29	25947.18
541.46	26033.78
541.62	25764.62
541.79	26246.77
541.96	25694.40
542.13	25914.41
542.30	26288.90
542.47	26448.05
542.63	26396.56
542.80	26562.74
542.97	26799.13
543.14	26665.72
543.31	27009.78
543.48	26689.13
543.64	26822.54
543.81	26768.71
543.98	26864.67
544.15	26764.03
544.32	27042.55
544.48	27058.93
544.65	26864.67
544.82	26820.20
544.99	26529.97
545.16	27070.64
545.32	27021.48
545.49	27344.48
545.66	27335.12
545.83	27398.31
546.00	27037.87
546.16	26925.52
546.33	27112.77
546.50	26796.79
546.67	27112.77
546.83	27274.26
547.00	26988.72
547.17	27374.91
547.34	27321.07
547.50	27601.94
547.67	27513.00
547.84	27435.76
548.00	27592.58
548.17	27826.63
548.34	27749.39
548.51	27550.45
548.67	27538.74
548.84	28088.77
549.01	27751.73
549.18	28009.19
549.34	27637.05
549.51	27962.38
549.68	27637.05
549.84	27597.26
550.01	28058.34
550.18	27688.54
550.34	28002.17
550.51	27814.93
550.68	27967.06
550.84	27920.25
551.01	27990.47
551.18	27658.11
551.34	28116.86
551.51	27889.82
551.68	28198.77
551.84	28561.56
552.01	28187.07
552.18	28039.62
552.34	27953.02
552.51	28119.20
552.68	27934.29
552.84	28510.07
553.01	28371.97
553.18	28374.31
553.34	28259.63
553.51	28456.23
553.67	28432.83
553.84	28744.12
554.01	28566.24
554.17	28753.48
554.34	28301.76
554.51	28500.70
554.67	28819.02
554.84	28503.04
555.00	28800.29
555.17	28811.99
555.33	28140.26
555.50	28652.84
555.67	28821.36
555.83	28664.54
556.00	28816.68
556.16	28877.53
556.33	28339.21
556.50	28711.35
556.66	28666.88
556.83	28556.88
556.99	29092.86
557.16	28891.57
557.32	29120.95
557.49	28922.00
557.65	28620.07
557.82	28727.74
557.98	28552.20
558.15	28903.28
558.32	28793.27
558.48	28701.99
558.65	28664.54
558.81	29003.92
558.98	29259.04
559.14	28950.09
559.31	29043.71
559.47	28978.17
559.64	29268.40
559.80	29277.76
559.97	28982.85
560.13	29310.53
560.30	29298.83
560.46	29542.24
560.63	29289.46
560.79	29303.51
560.96	29277.76
561.12	29336.27
561.29	29443.94
561.45	29284.78
561.61	29357.34
561.78	29680.33
561.94	29303.51
562.11	29820.77
562.27	29600.76
562.44	29429.90
562.60	29509.47
562.77	29268.40
562.93	29310.53
563.10	29528.20
563.26	29497.77
563.42	29923.75
563.59	29495.43
563.75	29593.73
563.92	29633.52
564.08	29326.91
564.24	29413.51
564.41	29338.62
564.57	29221.59
564.74	29668.63
564.90	29771.61
565.07	29612.46
565.23	29528.20
565.39	30094.61
565.56	29895.66
565.72	29687.36
565.88	29670.97
566.05	29523.52
566.21	29586.71
566.38	29687.36
566.54	30129.72
566.70	29949.50
566.87	29860.55
567.03	30036.09
567.19	30338.02
567.36	30352.07
567.52	30000.99
567.68	29710.76
567.85	29872.26
568.01	29965.88
568.17	29879.28
568.34	29806.72
568.50	30038.44
568.66	30162.48
568.83	29977.58
568.99	29989.28
569.15	29846.51
569.32	29839.49
569.48	29542.24
569.64	29972.90
569.81	30235.04
569.97	29853.53
570.13	30323.98
570.30	29818.42
570.46	30080.56
570.62	29928.43
570.78	30029.07
570.95	29696.72
571.11	30033.75
571.27	29493.09
571.43	29898.00
571.60	29935.45
571.76	30005.67
571.92	30148.44
572.09	30213.98
572.25	30256.11
572.41	30050.14
572.57	30040.78
572.74	30272.49
572.90	30204.61
573.06	29900.34
573.22	30312.28
573.38	30309.94
573.55	29890.98
573.71	30129.72
573.87	30125.04
574.03	30319.30
574.20	29507.13
574.36	30134.40
574.52	30338.02
574.68	30410.58
574.84	30466.75
575.01	30059.50
575.17	30218.66
575.33	30136.74
575.49	30050.14
575.65	30625.91
575.82	30279.51
575.98	30096.95
576.14	30047.80
576.30	29902.68
576.46	30206.95
576.62	30176.53
576.79	30445.69
576.95	30204.61
577.11	30382.49
577.27	30733.57
577.43	30249.08
577.59	30560.37
577.75	30401.22
577.92	30120.35
578.08	30171.85
578.24	30192.91
578.40	30237.38
578.56	30366.11
578.72	30438.67
578.88	30497.18
579.04	30794.43
579.21	30073.54
579.37	30323.98
579.53	30366.11
579.69	30012.69
579.85	30136.74
580.01	30368.45
580.17	30340.36
580.33	30700.81
580.49	30031.41
580.65	30230.36
580.82	30258.45
580.98	30635.27
581.14	30672.72
581.30	30429.30
581.46	30363.77
581.62	30529.95
581.78	30298.23
581.94	30441.01
582.10	29963.54
582.26	30340.36
582.42	30391.86
582.58	30539.31
582.74	30452.71
582.90	30848.26
583.06	30705.49
583.22	30405.90
583.38	30274.83
583.54	30436.33
583.70	30118.01
583.86	30611.87
584.02	30396.54
584.18	30368.45
584.34	30508.88
584.50	30560.37
584.66	30562.72
584.82	30546.33
584.98	30307.60
585.14	30457.39
585.30	30228.02
585.46	30316.96
585.62	30639.95
585.78	30274.83
585.94	30546.33
586.10	30829.54
586.26	30508.88
586.42	30696.13
586.58	30497.18
586.74	30501.86
586.90	30871.67
587.06	30398.88
587.22	30785.07
587.38	30639.95
587.54	30707.83
587.70	30895.07
587.86	30925.50
588.02	30466.75
588.18	30728.89
588.34	30780.39
588.49	30806.13
588.65	30352.07
588.81	30354.41
588.97	30546.33
589.13	30817.83
589.29	30174.19
589.45	30651.66
589.61	31187.64
589.77	31168.91
589.93	30719.53
590.08	30665.70
590.24	30986.35
590.40	31115.08
590.56	30703.15
590.72	31175.94
590.88	30614.21
591.04	30441.01
591.20	31363.18
591.35	31194.66
591.51	31311.69
591.67	31112.74
591.83	31016.78
591.99	31161.89
592.15	30890.39
592.31	30616.55
592.46	31030.82
592.62	30780.39
592.78	30656.34
592.94	30979.33
593.10	31140.83
593.26	30874.01
593.41	31042.53
593.57	30756.98
593.73	31089.34
593.89	31168.91
594.05	31072.95
594.20	31014.44
594.36	30986.35
594.52	30953.58
594.68	30749.96
594.84	30618.89
594.99	31487.23
595.15	30969.97
595.31	31297.64
595.47	31133.81
595.62	30932.52
595.78	31307.01
595.94	30892.73
596.10	31082.31
596.25	30838.90
596.41	31096.36
596.57	30628.25
596.73	30927.84
596.88	30888.05
597.04	31005.08
597.20	31143.17
597.36	31129.12
597.51	31201.68
597.67	31117.42
597.83	31374.88
597.99	31117.42
598.14	30649.32
598.30	31023.80
598.46	31133.81
598.61	30998.06
598.77	30944.22
598.93	31447.44
599.09	31110.40
599.24	31501.27
599.40	30972.31
599.56	31613.62
599.71	31215.72
599.87	31358.50
600.03	31129.12
600.18	31213.38
600.34	31051.89
600.50	30962.95
600.65	31159.55
600.81	31552.76
600.97	31082.31
601.12	31358.50
601.28	31363.18
601.44	31438.08
601.59	31440.42
601.75	31211.04
601.91	31419.35
602.06	31292.96
602.22	31084.65
602.37	30562.72
602.53	31232.11
602.69	31428.71
602.84	31302.32
603.00	31281.26
603.16	30946.56
603.31	31206.36
603.47	31571.49
603.62	31552.76
603.78	31094.02
603.94	31119.76
604.09	31215.72
604.25	31178.28
604.40	31204.02
604.56	31157.21
604.71	30899.75
604.87	31124.44
605.03	31433.39
605.18	31379.56
605.34	31241.47
605.49	30864.64
605.65	30960.61
605.80	31112.74
605.96	31119.76
606.12	31047.21
606.27	31412.33
606.43	31068.27
606.58	31267.22
606.74	30972.31
606.89	31246.15
607.05	31194.66
607.20	31246.15
607.36	31452.12
607.51	31126.78
607.67	31140.83
607.82	30693.79
607.98	30869.33
608.13	30724.21
608.29	31028.48
608.44	30756.98
608.60	31159.55
608.75	31012.10
608.91	31056.57
609.06	31002.74
609.22	31285.94
609.37	30569.74
609.53	30775.70
609.68	30845.92
609.84	30745.28
609.99	31079.97
610.15	30984.01
610.30	31037.84
610.46	30909.11
610.61	31292.96
610.76	31124.44
610.92	30782.73
611.07	31105.72
611.23	30764.00
611.38	30864.64
611.54	30712.51
611.69	30576.76
611.84	30342.70
612.00	30799.11
612.15	30796.77
612.31	30974.65
612.46	30635.27
612.62	30448.03
612.77	30916.14
612.92	30663.36
613.08	30761.66
613.23	30813.15
613.39	31103.38
613.54	30586.12
613.69	30178.87
613.85	30410.58
614.00	30586.12
614.15	30457.39
614.31	30902.09
614.46	30515.90
614.62	30803.79
614.77	30513.56
614.92	30810.81
615.08	30679.74
615.23	30471.43
615.38	30658.68
615.54	30546.33
615.69	30239.72
615.84	30452.71
616.00	30616.55
616.15	30155.46
616.30	30455.05
616.46	30487.82
616.61	30312.28
616.76	31054.23
616.92	30384.83
617.07	30242.06
617.22	30443.35
617.37	29886.30
617.53	30438.67
617.68	30162.48
617.83	30284.19
617.99	29855.87
618.14	30167.16
618.29	30045.46
618.45	30426.96
618.60	30466.75
618.75	30146.10
618.90	30218.66
619.06	30380.15
619.21	30354.41
619.36	30286.53
619.51	29961.20
619.67	29635.86
619.82	29844.17
619.97	30181.21
620.12	29888.64
620.28	29736.51
620.43	30019.71
620.58	29993.97
620.73	30342.70
620.89	30443.35
621.04	30127.38
621.19	30073.54
621.34	29834.81
621.49	29649.91
621.65	29593.73
621.80	29923.75
621.95	29673.31
622.10	29745.87
622.25	29898.00
622.41	29738.85
622.56	29708.42
622.71	29942.47
622.86	29745.87
623.01	29727.14
623.16	29820.77
623.32	29560.97
623.47	29680.33
623.62	29666.29
623.77	29542.24
623.92	29956.52
624.07	29582.03
624.23	29883.96
624.38	29380.74
624.53	29535.22
624.68	29612.46
624.83	29333.93
624.98	29380.74
625.13	29291.80
625.29	29696.72
625.44	29654.59
625.59	29184.14
625.74	29142.01
625.89	29095.20
626.04	29446.28
626.19	29242.65
626.34	29443.94
626.49	28851.78
626.65	29247.33
626.80	29198.18
626.95	29022.64
627.10	29404.15
627.25	29296.49
627.40	29177.12
627.55	29237.97
627.70	29113.92
627.85	28783.91
628.00	28699.65
628.15	29472.03
628.30	28655.18
628.45	29193.50
628.60	29301.17
628.76	29230.95
628.91	29083.50
629.06	28617.73
629.21	28802.63
629.36	29188.82
629.51	28748.80
629.66	28861.15
629.81	28730.08
629.96	28631.77
630.11	28826.04
630.26	28519.43
630.41	28814.34
630.56	28510.07
630.71	28737.10
630.86	28847.10
631.01	28926.68
631.16	28870.51
631.31	29181.80
631.46	28936.04
631.61	29076.48
631.76	28858.81
631.91	28573.26
632.06	28776.89
632.21	28542.83
632.36	28397.72
632.51	28343.89
632.66	28521.77
632.81	28496.02
632.96	28947.75
633.10	28671.56
633.25	28945.41
633.40	28552.20
633.55	28369.63
633.70	28379.00
633.85	28357.93
634.00	28554.54
634.15	28257.29
634.30	28313.46
634.45	28112.17
634.60	28514.75
634.75	28311.12
634.90	28194.09
635.05	28606.03
635.19	28425.81
635.34	28400.06
635.49	28503.04
635.64	28299.42
635.79	28070.04
635.94	28100.47
636.09	28404.74
636.24	27964.72
636.39	28002.17
636.53	28112.17
636.68	27946.00
636.83	27784.50
636.98	28142.60
637.13	27992.81
637.28	28222.18
637.43	28257.29
637.57	28034.94
637.72	28093.45
637.87	27953.02
638.02	28023.23
638.17	27957.70
638.32	27620.66
638.46	27803.22
638.61	27585.55
638.76	27269.58
638.91	27742.37
639.06	27388.95
639.20	27735.35
639.35	27866.42
639.50	27812.59
639.65	27835.99
639.80	27957.70
639.94	27428.74
640.09	27985.79
640.24	27826.63
640.39	27398.31
640.54	27501.29
640.68	27372.57
640.83	27428.74
640.98	27608.96
641.13	27267.24
641.27	27522.36
641.42	27660.45
641.57	27433.42
641.72	27447.46
641.86	27267.24
642.01	27239.15
642.16	27211.07
642.31	27311.71
642.45	27510.66
642.60	27419.38
642.75	27604.28
642.90	27314.05
643.04	27091.70
643.19	27281.28
643.34	27410.01
643.48	27133.83
643.63	27449.80
643.78	27222.77
643.93	27613.64
644.07	27388.95
644.22	27665.13
644.37	27220.43
644.51	27494.27
644.66	27236.81
644.81	26831.90
644.95	26890.41
645.10	26953.61
645.25	27227.45
645.39	27215.75
645.54	27257.88
645.69	27260.22
645.83	27070.64
645.98	26787.43
646.13	27253.20
646.27	26995.74
646.42	27180.64
646.57	26761.69
646.71	26859.99
646.86	27063.61
647.00	27026.17
647.15	26764.03
647.30	26583.80
647.44	26855.31
647.59	26614.23
647.74	26712.53
647.88	26885.73
648.03	26984.04
648.17	27012.12
648.32	26892.76
648.47	27065.96
648.61	26616.57
648.76	26867.01
648.90	26604.87
649.05	26719.56
649.20	26267.83
649.34	26642.32
649.49	26293.58
649.63	26490.18
649.78	26902.12
649.92	26506.57
650.07	27159.58
650.21	26209.32
650.36	26668.06
650.51	26338.05
650.65	26773.39
650.80	26565.08
650.94	26508.91
651.09	26588.49
651.23	25965.90
651.38	26551.04
651.52	26199.96
651.67	26080.59
651.81	26206.98
651.96	26214.00
652.10	26157.83
652.25	26415.29
652.39	26206.98
652.54	26253.79
652.68	26272.51
652.83	26382.52
652.97	26647.00
653.12	26270.17
653.26	26415.29
653.41	26522.95
653.55	26012.71
653.70	26099.31
653.84	26223.36
653.99	25844.20
654.13	26061.87
654.27	25956.54
654.42	26169.53
654.56	26197.62
654.71	26497.20
654.85	26284.22
655.00	26279.54
655.14	25614.82
655.29	26106.34
655.43	26012.71
655.57	26017.40
655.72	25675.68
655.86	25963.56
656.01	25942.50
656.15	25949.52
656.30	25699.08
656.44	25713.13
656.58	25687.38
656.73	26008.03
656.87	25853.56
657.01	25682.70
657.16	25902.71
657.30	25649.93
657.45	25621.84
657.59	25771.64
657.73	25972.92
657.88	25795.04
658.02	25694.40
658.16	25504.82
658.31	25343.32
658.45	25556.31
658.60	25504.82
658.74	25282.47
658.88	25406.52
659.03	24987.56
659.17	25631.21
659.31	25556.31
659.46	25443.96
659.60	25315.23
659.74	25467.37
659.89	25099.90
660.03	25336.30
660.17	25135.01
660.32	25282.47
660.46	24849.47
660.60	25083.52
660.74	25170.12
660.89	25179.48
661.03	24793.29
661.17	25003.94
661.32	24795.64
661.46	24858.83
661.60	24975.86
661.74	24971.18
661.89	25144.38
662.03	24762.87
662.17	24788.61
662.31	24446.90
662.46	24971.18
662.60	24741.80
662.74	24528.81
662.88	24634.14
663.03	24556.90
663.17	24687.97
663.31	23817.29
663.45	24519.45
663.60	24514.77
663.74	24711.38
663.88	24496.05
664.02	24252.63
664.17	24484.34
664.31	24496.05
664.45	24116.88
664.59	24360.30
664.73	24418.81
664.88	24662.22
665.02	23564.51
665.16	24020.92
665.30	23957.72
665.44	24435.19
665.59	23803.25
665.73	23927.30
665.87	23775.16
666.01	23950.70
666.15	24072.41
666.29	23718.99
666.44	23859.42
666.58	23704.95
666.72	23812.61
666.86	23840.70
667.00	23864.10
667.14	23843.04
667.28	23709.63
667.43	23744.73
667.57	23529.41
667.71	23513.02
667.85	23524.72
667.99	23566.85
668.13	23566.85
668.27	23276.63
668.41	23594.94
668.56	23159.60
668.70	23215.77
668.84	23367.91
668.98	23344.50
669.12	23309.40
669.26	23304.71
669.40	23374.93
669.54	23075.34
669.68	23398.34
669.82	22773.41
669.96	22754.69
670.10	22759.37
670.25	23269.61
670.39	22742.99
670.53	22937.25
670.67	22831.93
670.81	22771.07
670.95	22979.38
671.09	22806.18
671.23	22719.58
671.37	23084.70
671.51	22656.39
671.65	23073.00
671.79	22780.43
671.93	22803.84
672.07	22263.18
672.21	22438.72
672.35	22190.62
672.49	22005.72
672.63	22328.71
672.77	21956.57
672.91	22345.09
673.05	22174.24
673.19	22082.95
673.33	21956.57
673.47	22134.45
673.61	22368.50
673.75	22001.04
673.89	22031.46
674.03	21848.90
674.17	21766.98
674.31	21949.54
674.45	21727.19
674.59	21956.57
674.73	22017.42
674.87	21376.11
675.01	21528.25
675.15	21191.21
675.29	20910.35
675.43	21336.32
675.56	21640.59
675.70	21266.11
675.84	21226.32
675.98	20858.85
676.12	21223.98
676.26	21317.60
676.40	21097.59
676.54	21364.41
676.68	21256.75
676.82	20650.55
676.96	20809.70
677.10	21074.18
677.23	20741.83
677.37	20336.91
677.51	20683.31
677.65	20908.01
677.79	20767.57
677.93	20610.76
678.07	20425.86
678.21	20175.42
678.34	20196.48
678.48	20315.85
678.62	20105.20
678.76	20357.98
678.90	19737.74
679.04	20116.90
679.18	20301.81
679.31	19747.10
679.45	19630.07
679.59	19616.03
679.73	19470.92
679.87	19658.16
680.00	19606.67
680.14	19185.37
680.28	19648.80
680.42	19482.62
680.56	19527.09
680.70	19410.06
680.83	19562.20
680.97	19271.97
681.11	19391.34
681.25	19365.59
681.39	19295.38
681.52	19126.86
681.66	18775.78
681.80	18941.96
681.94	18696.20
682.07	18934.93
682.21	18654.07
682.35	18326.39
682.49	18588.53
682.62	18670.45
682.76	18642.37
682.90	18572.15
683.04	18576.83
683.17	18546.40
683.31	18754.71
683.45	18469.17
683.59	18429.38
683.72	18340.44
683.86	18141.49
684.00	18104.04
684.13	18202.35
684.27	17858.29
684.41	17970.63
684.55	17862.97
684.68	17369.12
684.82	17444.01
684.96	17296.56
685.09	17493.16
685.23	17502.53
685.37	17345.71
685.50	17406.56
685.64	17451.03
685.78	17436.99
685.91	17348.05
686.05	17647.64
686.19	17355.07
686.32	17397.20
686.46	17064.85
686.60	16631.85
686.73	17121.02
686.87	17006.33
687.01	16915.05
687.14	16901.01
687.28	16854.20
687.42	16374.39
687.55	16507.80
687.69	16435.24
687.82	16678.66
687.96	16620.14
688.10	16456.31
688.23	16269.06
688.37	16278.43
688.50	16170.76
688.64	16285.45
688.78	16067.78
688.91	16116.93
689.05	16334.60
689.18	15997.56
689.32	15534.14
689.46	15955.43
689.59	15618.39
689.73	15850.11
689.86	15899.26
690.00	15721.38
690.13	15625.42
690.27	15655.84
690.41	15536.48
690.54	15297.74
690.68	15068.37
690.81	15393.70
690.95	15260.29
691.08	15400.72
691.22	15651.16
691.35	15241.57
691.49	15269.66
691.62	15187.74
691.76	14874.10
691.89	15054.33
692.03	14813.25
692.16	14621.33
692.30	14864.74
692.43	14913.89
692.57	14698.56
692.70	14492.60
692.84	14270.25
692.97	14518.34
693.11	14691.54
693.24	14352.16
693.38	14281.95
693.51	14345.14
693.65	14183.65
693.78	14038.53
693.92	14143.86
694.05	14256.20
694.19	13853.63
694.32	14209.39
694.45	14052.58
694.59	13947.25
694.72	13650.00
694.86	13483.83
694.99	13483.83
695.13	13521.27
695.26	13692.13
695.39	13301.26
695.53	13465.10
695.66	13357.44
695.80	13219.35
695.93	13422.97
696.07	13591.49
696.20	13579.79
696.33	13390.20
696.47	13142.11
696.60	13076.57
696.73	13013.38
696.87	12973.59
697.00	12879.97
697.14	12765.28
697.27	12475.06
697.40	12692.73
697.54	12395.48
697.67	12662.30
697.80	12336.96
697.94	12772.30
698.07	12404.84
698.21	12549.95
698.34	12468.03
698.47	12416.54
698.61	12461.01
698.74	12241.00
698.87	12449.31
699.01	12191.85
699.14	12107.59
699.27	12217.60
699.40	12154.40
699.54	12044.40
699.67	11847.79
699.80	11754.17
699.94	11756.51
700.07	11613.74
700.20	11382.03
700.34	11566.93
700.47	11426.50
700.60	11487.35
700.73	11555.22
700.87	11592.67
701.00	11117.54
701.13	11300.11
701.26	11482.67
701.40	11620.76
701.53	11351.60
701.66	11136.27
701.79	11241.59
701.93	11183.08
702.06	10897.53
702.19	10977.11
702.32	11009.88
702.46	10714.97
702.59	10932.64
702.72	10661.14
702.85	10700.93
702.99	10619.01
703.12	10523.05
703.25	10487.94
703.38	10637.73
703.51	10534.75
703.65	10668.16
703.78	10441.13
703.91	10562.84
704.04	10462.19
704.17	10441.13
704.31	10382.62
704.44	10338.15
704.57	10083.03
704.70	10162.61
704.83	10232.82
704.96	9804.50
705.10	9860.68
705.23	10024.51
>>>>>End Processed Spectral Data<<<<<
