SpectraSuite Data File
++++++++++++++++++++++++++++++++++++
Date: Fri Oct 18 13:58:26 GMT-05:00 2013
User: bianchi
Dark Spectrum Present: No
Reference Spectrum Present: No
Number of Sampled Component Spectra: 1
Spectrometers: USB2+H05261
Integration Time (usec): 50000 (USB2+H05261)
Spectra Averaged: 1 (USB2+H05261)
Boxcar Smoothing: 0 (USB2+H05261)
Correct for Electrical Dark: No (USB2+H05261)
Strobe/Lamp Enabled: No (USB2+H05261)
Correct for Detector Non-linearity: No (USB2+H05261)
Correct for Stray Light: No (USB2+H05261)
Number of Pixels in Processed Spectrum: 2048
>>>>>Begin Processed Spectral Data<<<<<
365.73	0.00
365.92	0.00
366.12	0.00
366.32	0.00
366.52	0.00
366.72	0.00
366.91	0.00
367.11	0.00
367.31	0.00
367.51	0.00
367.70	0.00
367.90	0.00
368.10	0.00
368.30	0.00
368.49	0.00
368.69	0.00
368.89	0.00
369.09	0.00
369.28	0.00
369.48	0.00
369.68	0.00
369.87	0.00
370.07	0.00
370.27	0.00
370.47	0.00
370.66	0.00
370.86	166.18
371.06	196.60
371.25	105.32
371.45	93.62
371.65	102.98
371.84	121.71
372.04	133.41
372.24	133.41
372.44	112.35
372.63	175.54
372.83	241.08
373.03	224.69
373.22	220.01
373.42	154.48
373.62	191.92
373.81	175.54
374.01	205.97
374.21	252.78
374.40	210.65
374.60	285.55
374.79	231.71
374.99	255.12
375.19	245.76
375.38	259.80
375.58	248.10
375.78	217.67
375.97	313.63
376.17	330.02
376.37	229.37
376.56	194.26
376.76	222.35
376.95	255.12
377.15	252.78
377.35	285.55
377.54	241.08
377.74	191.92
377.93	325.33
378.13	241.08
378.33	285.55
378.52	262.14
378.72	311.29
378.91	386.19
379.11	245.76
379.31	374.49
379.50	252.78
379.70	294.91
379.89	346.40
380.09	301.93
380.28	318.31
380.48	292.57
380.68	280.86
380.87	297.25
381.07	353.42
381.26	273.84
381.46	294.91
381.65	355.76
381.85	315.97
382.04	330.02
382.24	397.89
382.43	346.40
382.63	250.44
382.83	304.27
383.02	444.70
383.22	374.49
383.41	365.12
383.61	306.61
383.80	425.98
384.00	365.12
384.19	308.95
384.39	400.23
384.58	365.12
384.78	358.10
384.97	330.02
385.17	374.49
385.36	332.36
385.56	358.10
385.75	379.17
385.95	393.21
386.14	386.19
386.34	416.62
386.53	397.89
386.72	355.76
386.92	402.57
387.11	416.62
387.31	489.17
387.50	454.06
387.70	292.57
387.89	390.87
388.09	411.93
388.28	503.22
388.48	500.87
388.67	404.91
388.86	479.81
389.06	390.87
389.25	430.66
389.45	472.79
389.64	498.53
389.84	461.09
390.03	479.81
390.22	526.62
390.42	505.56
390.61	451.72
390.81	423.64
391.00	510.24
391.19	465.77
391.39	486.83
391.58	472.79
391.78	559.39
391.97	519.60
392.16	451.72
392.36	521.94
392.55	528.96
392.75	559.39
392.94	507.90
393.13	512.58
393.33	568.75
393.52	552.37
393.71	589.82
393.91	573.43
394.10	603.86
394.29	498.53
394.49	573.43
394.68	615.56
394.88	554.71
395.07	641.31
395.26	580.45
395.46	566.41
395.65	636.63
395.84	571.09
396.04	550.03
396.23	669.39
396.42	580.45
396.62	676.41
396.81	587.47
397.00	592.16
397.19	690.46
397.39	765.36
397.58	669.39
397.77	744.29
397.97	730.25
398.16	667.05
398.35	690.46
398.55	664.71
398.74	732.59
398.93	744.29
399.12	772.38
399.32	685.78
399.51	660.03
399.70	802.80
399.90	704.50
400.09	702.16
400.28	702.16
400.47	748.97
400.67	746.63
400.86	791.10
401.05	763.01
401.24	720.88
401.44	828.55
401.63	784.08
401.82	814.51
402.01	732.59
402.21	849.61
402.40	849.61
402.59	840.25
402.78	809.83
402.97	727.91
403.17	795.78
403.36	884.72
403.55	847.27
403.74	866.00
403.93	980.68
404.13	903.45
404.32	863.66
404.51	919.83
404.70	959.62
404.89	983.02
405.09	908.13
405.28	933.87
405.47	1053.24
405.66	976.00
405.85	1090.69
406.05	999.41
406.24	950.26
406.43	933.87
406.62	1015.79
406.81	1034.52
407.00	1046.22
407.20	1027.50
407.39	1074.31
407.58	1029.84
407.77	1036.86
407.96	1118.78
408.15	1043.88
408.34	966.64
408.54	987.71
408.73	1041.54
408.92	1076.65
409.11	1083.67
409.30	1165.59
409.49	1137.50
409.68	1191.33
409.87	1114.10
410.07	1170.27
410.26	1128.14
410.45	1205.38
410.64	1142.18
410.83	1259.21
411.02	1151.54
411.21	1217.08
411.40	1256.87
411.59	1261.55
411.78	1181.97
411.98	1399.64
412.17	1280.27
412.36	1301.34
412.55	1299.00
412.74	1383.26
412.93	1399.64
413.12	1427.73
413.31	1387.94
413.50	1371.55
413.69	1437.09
413.88	1364.53
414.07	1467.52
414.26	1418.36
414.45	1423.05
414.64	1462.83
414.83	1502.62
415.02	1416.02
415.22	1516.67
415.41	1526.03
415.60	1516.67
415.79	1629.01
415.98	1572.84
416.17	1591.56
416.36	1572.84
416.55	1645.40
416.74	1554.12
416.93	1575.18
417.12	1572.84
417.31	1729.66
417.50	1715.61
417.69	1865.41
417.88	1706.25
418.07	1774.13
418.26	1685.19
418.45	1804.55
418.64	1813.92
418.83	1710.93
419.02	1717.95
419.21	1732.00
419.39	1788.17
419.58	1863.07
419.77	1764.76
419.96	1888.81
420.15	1902.86
420.34	1809.23
420.53	1762.42
420.72	1877.11
420.91	1966.05
421.10	1881.79
421.29	1919.24
421.48	1930.94
421.67	1912.22
421.86	1968.39
422.05	1975.41
422.24	1956.69
422.43	1919.24
422.61	2038.61
422.80	1874.77
422.99	1977.75
423.18	1935.62
423.37	1961.37
423.56	2054.99
423.75	1959.03
423.94	1977.75
424.13	1771.79
424.32	2008.18
424.50	2001.16
424.69	2073.71
424.88	2022.22
425.07	1998.82
425.26	1982.43
425.45	2019.88
425.64	2054.99
425.83	2047.97
426.01	1989.46
426.20	2078.40
426.39	2003.50
426.58	1954.35
426.77	2047.97
426.96	2057.33
427.15	2033.93
427.33	2167.34
427.52	2090.10
427.71	2090.10
427.90	2179.04
428.09	2197.76
428.28	2265.64
428.46	2225.85
428.65	2193.08
428.84	2237.55
429.03	2373.30
429.22	2160.31
429.40	2279.68
429.59	2324.15
429.78	2129.89
429.97	2113.50
430.16	2031.58
430.34	2228.19
430.53	2415.43
430.72	2242.23
430.91	2251.60
431.10	2363.94
431.28	2265.64
431.47	2197.76
431.66	2459.90
431.85	2476.29
432.03	2495.01
432.22	2457.56
432.41	2441.18
432.60	2459.90
432.79	2347.56
432.97	2443.52
433.16	2476.29
433.35	2544.16
433.54	2471.61
433.72	2565.23
433.91	2429.48
434.10	2434.16
434.28	2644.81
434.47	2642.46
434.66	2605.02
434.85	2497.35
435.03	2597.99
435.22	2551.18
435.41	2729.06
435.59	2590.97
435.78	2583.95
435.97	2740.77
436.16	2647.15
436.34	2546.50
436.53	2630.76
436.72	2663.53
436.90	2635.44
437.09	2633.10
437.28	2647.15
437.46	2754.81
437.65	2715.02
437.84	2782.90
438.02	2754.81
438.21	2846.09
438.40	2759.49
438.58	2757.15
438.77	2979.50
438.96	2792.26
439.14	2998.23
439.33	3000.57
439.52	3023.97
439.70	2939.71
439.89	2923.33
440.08	2967.80
440.26	3000.57
440.45	3009.93
440.63	3033.33
440.82	3171.43
441.01	2993.55
441.19	3192.49
441.38	3098.87
441.57	3220.58
441.75	3080.14
441.94	3260.37
442.12	3295.47
442.31	3267.39
442.50	3386.76
442.68	3234.62
442.87	3435.91
443.05	3349.31
443.24	3442.93
443.43	3424.20
443.61	3410.16
443.80	3417.18
443.98	3265.05
444.17	3197.17
444.35	3421.86
444.54	3449.95
444.73	3335.26
444.91	3463.99
445.10	3307.18
445.28	3318.88
445.47	3349.31
445.65	3405.48
445.84	3332.92
446.02	3492.08
446.21	3428.88
446.39	3487.40
446.58	3356.33
446.77	3508.46
446.95	3454.63
447.14	3389.10
447.32	3620.81
447.51	3403.14
447.69	3459.31
447.88	3480.38
448.06	3522.51
448.25	3515.48
448.43	3480.38
448.62	3438.25
448.80	3447.61
448.99	3440.59
449.17	3574.00
449.36	3541.23
449.54	3674.64
449.73	3660.60
449.91	3712.09
450.10	3646.55
450.28	3627.83
450.46	3669.96
450.65	3728.47
450.83	3625.49
451.02	3833.80
451.20	3801.03
451.39	3911.04
451.57	3686.34
451.76	3765.92
451.94	3625.49
452.13	3871.25
452.31	3976.57
452.49	3698.05
452.68	3730.81
452.86	3840.82
453.05	3829.12
453.23	3889.97
453.42	3880.61
453.60	3960.19
453.78	3915.72
453.97	3882.95
454.15	3953.16
454.34	3815.07
454.52	3941.46
454.70	3941.46
454.89	4007.00
455.07	3950.82
455.26	3990.61
455.44	4077.21
455.62	4039.76
455.81	4051.47
455.99	3997.64
456.17	4194.24
456.36	3988.27
456.54	4084.23
456.73	4344.03
456.91	4299.56
457.09	4337.01
457.28	4311.27
457.46	4266.80
457.64	4489.15
457.83	4327.65
458.01	4173.18
458.19	4280.84
458.38	4320.63
458.56	4362.76
458.74	4402.55
458.93	4344.03
459.11	4428.29
459.29	4568.73
459.48	4451.70
459.66	4402.55
459.84	4404.89
460.03	4538.30
460.21	4514.89
460.39	4318.29
460.57	4519.57
460.76	4498.51
460.94	4538.30
461.12	4561.70
461.31	4681.07
461.49	4444.68
461.67	4470.42
461.85	4774.69
462.04	4535.96
462.22	4748.95
462.40	4608.51
462.59	4678.73
462.77	4634.26
462.95	4905.76
463.13	4788.74
463.32	4676.39
463.50	4709.16
463.68	4894.06
463.86	4905.76
464.05	4786.40
464.23	4828.53
464.41	4798.10
464.59	4718.52
464.78	4844.91
464.96	4837.89
465.14	4943.21
465.32	4851.93
465.50	4940.87
465.69	4837.89
465.87	4945.55
466.05	5076.62
466.23	4798.10
466.41	4983.00
466.60	5188.97
466.78	4975.98
466.96	5043.85
467.14	5149.18
467.32	5046.20
467.51	5191.31
467.69	4887.04
467.87	5041.51
468.05	5118.75
468.23	4919.81
468.41	4994.70
468.60	5174.92
468.78	5245.14
468.96	5074.28
469.14	5191.31
469.32	5289.61
469.50	5163.22
469.69	5294.29
469.87	5327.06
470.05	5378.55
470.23	5362.17
470.41	5273.23
470.59	5329.40
470.77	5345.78
470.95	5516.64
471.14	5638.35
471.32	5336.42
471.50	5628.99
471.68	5668.78
471.86	5621.97
472.04	5577.50
472.22	5722.61
472.40	5518.98
472.58	5593.88
472.77	5661.76
472.95	5830.27
473.13	5923.90
473.31	5715.59
473.49	5790.49
473.67	5884.11
473.85	5778.78
474.03	5841.98
474.21	6003.47
474.39	5888.79
474.57	5998.79
474.75	6097.10
474.93	6244.55
475.12	6214.12
475.30	6202.42
475.48	6186.04
475.66	6286.68
475.84	6097.10
476.02	6296.04
476.20	6190.72
476.38	6527.75
476.56	6506.69
476.74	6406.05
476.92	6539.46
477.10	6649.46
477.28	6789.89
477.46	6595.63
477.64	6736.06
477.82	6759.47
478.00	6988.84
478.18	6956.07
478.36	6953.73
478.54	6883.52
478.72	6876.49
478.90	6967.77
479.08	7190.13
479.26	7126.93
479.44	7215.87
479.62	7185.44
479.80	7176.08
479.98	7124.59
480.16	7370.35
480.34	7461.63
480.52	7337.58
480.70	7583.34
480.88	7475.67
481.06	7798.66
481.24	7550.57
481.41	7566.95
481.59	7878.24
481.77	7948.46
481.95	7829.09
482.13	8053.78
482.31	7939.10
482.49	7981.23
482.67	7871.22
482.85	8182.51
483.03	8280.82
483.21	8454.02
483.39	8442.31
483.57	8409.54
483.74	8706.79
483.92	8667.00
484.10	8416.57
484.28	8809.78
484.46	8938.51
484.64	8816.80
484.82	9071.92
485.00	8814.46
485.18	9289.59
485.35	9275.54
485.53	9277.88
485.71	9479.17
485.89	9678.12
486.07	9577.47
486.25	9575.13
486.43	9633.64
486.61	9858.34
486.78	9593.86
486.96	9713.22
487.14	9902.81
487.32	9958.98
487.50	10097.07
487.68	10099.41
487.85	10307.72
488.03	10429.43
488.21	10721.99
488.39	10391.98
488.57	10473.90
488.75	10579.22
488.92	10815.62
489.10	10796.89
489.28	10787.53
489.46	11133.93
489.64	10761.78
489.81	11014.56
489.99	11290.74
490.17	11133.93
490.35	11562.25
490.53	11466.28
490.70	11449.90
490.88	11211.17
491.06	11639.48
491.24	11426.50
491.41	11847.79
491.59	11819.71
491.77	12156.74
491.95	12009.29
492.13	11976.52
492.30	12105.25
492.48	12138.02
492.66	12095.89
492.84	12194.19
493.01	12404.84
493.19	12622.51
493.37	12669.32
493.54	12727.83
493.72	12615.49
493.90	12725.49
494.08	12872.95
494.25	12910.40
494.43	13029.76
494.61	13181.90
494.79	13200.62
494.96	13114.02
495.14	13188.92
495.32	13551.70
495.49	13493.19
495.67	13486.17
495.85	13378.50
496.02	13486.17
496.20	13823.20
496.38	13823.20
496.55	13848.95
496.73	14071.30
496.91	13944.91
497.09	13982.36
497.26	14377.91
497.44	14054.92
497.62	14183.65
497.79	14389.61
497.97	14438.76
498.14	14525.36
498.32	15005.17
498.50	14738.35
498.67	14806.23
498.85	14754.74
499.03	14806.23
499.20	15026.24
499.38	14970.07
499.56	15131.56
499.73	15372.64
499.91	15190.08
500.08	15438.17
500.26	14899.85
500.44	15396.04
500.61	15447.54
500.79	15431.15
500.97	15592.65
501.14	15473.28
501.32	15681.59
501.49	15719.04
501.67	15573.92
501.84	15908.62
502.02	15875.85
502.20	16137.99
502.37	16086.50
502.55	15798.62
502.72	15992.88
502.90	16182.46
503.07	15719.04
503.25	16336.94
503.43	16170.76
503.60	16470.35
503.78	16458.65
503.95	16336.94
504.13	16350.98
504.30	16751.21
504.48	16545.25
504.65	16779.30
504.83	16610.78
505.01	17011.01
505.18	16858.88
505.36	16971.22
505.53	16980.59
505.71	16814.41
505.88	16889.31
506.06	17020.38
506.23	17135.06
506.41	17151.45
506.58	17191.23
506.76	17057.82
506.93	17476.78
507.11	17104.64
507.28	17326.99
507.46	17387.84
507.63	17511.89
507.81	17621.89
507.98	17621.89
508.16	17523.59
508.33	17729.56
508.50	17738.92
508.68	17802.11
508.85	17933.18
509.03	17823.18
509.20	17774.03
509.38	18106.38
509.55	18192.98
509.73	18265.54
509.90	18471.51
510.08	18108.72
510.25	18466.83
510.42	18398.95
510.60	18623.64
510.77	18443.42
510.95	18523.00
511.12	18471.51
511.30	18740.67
511.47	18604.92
511.64	18572.15
511.82	18878.76
511.99	18721.95
512.17	18930.25
512.34	18991.11
512.51	18998.13
512.69	18794.50
512.86	19084.73
513.04	19529.43
513.21	19250.91
513.38	19136.22
513.56	19536.45
513.73	19248.57
513.90	19468.58
514.08	19557.52
514.25	19494.32
514.43	20004.56
514.60	19456.87
514.77	19550.49
514.95	19960.09
515.12	19838.38
515.29	19445.17
515.47	19693.27
515.64	19889.87
515.81	19744.76
515.99	19836.04
516.16	20166.06
516.33	20006.90
516.51	20386.07
516.68	19962.43
516.85	20273.72
517.03	20510.11
517.20	20137.97
517.37	20379.04
517.54	20521.82
517.72	20430.54
517.89	20416.49
518.06	20678.63
518.24	20519.48
518.41	20655.23
518.58	20601.40
518.75	20828.43
518.93	20891.62
519.10	20851.83
519.27	20809.70
519.45	20599.05
519.62	20594.37
519.79	20910.35
519.96	20812.04
520.14	20781.62
520.31	20732.47
520.48	21336.32
520.65	20978.22
520.83	21151.42
521.00	21397.18
521.17	21022.69
521.34	21399.52
521.52	21170.15
521.69	21696.77
521.86	21631.23
522.03	21827.84
522.20	21682.72
522.38	21460.37
522.55	21455.69
522.72	21694.43
522.89	21778.68
523.07	21886.35
523.24	21916.78
523.41	21940.18
523.58	21900.39
523.75	21811.45
523.92	21699.11
524.10	21907.41
524.27	22164.87
524.44	22127.42
524.61	22300.62
524.78	22380.20
524.96	22192.96
525.13	22211.68
525.30	22211.68
525.47	22298.28
525.64	22520.63
525.81	22719.58
525.98	22698.52
526.16	22309.99
526.33	22787.46
526.50	22892.78
526.67	22368.50
526.84	22595.53
527.01	22719.58
527.18	22614.26
527.36	22724.26
527.53	23065.98
527.70	23056.62
527.87	23227.48
528.04	22696.17
528.21	22810.86
528.38	22850.65
528.55	23021.51
528.72	23328.12
528.89	23133.86
529.07	23257.90
529.24	23213.43
529.41	23171.30
529.58	23379.61
529.75	23344.50
529.92	22993.42
530.09	22878.74
530.26	23604.30
530.43	23700.26
530.60	23421.74
530.77	23484.94
530.94	23828.99
531.11	23494.30
531.28	23573.88
531.46	23414.72
531.63	23555.15
531.80	23807.93
531.97	23742.39
532.14	23747.08
532.31	23974.11
532.48	23828.99
532.65	23875.80
532.82	24191.78
532.99	24119.22
533.16	24067.73
533.33	24159.01
533.50	24435.19
533.67	24177.73
533.84	24049.00
534.01	24252.63
534.18	23983.47
534.35	24119.22
534.52	24332.21
534.69	24624.78
534.86	24180.07
535.03	24142.63
535.20	24280.72
535.37	24322.85
535.54	24753.51
535.71	24458.60
535.88	24592.01
536.05	24517.11
536.22	24741.80
536.38	24737.12
536.55	24737.12
536.72	24514.77
536.89	24613.07
537.06	24407.11
537.23	24652.86
537.40	24772.23
537.57	24945.43
537.74	24900.96
537.91	25268.42
538.08	25104.59
538.25	25020.33
538.42	25046.07
538.59	25078.84
538.75	25179.48
538.92	25120.97
539.09	24978.20
539.26	25284.81
539.43	25202.89
539.60	25348.00
539.77	25048.41
539.94	25202.89
540.11	25261.40
540.28	25249.70
540.44	25268.42
540.61	25249.70
540.78	25296.51
540.95	25493.12
541.12	25661.63
541.29	25252.04
541.46	25429.92
541.62	25500.14
541.79	25652.27
541.96	25256.72
542.13	25617.16
542.30	25837.17
542.47	25539.93
542.63	25671.00
542.80	26089.95
542.97	25883.98
543.14	26291.24
543.31	26174.21
543.48	25689.72
543.64	26558.06
543.81	26324.01
543.98	26305.28
544.15	26335.71
544.32	26497.20
544.48	26768.71
544.65	26263.15
544.82	25937.82
544.99	26036.12
545.16	26319.32
545.32	26260.81
545.49	26501.89
545.66	26576.78
545.83	26829.56
546.00	26817.86
546.16	26286.56
546.33	26003.35
546.50	26553.38
546.67	26560.40
546.83	26408.26
547.00	26443.37
547.17	26684.45
547.34	26625.93
547.50	26827.22
547.67	26991.06
547.84	27129.15
548.00	26967.65
548.17	26888.07
548.34	26838.92
548.51	27005.10
548.67	26986.38
548.84	26906.80
549.01	27056.59
549.18	27030.85
549.34	26930.20
549.51	27117.45
549.68	26972.33
549.84	27147.87
550.01	27154.90
550.18	26906.80
550.34	27395.97
550.51	27543.42
550.68	27541.08
550.84	26995.74
551.01	27569.17
551.18	27192.34
551.34	26813.18
551.51	27417.04
551.68	27641.73
551.84	27669.81
552.01	27541.08
552.18	27498.95
552.34	27447.46
552.51	27255.54
552.68	27632.36
552.84	27365.54
553.01	27665.13
553.18	27697.90
553.34	27435.76
553.51	27936.63
553.67	27274.26
553.84	28191.75
554.01	27597.26
554.17	27714.28
554.34	27473.21
554.51	27721.30
554.67	27835.99
554.84	28493.68
555.00	28013.87
555.17	27613.64
555.33	28081.75
555.50	27938.97
555.67	27887.48
555.83	27960.04
556.00	27985.79
556.16	27873.44
556.33	27969.40
556.50	28046.64
556.66	27967.06
556.83	28030.26
556.99	28519.43
557.16	28294.74
557.32	28311.12
557.49	28215.16
557.65	28011.53
557.82	27765.78
557.98	28355.59
558.15	27924.93
558.32	28095.79
558.48	28308.78
558.65	28048.98
558.81	28624.75
558.98	28404.74
559.14	28517.09
559.31	28339.21
559.47	28102.81
559.64	28444.53
559.80	28531.13
559.97	28884.55
560.13	28341.55
560.30	28556.88
560.46	28645.82
560.63	28549.85
560.79	28683.27
560.96	28587.30
561.12	28243.24
561.29	28381.34
561.45	28584.96
561.61	28779.23
561.78	28484.32
561.94	28559.22
562.11	28414.10
562.27	28802.63
562.44	28762.84
562.60	28507.72
562.77	28500.70
562.93	28620.07
563.10	28842.42
563.26	28563.90
563.42	28699.65
563.59	28877.53
563.75	28748.80
563.92	28580.28
564.08	28891.57
564.24	28599.01
564.41	28575.60
564.57	28854.12
564.74	28673.90
564.90	29149.03
565.07	28936.04
565.23	29284.78
565.39	28879.87
565.56	29006.26
565.72	28893.91
565.88	28919.66
566.05	28589.64
566.21	28837.74
566.38	28856.46
566.54	28751.14
566.70	29357.34
566.87	29184.14
567.03	29032.00
567.19	29397.13
567.36	29074.13
567.52	29053.07
567.68	29160.73
567.85	28699.65
568.01	29420.53
568.17	28774.55
568.34	28627.09
568.50	29076.48
568.66	29387.77
568.83	29338.62
568.99	29308.19
569.15	28982.85
569.32	29193.50
569.48	28910.30
569.64	29355.00
569.81	29207.55
569.97	29006.26
570.13	29399.47
570.30	29008.60
570.46	29404.15
570.62	29165.42
570.78	29226.27
570.95	29010.94
571.11	29034.35
571.27	29097.54
571.43	29120.95
571.60	29249.67
571.76	28954.77
571.92	29053.07
572.09	29088.18
572.25	29172.44
572.41	29509.47
572.57	29235.63
572.74	29720.12
572.90	28863.49
573.06	29439.26
573.22	29504.79
573.38	29357.34
573.55	29488.41
573.71	29731.83
573.87	29633.52
574.03	29579.69
574.20	29294.14
574.36	28973.49
574.52	29413.51
574.68	29324.57
574.84	29390.11
575.01	29207.55
575.17	29677.99
575.33	29235.63
575.49	29144.35
575.65	29153.71
575.82	29333.93
575.98	29310.53
576.14	29488.41
576.30	29336.27
576.46	29111.58
576.62	29420.53
576.79	29493.09
576.95	29420.53
577.11	29244.99
577.27	29525.86
577.43	29537.56
577.59	29399.47
577.75	29280.10
577.92	29221.59
578.08	29111.58
578.24	29385.43
578.40	29284.78
578.56	29404.15
578.72	29542.24
578.88	29867.58
579.04	29879.28
579.21	29455.64
579.37	29411.17
579.53	29537.56
579.69	29406.49
579.85	29392.45
580.01	29308.19
580.17	29287.12
580.33	29640.54
580.49	29301.17
580.65	29680.33
580.82	29542.24
580.98	29633.52
581.14	29502.45
581.30	29443.94
581.46	29439.26
581.62	29399.47
581.78	29666.29
581.94	29174.78
582.10	29575.01
582.26	29663.95
582.42	29645.23
582.58	29776.30
582.74	29724.80
582.90	29780.98
583.06	29874.60
583.22	29734.17
583.38	29418.19
583.54	29446.28
583.70	29352.66
583.86	29457.98
584.02	29654.59
584.18	30120.35
584.34	29647.57
584.50	29785.66
584.66	29607.78
584.82	29469.69
584.98	29766.93
585.14	29434.58
585.30	29373.72
585.46	29731.83
585.62	29490.75
585.78	30024.39
585.94	29443.94
586.10	29600.76
586.26	29764.59
586.42	29731.83
586.58	29724.80
586.74	29912.05
586.90	29408.83
587.06	29692.04
587.22	29399.47
587.38	29539.90
587.54	29979.92
587.70	29907.37
587.86	29895.66
588.02	29649.91
588.18	29965.88
588.34	30061.84
588.49	29752.89
588.65	29706.08
588.81	29900.34
588.97	29830.13
589.13	29806.72
589.29	29738.85
589.45	29809.06
589.61	29956.52
589.77	30031.41
589.93	30295.89
590.08	30176.53
590.24	30029.07
590.40	30216.32
590.56	30008.01
590.72	29832.47
590.88	29802.04
591.04	29986.94
591.20	30127.38
591.35	29902.68
591.51	30244.40
591.67	30445.69
591.83	30148.44
591.99	29818.42
592.15	30316.96
592.31	30129.72
592.46	29907.37
592.62	30075.88
592.78	29893.32
592.94	29628.84
593.10	29977.58
593.26	30202.27
593.41	30265.47
593.57	30244.40
593.73	29949.50
593.89	30162.48
594.05	30066.52
594.20	29909.71
594.36	29879.28
594.52	29869.92
594.68	29823.11
594.84	29783.32
594.99	30321.64
595.15	30134.40
595.31	30312.28
595.47	29858.21
595.62	30125.04
595.78	30155.46
595.94	30176.53
596.10	30106.31
596.25	29876.94
596.41	29984.60
596.57	30000.99
596.73	29984.60
596.88	30251.42
597.04	30366.11
597.20	30684.42
597.36	30024.39
597.51	30822.51
597.67	30251.42
597.83	29818.42
597.99	30302.92
598.14	29963.54
598.30	30054.82
598.46	29937.79
598.61	30249.08
598.77	30101.63
598.93	30221.00
599.09	30305.26
599.24	30637.61
599.40	30050.14
599.56	30043.12
599.71	30125.04
599.87	30265.47
600.03	29914.39
600.18	30441.01
600.34	30211.64
600.50	30345.05
600.65	29963.54
600.81	30391.86
600.97	30092.27
601.12	30464.41
601.28	30476.12
601.44	30347.39
601.59	30675.06
601.75	29867.58
601.91	30181.21
602.06	30246.74
602.22	30323.98
602.37	30244.40
602.53	30256.11
602.69	30382.49
602.84	30101.63
603.00	30195.25
603.16	30684.42
603.31	30085.25
603.47	30691.44
603.62	29902.68
603.78	30176.53
603.94	29963.54
604.09	30277.17
604.25	29914.39
604.40	30033.75
604.56	30120.35
604.71	30382.49
604.87	30314.62
605.03	29708.42
605.18	30478.46
605.34	30457.39
605.49	30274.83
605.65	29954.18
605.80	29869.92
605.96	29989.28
606.12	29984.60
606.27	30373.13
606.43	30204.61
606.58	29895.66
606.74	30246.74
606.89	30244.40
607.05	30384.83
607.20	30391.86
607.36	30216.32
607.51	30075.88
607.67	29883.96
607.82	29865.24
607.98	30129.72
608.13	30012.69
608.29	30354.41
608.44	30176.53
608.60	30300.58
608.75	30185.89
608.91	30047.80
609.06	30270.15
609.22	30087.59
609.37	29694.38
609.53	29965.88
609.68	29830.13
609.84	29841.83
609.99	30050.14
610.15	29841.83
610.30	30103.97
610.46	29832.47
610.61	29926.09
610.76	30321.64
610.92	29853.53
611.07	29853.53
611.23	29869.92
611.38	29708.42
611.54	29635.86
611.69	29266.06
611.84	29790.34
612.00	29179.46
612.15	29661.61
612.31	29914.39
612.46	29720.12
612.62	30125.04
612.77	29752.89
612.92	29998.65
613.08	29823.11
613.23	29535.22
613.39	29516.50
613.54	29408.83
613.69	29591.39
613.85	29511.81
614.00	29677.99
614.15	29680.33
614.31	29240.31
614.46	29773.95
614.62	30040.78
614.77	29525.86
614.92	29916.73
615.08	29366.70
615.23	29731.83
615.38	29575.01
615.54	29137.33
615.69	29296.49
615.84	29422.87
616.00	29441.60
616.15	29235.63
616.30	29462.66
616.46	29289.46
616.61	29565.65
616.76	29717.78
616.92	29493.09
617.07	29376.06
617.22	29228.61
617.37	29240.31
617.53	29603.10
617.68	29188.82
617.83	29146.69
617.99	29205.20
618.14	29163.08
618.29	29322.23
618.45	29088.18
618.60	29153.71
618.75	29214.57
618.90	29109.24
619.06	29474.37
619.21	29319.89
619.36	29240.31
619.51	28940.72
619.67	28861.15
619.82	28687.95
619.97	28996.90
620.12	28957.11
620.28	28971.15
620.43	29153.71
620.58	29137.33
620.73	29200.52
620.89	29268.40
621.04	29186.48
621.19	28840.08
621.34	28842.42
621.49	28638.80
621.65	28346.23
621.80	29102.22
621.95	28638.80
622.10	28563.90
622.25	28868.17
622.41	28549.85
622.56	28811.99
622.71	28769.86
622.86	28861.15
623.01	28891.57
623.16	28683.27
623.32	28624.75
623.47	29055.41
623.62	28718.37
623.77	28687.95
623.92	28945.41
624.07	28510.07
624.23	28664.54
624.38	28456.23
624.53	28814.34
624.68	28580.28
624.83	28531.13
624.98	28657.52
625.13	28561.56
625.29	28697.31
625.44	28676.24
625.59	28116.86
625.74	28236.22
625.89	28294.74
626.04	28161.33
626.19	28353.25
626.34	28020.89
626.49	28247.93
626.65	28065.36
626.80	28254.95
626.95	28355.59
627.10	28346.23
627.25	28425.81
627.40	28294.74
627.55	28201.11
627.70	28119.20
627.85	28095.79
628.00	28226.86
628.15	28184.73
628.30	28093.45
628.45	28177.71
628.60	27714.28
628.76	28379.00
628.91	28116.86
629.06	27999.83
629.21	27976.42
629.36	27971.74
629.51	27789.18
629.66	27814.93
629.81	27623.00
629.96	27971.74
630.11	27700.24
630.26	27688.54
630.41	27793.86
630.56	27559.81
630.71	27915.57
630.86	28027.92
631.01	27707.26
631.16	27953.02
631.31	27770.46
631.46	27669.81
631.61	27718.96
631.76	28044.30
631.91	27688.54
632.06	27805.56
632.21	27496.61
632.36	27826.63
632.51	27665.13
632.66	27601.94
632.81	27587.89
632.96	27800.88
633.10	27737.69
633.25	27908.55
633.40	27714.28
633.55	27498.95
633.70	27564.49
633.85	27414.69
634.00	27520.02
634.15	27220.43
634.30	27672.15
634.45	27283.62
634.60	27332.78
634.75	27257.88
634.90	27379.59
635.05	27400.65
635.19	27641.73
635.34	27845.35
635.49	27461.51
635.64	27370.22
635.79	27372.57
635.94	27330.44
636.09	27321.07
636.24	27215.75
636.39	27344.48
636.53	27363.20
636.68	27161.92
636.83	26981.70
636.98	27414.69
637.13	27330.44
637.28	27204.05
637.43	27714.28
637.57	27662.79
637.72	27351.50
637.87	27030.85
638.02	26920.84
638.17	27019.14
638.32	26984.04
638.46	27262.56
638.61	27012.12
638.76	26845.94
638.91	26941.91
639.06	27072.98
639.20	26862.33
639.35	27129.15
639.50	27218.09
639.65	27424.06
639.80	26902.12
639.94	27051.91
640.09	26785.09
640.24	27030.85
640.39	26960.63
640.54	26426.99
640.68	26438.69
640.83	26604.87
640.98	26239.75
641.13	26740.62
641.27	26911.48
641.42	26932.54
641.57	26483.16
641.72	26661.04
641.86	26588.49
642.01	26195.28
642.16	26663.38
642.31	26511.25
642.45	26742.96
642.60	26214.00
642.75	26206.98
642.90	26206.98
643.04	26398.90
643.19	26361.45
643.34	26515.93
643.48	26527.63
643.63	26499.55
643.78	26654.02
643.93	26174.21
644.07	26590.83
644.22	26338.05
644.37	25998.67
644.51	26471.46
644.66	25982.29
644.81	26148.46
644.95	26206.98
645.10	26108.68
645.25	26265.49
645.39	26288.90
645.54	25757.60
645.69	26075.91
645.83	25977.61
645.98	25970.58
646.13	26429.33
646.27	26499.55
646.42	26340.39
646.57	26263.15
646.71	26085.27
646.86	26150.81
647.00	26174.21
647.15	26066.55
647.30	26015.05
647.44	25900.37
647.59	26288.90
647.74	25773.98
647.88	25748.23
648.03	25862.92
648.17	25785.68
648.32	26338.05
648.47	26136.76
648.61	26066.55
648.76	26263.15
648.90	25874.62
649.05	26022.08
649.20	25891.01
649.34	25551.63
649.49	25769.30
649.63	25671.00
649.78	25584.40
649.92	25436.94
650.07	25757.60
650.21	25954.20
650.36	25605.46
650.51	25876.96
650.65	25525.88
650.80	25518.86
650.94	25390.13
651.09	25673.34
651.23	25343.32
651.38	25355.02
651.52	25340.98
651.67	25844.20
651.81	25453.33
651.96	25472.05
652.10	25270.76
652.25	25542.27
652.39	25671.00
652.54	25720.15
652.68	25820.79
652.83	25322.26
652.97	25846.54
653.12	25425.24
653.26	25596.10
653.41	25425.24
653.55	25282.47
653.70	25577.37
653.84	25188.85
653.99	25209.91
654.13	25708.44
654.27	24842.45
654.42	25275.45
654.56	25149.06
654.71	25048.41
654.85	24938.41
655.00	25301.19
655.14	25048.41
655.29	24971.18
655.43	25315.23
655.57	25280.13
655.72	25298.85
655.86	25097.56
656.01	25062.46
656.15	24891.60
656.30	25003.94
656.44	25123.31
656.58	24671.59
656.73	24751.17
656.87	24739.46
657.01	25326.94
657.16	24882.24
657.30	24966.49
657.45	25230.98
657.59	25020.33
657.73	24596.69
657.88	24940.75
658.02	24734.78
658.16	24816.70
658.31	24720.74
658.45	24430.51
658.60	24346.25
658.74	24388.38
658.88	24491.37
659.03	24592.01
659.17	24664.57
659.31	24584.99
659.46	24666.91
659.60	24570.94
659.74	24737.12
659.89	24116.88
660.03	24212.84
660.17	24362.64
660.32	24219.86
660.46	24130.92
660.60	23990.49
660.74	24070.07
660.89	24479.66
661.03	24006.87
661.17	24243.27
661.32	24046.66
661.46	23934.32
661.60	23833.68
661.74	24224.54
661.89	24266.67
662.03	24123.90
662.17	23976.45
662.31	23955.38
662.46	24056.03
662.60	23789.20
662.74	24107.52
662.88	24020.92
663.03	23468.55
663.17	23726.01
663.31	23576.22
663.45	23321.10
663.60	23452.17
663.74	23328.12
663.88	23477.91
664.02	23545.79
664.17	23407.70
664.31	23454.51
664.45	23679.20
664.59	23658.14
664.73	23246.20
664.88	23538.77
665.02	22937.25
665.16	23417.06
665.30	23257.90
665.44	23412.38
665.59	23300.03
665.73	23239.18
665.87	23026.19
666.01	23466.21
666.15	23080.02
666.29	23302.37
666.44	23194.71
666.58	22897.46
666.72	22885.76
666.86	23019.17
667.00	23243.86
667.14	23002.78
667.28	22693.83
667.43	22831.93
667.57	22560.42
667.71	22546.38
667.85	22710.22
667.99	22827.24
668.13	22941.93
668.27	22572.13
668.41	22625.96
668.56	22764.05
668.70	22490.21
668.84	22857.67
668.98	22497.23
669.12	22410.63
669.26	22576.81
669.40	22331.05
669.54	22073.59
669.68	22527.66
669.82	21956.57
669.96	21891.03
670.10	22209.34
670.25	22333.39
670.39	21851.24
670.53	22003.38
670.67	22167.21
670.81	21813.79
670.95	21977.63
671.09	21872.31
671.23	22148.49
671.37	21912.10
671.51	22015.08
671.65	21668.68
671.79	22015.08
671.93	21823.16
672.07	22059.55
672.21	21652.30
672.35	21401.86
672.49	21401.86
672.63	21596.12
672.77	21425.26
672.91	21401.86
673.05	21483.78
673.19	21336.32
673.33	21191.21
673.47	21228.66
673.61	21429.94
673.75	21266.11
673.89	21495.48
674.03	20893.96
674.17	21214.62
674.31	21191.21
674.45	21069.50
674.59	21507.18
674.73	21064.82
674.87	21027.37
675.01	20837.79
675.15	20758.21
675.29	20617.78
675.43	20966.52
675.56	20563.95
675.70	20573.31
675.84	20716.08
675.98	20004.56
676.12	20360.32
676.26	20470.33
676.40	20400.11
676.54	20528.84
676.68	20224.57
676.82	20357.98
676.96	20203.50
677.10	20107.54
677.23	20016.26
677.37	20023.28
677.51	19765.82
677.65	19786.89
677.79	20060.73
677.93	19929.66
678.07	19796.25
678.21	19513.05
678.34	19868.81
678.48	19585.60
678.62	19168.99
678.76	19559.86
678.90	19293.04
679.04	19342.19
679.18	19152.60
679.31	19302.40
679.45	19044.94
679.59	18946.64
679.73	18951.32
679.87	18939.62
680.00	18888.12
680.14	18773.44
680.28	18768.76
680.42	18600.24
680.56	18497.25
680.70	18642.37
680.83	18728.97
680.97	18789.82
681.11	18677.48
681.25	18412.99
681.39	18455.12
681.52	18544.06
681.66	18314.69
681.80	18401.29
681.94	18094.68
682.07	18354.48
682.21	18295.97
682.35	18045.53
682.49	17502.53
682.62	17970.63
682.76	17696.79
682.90	17781.05
683.04	17757.64
683.17	17933.18
683.31	17848.93
683.45	17902.76
683.59	17727.22
683.72	17479.12
683.86	17610.19
684.00	17310.60
684.13	17397.20
684.27	16996.97
684.41	17317.62
684.55	16994.63
684.68	17135.06
684.82	16898.67
684.96	17020.38
685.09	16666.95
685.23	16800.37
685.37	16585.04
685.50	16851.86
685.64	16704.40
685.78	16655.25
685.91	17060.16
686.05	16486.73
686.19	16566.31
686.32	16662.27
686.46	16468.01
686.60	16166.08
686.73	16395.45
686.87	16432.90
687.01	16409.50
687.14	15957.77
687.28	16152.04
687.42	16133.31
687.55	16023.31
687.69	16079.48
687.82	15988.20
687.96	16027.99
688.10	15932.03
688.23	15922.66
688.37	15957.77
688.50	15618.39
688.64	15770.53
688.78	15314.13
688.91	15716.70
689.05	15393.70
689.18	15578.61
689.32	15199.44
689.46	15241.57
689.59	15405.41
689.73	15283.70
689.86	15187.74
690.00	15173.69
690.13	15047.30
690.27	15021.56
690.41	15075.39
690.54	15101.14
690.68	14916.23
690.81	14981.77
690.95	14747.72
691.08	14932.62
691.22	14841.34
691.35	15007.52
691.49	14623.67
691.62	14363.87
691.76	14422.38
691.89	14157.90
692.03	14347.48
692.16	14078.32
692.30	14122.79
692.43	14281.95
692.57	14010.45
692.70	14190.67
692.84	14162.58
692.97	13809.16
693.11	13830.23
693.24	13837.25
693.38	13984.70
693.51	13802.14
693.65	13886.40
693.78	13551.70
693.92	13785.76
694.05	13572.77
694.19	13317.65
694.32	13692.13
694.45	13350.42
694.59	13209.98
694.72	13036.78
694.86	13128.06
694.99	13001.68
695.13	13092.96
695.26	12961.89
695.39	12856.56
695.53	12992.31
695.66	13081.25
695.80	12821.45
695.93	13130.41
696.07	12851.88
696.20	12877.63
696.33	12491.44
696.47	12624.85
696.60	12589.74
696.73	12681.02
696.87	12688.04
697.00	12709.11
697.14	12503.14
697.27	12189.51
697.40	12278.45
697.54	12037.38
697.67	11995.25
697.80	12107.59
697.94	11882.90
698.07	11892.26
698.21	11960.14
698.34	12035.03
698.47	11866.52
698.61	11786.94
698.74	11946.09
698.87	11859.49
699.01	11976.52
699.14	11775.24
699.27	11571.61
699.40	11721.40
699.54	11494.37
699.67	11405.43
699.80	11527.14
699.94	11477.99
700.07	11250.96
700.20	11257.98
700.34	10913.92
700.47	11098.82
700.60	11197.12
700.73	10979.45
700.87	11070.73
701.00	11023.92
701.13	11063.71
701.26	11035.63
701.40	11007.54
701.53	10822.64
701.66	10878.81
701.79	10623.69
701.93	10764.12
702.06	10560.50
702.19	10399.00
702.32	10665.82
702.46	10497.30
702.59	10354.53
702.72	10204.74
702.85	10239.84
702.99	10134.52
703.12	10040.90
703.25	10209.42
703.38	10483.26
703.51	10324.10
703.65	10129.84
703.78	10073.67
703.91	9991.75
704.04	9949.62
704.17	10094.73
704.31	9898.13
704.44	9879.40
704.57	9638.33
704.70	9750.67
704.83	9722.59
704.96	9706.20
705.10	9626.62
705.23	9437.04
>>>>>End Processed Spectral Data<<<<<
