SpectraSuite Data File
++++++++++++++++++++++++++++++++++++
Date: Fri Oct 18 13:58:12 GMT-05:00 2013
User: bianchi
Dark Spectrum Present: No
Reference Spectrum Present: No
Number of Sampled Component Spectra: 1
Spectrometers: USB2+H05261
Integration Time (usec): 50000 (USB2+H05261)
Spectra Averaged: 1 (USB2+H05261)
Boxcar Smoothing: 0 (USB2+H05261)
Correct for Electrical Dark: No (USB2+H05261)
Strobe/Lamp Enabled: No (USB2+H05261)
Correct for Detector Non-linearity: No (USB2+H05261)
Correct for Stray Light: No (USB2+H05261)
Number of Pixels in Processed Spectrum: 2048
>>>>>Begin Processed Spectral Data<<<<<
365.73	0.00
365.92	0.00
366.12	0.00
366.32	0.00
366.52	0.00
366.72	0.00
366.91	0.00
367.11	0.00
367.31	0.00
367.51	0.00
367.70	0.00
367.90	0.00
368.10	0.00
368.30	0.00
368.49	0.00
368.69	0.00
368.89	0.00
369.09	0.00
369.28	0.00
369.48	0.00
369.68	0.00
369.87	0.00
370.07	0.00
370.27	0.00
370.47	0.00
370.66	81.92
370.86	49.15
371.06	117.03
371.25	140.43
371.45	140.43
371.65	112.35
371.84	224.69
372.04	110.01
372.24	196.60
372.44	229.37
372.63	159.16
372.83	198.95
373.03	149.79
373.22	205.97
373.42	231.71
373.62	236.39
373.81	222.35
374.01	194.26
374.21	182.56
374.40	224.69
374.60	292.57
374.79	173.20
374.99	245.76
375.19	259.80
375.38	210.65
375.58	182.56
375.78	278.52
375.97	297.25
376.17	337.04
376.37	276.18
376.56	238.73
376.76	236.39
376.95	276.18
377.15	250.44
377.35	290.23
377.54	269.16
377.74	280.86
377.93	250.44
378.13	400.23
378.33	294.91
378.52	304.27
378.72	278.52
378.91	306.61
379.11	255.12
379.31	365.12
379.50	306.61
379.70	271.50
379.89	327.68
380.09	348.74
380.28	273.84
380.48	365.12
380.68	285.55
380.87	269.16
381.07	299.59
381.26	325.33
381.46	278.52
381.65	311.29
381.85	379.17
382.04	337.04
382.24	283.20
382.43	369.80
382.63	423.64
382.83	374.49
383.02	259.80
383.22	411.93
383.41	395.55
383.61	369.80
383.80	393.21
384.00	332.36
384.19	341.72
384.39	421.30
384.58	360.44
384.78	407.25
384.97	421.30
385.17	433.00
385.36	374.49
385.56	390.87
385.75	395.55
385.95	367.46
386.14	376.83
386.34	353.42
386.53	423.64
386.72	390.87
386.92	430.66
387.11	465.77
387.31	484.49
387.50	421.30
387.70	444.70
387.89	442.36
388.09	409.59
388.28	454.06
388.48	397.89
388.67	458.74
388.86	430.66
389.06	552.37
389.25	557.05
389.45	505.56
389.64	514.92
389.84	433.00
390.03	491.51
390.22	454.06
390.42	444.70
390.61	496.19
390.81	409.59
391.00	479.81
391.19	564.07
391.39	554.71
391.58	458.74
391.78	517.26
391.97	524.28
392.16	468.11
392.36	528.96
392.55	624.92
392.75	575.77
392.94	531.30
393.13	496.19
393.33	514.92
393.52	578.11
393.71	594.50
393.91	554.71
394.10	557.05
394.29	592.16
394.49	587.47
394.68	585.13
394.88	587.47
395.07	690.46
395.26	713.86
395.46	582.79
395.65	592.16
395.84	763.01
396.04	643.65
396.23	582.79
396.42	660.03
396.62	629.60
396.81	664.71
397.00	641.31
397.19	667.05
397.39	716.20
397.58	690.46
397.77	641.31
397.97	657.69
398.16	699.82
398.35	739.61
398.55	720.88
398.74	690.46
398.93	685.78
399.12	638.97
399.32	784.08
399.51	781.74
399.70	809.83
399.90	770.04
400.09	774.72
400.28	755.99
400.47	779.40
400.67	777.06
400.86	816.85
401.05	800.46
401.24	842.59
401.44	826.21
401.63	833.23
401.82	851.96
402.01	821.53
402.21	847.27
402.40	748.97
402.59	842.59
402.78	861.32
402.97	786.42
403.17	828.55
403.36	894.08
403.55	837.91
403.74	891.74
403.93	959.62
404.13	926.85
404.32	877.70
404.51	929.19
404.70	889.40
404.89	990.05
405.09	1004.09
405.28	931.53
405.47	966.64
405.66	980.68
405.85	1036.86
406.05	990.05
406.24	933.87
406.43	1057.92
406.62	1048.56
406.81	1111.75
407.00	1060.26
407.20	994.73
407.39	1006.43
407.58	1116.44
407.77	1006.43
407.96	1053.24
408.15	1123.46
408.34	1123.46
408.54	1144.52
408.73	964.30
408.92	1083.67
409.11	1174.95
409.30	1188.99
409.49	1186.65
409.68	1196.01
409.87	1118.78
410.07	1198.35
410.26	1226.44
410.45	1130.48
410.64	1179.63
410.83	1196.01
411.02	1282.61
411.21	1284.95
411.40	1221.76
411.59	1324.74
411.78	1277.93
411.98	1317.72
412.17	1277.93
412.36	1364.53
412.55	1296.66
412.74	1308.36
412.93	1348.15
413.12	1404.32
413.31	1406.66
413.50	1481.56
413.69	1495.60
413.88	1427.73
414.07	1526.03
414.26	1493.26
414.45	1507.30
414.64	1479.22
414.83	1533.05
415.02	1537.73
415.22	1549.43
415.41	1652.42
415.60	1640.72
415.79	1502.62
415.98	1579.86
416.17	1708.59
416.36	1600.93
416.55	1621.99
416.74	1696.89
416.93	1741.36
417.12	1769.44
417.31	1640.72
417.50	1696.89
417.69	1710.93
417.88	1769.44
418.07	1757.74
418.26	1750.72
418.45	1825.62
418.64	1952.01
418.83	1825.62
419.02	1863.07
419.21	1827.96
419.39	1811.57
419.58	1776.47
419.77	1813.92
419.96	1837.32
420.15	1905.20
420.34	1806.89
420.53	1966.05
420.72	1963.71
420.91	1944.99
421.10	1989.46
421.29	1989.46
421.48	1963.71
421.67	2153.29
421.86	1998.82
422.05	1961.37
422.24	1959.03
422.43	1975.41
422.61	1996.48
422.80	2024.56
422.99	2047.97
423.18	2099.46
423.37	2101.80
423.56	2015.20
423.75	2099.46
423.94	1933.28
424.13	1987.11
424.32	1900.52
424.50	2047.97
424.69	2038.61
424.88	1998.82
425.07	2080.74
425.26	2101.80
425.45	1989.46
425.64	2073.71
425.83	1987.11
426.01	2069.03
426.20	2118.18
426.39	2108.82
426.58	2115.84
426.77	2083.08
426.96	2195.42
427.15	2155.63
427.33	2111.16
427.52	2134.57
427.71	2200.10
427.90	2195.42
428.09	2249.25
428.28	2204.78
428.46	2296.07
428.65	2347.56
428.84	2342.88
429.03	2366.28
429.22	2272.66
429.40	2263.30
429.59	2359.26
429.78	2251.60
429.97	2181.38
430.16	2225.85
430.34	2438.84
430.53	2335.85
430.72	2431.82
430.91	2342.88
431.10	2368.62
431.28	2312.45
431.47	2483.31
431.66	2546.50
431.85	2431.82
432.03	2492.67
432.22	2464.58
432.41	2487.99
432.60	2438.84
432.79	2497.35
432.97	2516.08
433.16	2520.76
433.35	2417.77
433.54	2499.69
433.72	2588.63
433.91	2541.82
434.10	2607.36
434.28	2537.14
434.47	2651.83
434.66	2567.57
434.85	2621.40
435.03	2511.39
435.22	2640.12
435.41	2827.37
435.59	2691.62
435.78	2668.21
435.97	2651.83
436.16	2642.46
436.34	2731.41
436.53	2801.62
436.72	2715.02
436.90	2703.32
437.09	2916.31
437.28	2595.65
437.46	2787.58
437.65	2705.66
437.84	2677.57
438.02	2841.41
438.21	2780.56
438.40	2693.96
438.58	3059.08
438.77	2897.58
438.96	2956.10
439.14	2998.23
439.33	3000.57
439.52	3016.95
439.70	3070.78
439.89	3157.38
440.08	3014.61
440.26	3117.59
440.45	3171.43
440.63	3110.57
440.82	3138.66
441.01	3180.79
441.19	3136.32
441.38	3251.00
441.57	3260.37
441.75	3213.56
441.94	3318.88
442.12	3297.81
442.31	3375.05
442.50	3358.67
442.68	3339.94
442.87	3480.38
443.05	3283.77
443.24	3445.27
443.43	3375.05
443.61	3377.39
443.80	3644.21
443.98	3323.56
444.17	3267.39
444.35	3382.07
444.54	3630.17
444.73	3588.04
444.91	3475.70
445.10	3590.38
445.28	3482.72
445.47	3513.14
445.65	3574.00
445.84	3524.85
446.02	3634.85
446.21	3480.38
446.39	3496.76
446.58	3620.81
446.77	3473.36
446.95	3597.40
447.14	3529.53
447.32	3515.48
447.51	3651.24
447.69	3569.32
447.88	3499.10
448.06	3597.40
448.25	3613.79
448.43	3569.32
448.62	3527.19
448.80	3667.62
448.99	3700.39
449.17	3716.77
449.36	3632.51
449.54	3705.07
449.73	3709.75
449.91	3775.28
450.10	3719.11
450.28	3882.95
450.46	3817.41
450.65	3908.69
450.83	3932.10
451.02	3803.37
451.20	3976.57
451.39	3904.01
451.57	3836.14
451.76	3920.40
451.94	3836.14
452.13	3950.82
452.31	3915.72
452.49	3911.04
452.68	3953.16
452.86	3794.01
453.05	4049.13
453.23	3999.98
453.42	3995.29
453.60	3915.72
453.78	4128.70
453.97	3892.31
454.15	3950.82
454.34	3964.87
454.52	4243.39
454.70	4063.17
454.89	4191.90
455.07	4227.01
455.26	4187.22
455.44	4219.99
455.62	4091.26
455.81	4271.48
455.99	4133.39
456.17	4227.01
456.36	4234.03
456.54	4362.76
456.73	4259.78
456.91	4517.23
457.09	4344.03
457.28	4489.15
457.46	4362.76
457.64	4383.82
457.83	4374.46
458.01	4325.31
458.19	4512.55
458.38	4461.06
458.56	4470.42
458.74	4603.83
458.93	4617.88
459.11	4547.66
459.29	4638.94
459.48	4723.20
459.66	4592.13
459.84	4512.55
460.03	4695.11
460.21	4706.82
460.39	4580.43
460.57	4540.64
460.76	4760.65
460.94	4683.41
461.12	4718.52
461.31	4800.44
461.49	4641.28
461.67	4727.88
461.85	4732.56
462.04	4877.68
462.22	5137.48
462.40	4816.82
462.59	4781.71
462.77	4676.39
462.95	4985.34
463.13	4802.78
463.32	5064.92
463.50	4924.49
463.68	5062.58
463.86	4968.96
464.05	4863.63
464.23	4997.04
464.41	5184.29
464.59	4919.81
464.78	5170.24
464.96	5018.11
465.14	5011.09
465.32	5210.03
465.50	5146.84
465.69	5121.09
465.87	5064.92
466.05	5013.43
466.23	4985.34
466.41	5282.59
466.60	5245.14
466.78	5121.09
466.96	5090.67
467.14	5130.45
467.32	5261.52
467.51	5249.82
467.69	5074.28
467.87	5334.08
468.05	5371.53
468.23	5212.37
468.41	5371.53
468.60	5481.53
468.78	5451.11
468.96	5329.40
469.14	5432.38
469.32	5556.43
469.50	5394.93
469.69	5554.09
469.87	5537.71
470.05	5607.92
470.23	5778.78
470.41	5385.57
470.59	5504.94
470.77	5631.33
470.95	5767.08
471.14	5654.73
471.32	5490.90
471.50	5710.91
471.68	5619.63
471.86	5785.80
472.04	5717.93
472.22	5968.37
472.40	5687.50
472.58	5886.45
472.77	5951.98
472.95	6045.60
473.13	6139.23
473.31	6052.63
473.49	6003.47
473.67	5895.81
473.85	5991.77
474.03	6078.37
474.21	6080.71
474.39	6197.74
474.57	6174.33
474.75	6333.49
474.93	6277.32
475.12	6244.55
475.30	6265.61
475.48	6225.82
475.66	6457.54
475.84	6466.90
476.02	6558.18
476.20	6452.86
476.38	6630.74
476.56	6902.24
476.74	6532.44
476.92	6504.35
477.10	6799.26
477.28	6834.36
477.46	6733.72
477.64	6719.68
477.82	7007.56
478.00	6963.09
478.18	7082.46
478.36	7124.59
478.54	7054.37
478.72	7208.85
478.90	7283.75
479.08	7344.60
479.26	7543.55
479.44	7552.91
479.62	7581.00
479.80	7576.31
479.98	7761.22
480.16	7915.69
480.34	7573.97
480.52	7585.68
480.70	7805.69
480.88	7714.41
481.06	7833.77
481.24	7990.59
481.41	7927.39
481.59	8116.98
481.77	8196.56
481.95	8276.13
482.13	8360.39
482.31	8360.39
482.49	8325.29
482.67	8393.16
482.85	8568.70
483.03	8557.00
483.21	8702.11
483.39	8973.61
483.57	8828.50
483.74	8755.94
483.92	9125.75
484.10	8837.86
484.28	8924.46
484.46	9132.77
484.64	9420.66
484.82	9434.70
485.00	9394.91
485.18	9430.02
485.35	9750.67
485.53	9577.47
485.71	9643.01
485.89	9792.80
486.07	9823.23
486.25	9748.33
486.43	10085.37
486.61	10092.39
486.78	10012.81
486.96	10125.16
487.14	10387.30
487.32	10251.55
487.50	10286.65
487.68	10429.43
487.85	10623.69
488.03	10750.08
488.21	10869.45
488.39	10719.65
488.57	11002.86
488.75	10888.17
488.92	11122.23
489.10	11246.27
489.28	11187.76
489.46	11323.51
489.64	11625.44
489.81	11508.41
489.99	11501.39
490.17	11557.57
490.35	11768.21
490.53	11784.60
490.70	11955.46
490.88	12173.13
491.06	11845.45
491.24	12020.99
491.41	12238.66
491.59	12241.00
491.77	12329.94
491.95	12559.31
492.13	12489.10
492.30	12512.50
492.48	12652.94
492.66	12943.16
492.84	12755.92
493.01	12652.94
493.19	12945.50
493.37	13060.19
493.54	13123.38
493.72	13188.92
493.90	13207.64
494.08	13315.31
494.25	13474.46
494.43	13579.79
494.61	13654.69
494.79	13315.31
494.96	13844.27
495.14	13790.44
495.32	13935.55
495.49	13928.53
495.67	14003.43
495.85	13895.76
496.02	14291.31
496.20	14490.26
496.38	14225.78
496.55	14108.75
496.73	14707.93
496.91	14389.61
497.09	14714.95
497.26	14799.21
497.44	14483.24
497.62	14534.73
497.79	15026.24
497.97	14911.55
498.14	15051.99
498.32	15314.13
498.50	15105.82
498.67	15438.17
498.85	15288.38
499.03	15417.11
499.20	15396.04
499.38	15279.02
499.56	15499.03
499.73	15674.57
499.91	15690.95
500.08	15655.84
500.26	15559.88
500.44	15665.21
500.61	15833.72
500.79	15908.62
500.97	16259.70
501.14	16278.43
501.32	16301.83
501.49	16313.53
501.67	16358.00
501.84	16290.13
502.02	16182.46
502.20	16620.14
502.37	16538.23
502.55	16528.86
502.72	16758.24
502.90	16854.20
503.07	16805.05
503.25	16673.98
503.43	16704.40
503.60	16905.69
503.78	16849.52
503.95	16847.18
504.13	16734.83
504.30	17125.70
504.48	17205.28
504.65	17289.54
504.83	17394.86
505.01	17418.27
505.18	17530.61
505.36	17455.72
505.53	17380.82
505.71	17385.50
505.88	17460.40
506.06	17610.19
506.23	17862.97
506.41	17743.60
506.58	18036.17
506.76	17795.09
506.93	17626.57
507.11	17848.93
507.28	17811.48
507.46	18061.91
507.63	17977.65
507.81	18394.27
507.98	18118.09
508.16	18171.92
508.33	18113.41
508.50	18288.95
508.68	18515.98
508.85	18551.09
509.03	18693.86
509.20	18623.64
509.38	18747.69
509.55	19028.56
509.73	18862.38
509.90	18862.38
510.08	18838.97
510.25	18616.62
510.42	18918.55
510.60	19126.86
510.77	19168.99
510.95	19445.17
511.12	19164.31
511.30	19293.04
511.47	19328.14
511.64	19470.92
511.82	19466.24
511.99	19543.47
512.17	19740.08
512.34	19442.83
512.51	19550.49
512.69	19674.54
512.86	19721.35
513.04	19969.45
513.21	19955.41
513.38	20093.50
513.56	19953.07
513.73	20077.12
513.90	19822.00
514.08	20002.22
514.25	20044.35
514.43	20189.46
514.60	20402.45
514.77	20205.84
514.95	20109.88
515.12	20594.37
515.29	20180.10
515.47	20374.36
515.64	20556.93
515.81	20168.40
515.99	20676.29
516.16	20833.11
516.33	20882.26
516.51	20936.09
516.68	20650.55
516.85	20594.37
517.03	20805.02
517.20	20924.39
517.37	20886.94
517.54	21404.20
517.72	21106.95
517.89	21132.70
518.06	21177.17
518.24	21338.66
518.41	21057.80
518.58	21074.18
518.75	21317.60
518.93	21399.52
519.10	21443.99
519.27	21565.70
519.45	21188.87
519.62	21771.66
519.79	21469.73
519.96	21846.56
520.14	21762.30
520.31	21607.83
520.48	21951.88
520.65	21591.44
520.83	21830.18
521.00	21759.96
521.17	21584.42
521.34	22342.75
521.52	22141.47
521.69	22249.13
521.86	22277.22
522.03	22260.84
522.20	22167.21
522.38	22338.07
522.55	22424.67
522.72	22368.50
522.89	22487.87
523.07	22721.92
523.24	22707.88
523.41	22658.73
523.58	22494.89
523.75	22824.90
523.92	22698.52
524.10	22836.61
524.27	23096.41
524.44	23323.44
524.61	22972.36
524.78	22792.14
524.96	23264.92
525.13	22979.38
525.30	23197.05
525.47	23140.88
525.64	23246.20
525.81	23491.96
525.98	23339.82
526.16	23225.14
526.33	23234.50
526.50	23508.34
526.67	23454.51
526.84	23445.15
527.01	23426.42
527.18	23709.63
527.36	23770.48
527.53	23438.12
527.70	23920.28
527.87	23976.45
528.04	23866.44
528.21	23796.23
528.38	24114.54
528.55	23927.30
528.72	23908.57
528.89	23950.70
529.07	23934.32
529.24	24369.66
529.41	23885.17
529.58	23892.19
529.75	23878.15
529.92	24444.56
530.09	24393.06
530.26	23917.93
530.43	24107.52
530.60	24093.47
530.77	24203.48
530.94	24294.76
531.11	24528.81
531.28	24636.48
531.46	24023.26
531.63	24783.93
531.80	24697.33
531.97	24627.12
532.14	24929.05
532.31	24790.95
532.48	24961.81
532.65	24423.49
532.82	24900.96
532.99	24861.17
533.16	24835.42
533.33	25039.05
533.50	25156.08
533.67	25228.63
533.84	25043.73
534.01	25184.16
534.18	24781.59
534.35	25436.94
534.52	24952.45
534.69	25352.68
534.86	25371.41
535.03	25046.07
535.20	25432.26
535.37	25352.68
535.54	25795.04
535.71	25394.81
535.88	25549.29
536.05	25542.27
536.22	25687.38
536.38	25518.86
536.55	25628.87
536.72	26127.40
536.89	25390.13
537.06	25500.14
537.23	25443.96
537.40	25736.53
537.57	25813.77
537.74	25893.35
537.91	26071.23
538.08	25944.84
538.25	25891.01
538.42	25830.15
538.59	25710.78
538.75	25795.04
538.92	26024.42
539.09	26122.72
539.26	25956.54
539.43	26197.62
539.60	26204.64
539.77	26356.77
539.94	26405.92
540.11	26160.17
540.28	26274.85
540.44	26316.98
540.61	25855.90
540.78	26434.01
540.95	26487.84
541.12	26277.19
541.29	26396.56
541.46	26492.52
541.62	26333.37
541.79	26579.12
541.96	26630.62
542.13	26256.13
542.30	26572.10
542.47	26581.46
542.63	26934.88
542.80	26953.61
542.97	26642.32
543.14	27168.94
543.31	26499.55
543.48	26960.63
543.64	27157.24
543.81	27143.19
543.98	27171.28
544.15	26972.33
544.32	27770.46
544.48	27332.78
544.65	27428.74
544.82	27302.35
544.99	27232.13
545.16	27564.49
545.32	27220.43
545.49	27513.00
545.66	27470.87
545.83	27821.95
546.00	27943.66
546.16	27695.56
546.33	27747.05
546.50	27138.51
546.67	27536.40
546.83	27101.06
547.00	27365.54
547.17	27871.10
547.34	27377.25
547.50	27859.40
547.67	28053.66
547.84	27929.61
548.00	27564.49
548.17	27672.15
548.34	27807.90
548.51	28240.90
548.67	28149.62
548.84	28180.05
549.01	27775.14
549.18	28250.27
549.34	28079.41
549.51	28079.41
549.68	27878.12
549.84	27948.34
550.01	28168.35
550.18	27826.63
550.34	28187.07
550.51	28278.35
550.68	28414.10
550.84	28034.94
551.01	28374.31
551.18	28048.98
551.34	28184.73
551.51	28278.35
551.68	28299.42
551.84	28622.41
552.01	28346.23
552.18	28168.35
552.34	28423.47
552.51	28821.36
552.68	28648.16
552.84	28837.74
553.01	28842.42
553.18	28608.37
553.34	28540.49
553.51	28790.93
553.67	28685.61
553.84	28989.88
554.01	28718.37
554.17	28327.50
554.34	28325.16
554.51	28966.47
554.67	28978.17
554.84	28851.78
555.00	29001.58
555.17	28664.54
555.33	28760.50
555.50	28809.65
555.67	28891.57
555.83	29235.63
556.00	29256.70
556.16	29006.26
556.33	28914.98
556.50	29010.94
556.66	29247.33
556.83	29041.37
556.99	29256.70
557.16	29399.47
557.32	29577.35
557.49	29425.22
557.65	28863.49
557.82	29214.57
557.98	28886.89
558.15	29216.91
558.32	29450.96
558.48	29163.08
558.65	29591.39
558.81	29057.75
558.98	29390.11
559.14	29284.78
559.31	29240.31
559.47	29165.42
559.64	29607.78
559.80	29741.19
559.97	29820.77
560.13	29553.94
560.30	29539.90
560.46	29415.85
560.63	29720.12
560.79	29792.68
560.96	29809.06
561.12	29252.02
561.29	29383.09
561.45	29633.52
561.61	30019.71
561.78	29685.01
561.94	29881.62
562.11	29982.26
562.27	30122.69
562.44	30096.95
562.60	29862.90
562.77	29600.76
562.93	29745.87
563.10	29729.48
563.26	29780.98
563.42	30272.49
563.59	29736.51
563.75	29771.61
563.92	30015.03
564.08	29542.24
564.24	29778.64
564.41	30412.92
564.57	29773.95
564.74	29855.87
564.90	30366.11
565.07	30239.72
565.23	29886.30
565.39	29984.60
565.56	30115.67
565.72	29851.19
565.88	30022.05
566.05	29778.64
566.21	29701.40
566.38	29928.43
566.54	30141.42
566.70	30216.32
566.87	30096.95
567.03	30450.37
567.19	30581.44
567.36	30162.48
567.52	30141.42
567.68	30342.70
567.85	29975.24
568.01	30714.85
568.17	29902.68
568.34	30422.28
568.50	30749.96
568.66	30103.97
568.83	30354.41
568.99	30347.39
569.15	30352.07
569.32	30471.43
569.48	30054.82
569.64	29900.34
569.81	30323.98
569.97	30457.39
570.13	30801.45
570.30	30239.72
570.46	30616.55
570.62	30335.68
570.78	30396.54
570.95	30118.01
571.11	30354.41
571.27	30263.13
571.43	30115.67
571.60	30431.65
571.76	30522.93
571.92	30387.18
572.09	30920.82
572.25	30527.61
572.41	30448.03
572.57	30913.80
572.74	30370.79
572.90	30436.33
573.06	30506.54
573.22	30485.48
573.38	30455.05
573.55	30155.46
573.71	30955.93
573.87	30691.44
574.03	30728.89
574.20	30771.02
574.36	30588.46
574.52	30740.60
574.68	30380.15
574.84	30747.62
575.01	30721.87
575.17	30735.92
575.33	30384.83
575.49	30457.39
575.65	30656.34
575.82	30473.78
575.98	30412.92
576.14	30630.59
576.30	30745.28
576.46	30569.74
576.62	30391.86
576.79	30532.29
576.95	30359.09
577.11	30967.63
577.27	30583.78
577.43	30560.37
577.59	30417.60
577.75	30710.17
577.92	30656.34
578.08	30260.79
578.24	30338.02
578.40	30780.39
578.56	30625.91
578.72	30675.06
578.88	30848.26
579.04	31079.97
579.21	30651.66
579.37	30820.17
579.53	30607.19
579.69	30352.07
579.85	30768.68
580.01	30731.23
580.17	30295.89
580.33	30515.90
580.49	30895.07
580.65	31009.76
580.82	30838.90
580.98	30829.54
581.14	30888.05
581.30	30796.77
581.46	30719.53
581.62	30441.01
581.78	30586.12
581.94	31122.10
582.10	30728.89
582.26	30768.68
582.42	31089.34
582.58	31033.16
582.74	30614.21
582.90	30689.10
583.06	30934.86
583.22	30843.58
583.38	30745.28
583.54	30904.43
583.70	30389.52
583.86	30911.46
584.02	30527.61
584.18	30862.30
584.34	31096.36
584.50	31126.78
584.66	30838.90
584.82	30768.68
584.98	30925.50
585.14	30881.03
585.30	30787.41
585.46	30759.32
585.62	30422.28
585.78	31014.44
585.94	30525.27
586.10	30836.56
586.26	31033.16
586.42	31215.72
586.58	30920.82
586.74	30670.38
586.90	30785.07
587.06	30841.24
587.22	30773.36
587.38	31009.76
587.54	31225.09
587.70	31061.25
587.86	30906.77
588.02	30888.05
588.18	31620.64
588.34	30717.19
588.49	31070.61
588.65	30342.70
588.81	31049.55
588.97	31241.47
589.13	31115.08
589.29	30782.73
589.45	31213.38
589.61	31049.55
589.77	31110.40
589.93	31304.67
590.08	31304.67
590.24	31236.79
590.40	31166.57
590.56	31314.03
590.72	30803.79
590.88	31030.82
591.04	31115.08
591.20	31475.52
591.35	31515.31
591.51	31611.28
591.67	31250.83
591.83	31292.96
591.99	30731.23
592.15	31225.09
592.31	31250.83
592.46	31234.45
592.62	31070.61
592.78	31211.04
592.94	31002.74
593.10	31023.80
593.26	31402.97
593.41	31264.88
593.57	31140.83
593.73	31566.81
593.89	31424.03
594.05	31292.96
594.20	31028.48
594.36	31143.17
594.52	31473.18
594.68	31161.89
594.84	31360.84
594.99	31386.58
595.15	31342.11
595.31	31482.55
595.47	31173.60
595.62	31735.32
595.78	31335.09
595.94	31548.08
596.10	31381.90
596.25	31215.72
596.41	31681.49
596.57	31147.85
596.73	31442.76
596.88	31206.36
597.04	31854.69
597.20	31377.22
597.36	31707.24
597.51	31747.03
597.67	31566.81
597.83	31519.99
597.99	31487.23
598.14	31159.55
598.30	31658.09
598.46	31372.54
598.61	31833.63
598.77	30864.64
598.93	31262.54
599.09	31491.91
599.24	31627.66
599.40	31374.88
599.56	31681.49
599.71	31461.48
599.87	31424.03
600.03	31351.48
600.18	31454.46
600.34	31431.05
600.50	31620.64
600.65	31630.00
600.81	31775.11
600.97	31929.59
601.12	32039.59
601.28	31805.54
601.44	31777.45
601.59	31732.98
601.75	31861.71
601.91	31501.27
602.06	31564.46
602.22	31393.61
602.37	31538.72
602.53	31548.08
602.69	31426.37
602.84	31587.87
603.00	31700.22
603.16	31417.01
603.31	31814.90
603.47	31683.83
603.62	31440.42
603.78	31302.32
603.94	31342.11
604.09	31442.76
604.25	31365.52
604.40	31583.19
604.56	31459.14
604.71	31639.36
604.87	31489.57
605.03	31681.49
605.18	31470.84
605.34	31283.60
605.49	31131.47
605.65	31250.83
605.80	30939.54
605.96	30981.67
606.12	31161.89
606.27	31765.75
606.43	31222.75
606.58	31611.28
606.74	31463.82
606.89	31772.77
607.05	31194.66
607.20	31449.78
607.36	31077.63
607.51	31768.09
607.67	31461.48
607.82	31157.21
607.98	31503.61
608.13	30974.65
608.29	31599.57
608.44	31328.07
608.60	31129.12
608.75	31704.90
608.91	31494.25
609.06	31426.37
609.22	31424.03
609.37	31051.89
609.53	31185.30
609.68	31199.34
609.84	31405.31
609.99	31161.89
610.15	31147.85
610.30	31393.61
610.46	31021.46
610.61	31108.06
610.76	31515.31
610.92	30960.61
611.07	31468.50
611.23	31292.96
611.38	31417.01
611.54	31065.93
611.69	30555.69
611.84	30684.42
612.00	31335.09
612.15	30995.71
612.31	31290.62
612.46	31131.47
612.62	30951.24
612.77	31035.50
612.92	31285.94
613.08	31201.68
613.23	31035.50
613.39	30909.11
613.54	30539.31
613.69	30838.90
613.85	30675.06
614.00	31019.12
614.15	31192.32
614.31	30628.25
614.46	30988.69
614.62	30759.32
614.77	30927.84
614.92	31072.95
615.08	31260.20
615.23	30824.86
615.38	30984.01
615.54	30569.74
615.69	30885.71
615.84	30532.29
616.00	30934.86
616.15	30565.06
616.30	30621.23
616.46	31171.25
616.61	30738.26
616.76	31129.12
616.92	30698.47
617.07	30593.14
617.22	30803.79
617.37	30476.12
617.53	30415.26
617.68	30703.15
617.83	30506.54
617.99	30429.30
618.14	30497.18
618.29	30291.21
618.45	30513.56
618.60	30274.83
618.75	30581.44
618.90	30494.84
619.06	30436.33
619.21	30607.19
619.36	30632.93
619.51	30354.41
619.67	30412.92
619.82	30593.14
619.97	30038.44
620.12	30064.18
620.28	30178.87
620.43	30532.29
620.58	30431.65
620.73	30541.65
620.89	30368.45
621.04	30239.72
621.19	30600.16
621.34	30281.85
621.49	30396.54
621.65	30314.62
621.80	30408.24
621.95	30225.68
622.10	30319.30
622.25	30340.36
622.41	29984.60
622.56	29935.45
622.71	30017.37
622.86	29956.52
623.01	30099.29
623.16	30129.72
623.32	30171.85
623.47	29986.94
623.62	30202.27
623.77	30288.87
623.92	29874.60
624.07	29862.90
624.23	29846.51
624.38	30045.46
624.53	29860.55
624.68	29876.94
624.83	30101.63
624.98	29986.94
625.13	29563.31
625.29	30000.99
625.44	30096.95
625.59	29635.86
625.74	29858.21
625.89	29521.18
626.04	29493.09
626.19	29479.05
626.34	29486.07
626.49	29120.95
626.65	29476.71
626.80	29699.06
626.95	29685.01
627.10	29654.59
627.25	29481.39
627.40	29284.78
627.55	29273.08
627.70	29039.03
627.85	29511.81
628.00	29352.66
628.15	29252.02
628.30	29256.70
628.45	29612.46
628.60	29364.36
628.76	29462.66
628.91	29551.60
629.06	29244.99
629.21	29425.22
629.36	29481.39
629.51	29181.80
629.66	28900.94
629.81	29282.44
629.96	29027.32
630.11	29076.48
630.26	28868.17
630.41	29003.92
630.56	29174.78
630.71	28950.09
630.86	28896.25
631.01	29582.03
631.16	29223.93
631.31	29078.82
631.46	28889.23
631.61	29160.73
631.76	28961.79
631.91	28861.15
632.06	29062.43
632.21	28594.32
632.36	28819.02
632.51	28493.68
632.66	29013.28
632.81	28481.98
632.96	29193.50
633.10	28985.19
633.25	29324.57
633.40	29078.82
633.55	28987.53
633.70	28531.13
633.85	28671.56
634.00	28348.57
634.15	28907.96
634.30	28538.15
634.45	28540.49
634.60	28725.39
634.75	28313.46
634.90	28711.35
635.05	28493.68
635.19	28861.15
635.34	28980.51
635.49	29013.28
635.64	28709.01
635.79	28638.80
635.94	28673.90
636.09	28215.16
636.24	28109.83
636.39	28624.75
636.53	28606.03
636.68	28491.34
636.83	28500.70
636.98	28528.79
637.13	28205.80
637.28	28243.24
637.43	28758.16
637.57	28680.92
637.72	28379.00
637.87	28327.50
638.02	28151.96
638.17	28400.06
638.32	28009.19
638.46	27967.06
638.61	27835.99
638.76	27782.16
638.91	27843.01
639.06	28381.34
639.20	28339.21
639.35	28205.80
639.50	28198.77
639.65	28210.48
639.80	28388.36
639.94	28257.29
640.09	28084.09
640.24	27934.29
640.39	28308.78
640.54	27866.42
640.68	27861.74
640.83	28020.89
640.98	27754.07
641.13	27800.88
641.27	27955.36
641.42	27737.69
641.57	27866.42
641.72	27426.40
641.86	27737.69
642.01	27850.03
642.16	27697.90
642.31	27351.50
642.45	27768.12
642.60	27592.58
642.75	27253.20
642.90	27604.28
643.04	27307.03
643.19	27513.00
643.34	27548.11
643.48	27428.74
643.63	27634.71
643.78	27749.39
643.93	27721.30
644.07	27606.62
644.22	28034.94
644.37	27222.77
644.51	27381.93
644.66	27868.76
644.81	27246.18
644.95	27445.12
645.10	27789.18
645.25	27854.72
645.39	27180.64
645.54	27412.35
645.69	27395.97
645.83	27311.71
645.98	27613.64
646.13	27260.22
646.27	27541.08
646.42	27353.84
646.57	27419.38
646.71	27515.34
646.86	27496.61
647.00	27391.29
647.15	27339.80
647.30	27105.74
647.44	26843.60
647.59	26995.74
647.74	27026.17
647.88	27332.78
648.03	27136.17
648.17	27358.52
648.32	27239.15
648.47	27339.80
648.61	27068.30
648.76	27637.05
648.90	27246.18
649.05	27278.94
649.20	27159.58
649.34	26579.12
649.49	26871.69
649.63	26918.50
649.78	26967.65
649.92	27037.87
650.07	27000.42
650.21	26845.94
650.36	27068.30
650.51	26644.66
650.65	26951.27
650.80	26766.37
650.94	27005.10
651.09	26831.90
651.23	26672.74
651.38	26448.05
651.52	26642.32
651.67	26693.81
651.81	26677.43
651.96	26845.94
652.10	26867.01
652.25	26836.58
652.39	26792.11
652.54	27206.39
652.68	26876.37
652.83	26698.49
652.97	26773.39
653.12	26953.61
653.26	26529.97
653.41	26836.58
653.55	26586.15
653.70	26602.53
653.84	26567.42
653.99	26471.46
654.13	26473.80
654.27	26300.60
654.42	26761.69
654.56	26513.59
654.71	26637.64
654.85	26373.16
655.00	26515.93
655.14	25839.51
655.29	26391.88
655.43	26270.17
655.57	26316.98
655.72	26436.35
655.86	26506.57
656.01	26298.26
656.15	26190.59
656.30	26045.48
656.44	26424.65
656.58	25689.72
656.73	25825.47
656.87	26380.18
657.01	26047.82
657.16	25965.90
657.30	26174.21
657.45	26342.73
657.59	25788.02
657.73	25837.17
657.88	26019.74
658.02	25991.65
658.16	26267.83
658.31	25916.75
658.45	25916.75
658.60	25502.48
658.74	25846.54
658.88	25675.68
659.03	25998.67
659.17	25795.04
659.31	25741.21
659.46	26015.05
659.60	25993.99
659.74	25876.96
659.89	25687.38
660.03	25488.43
660.17	25247.36
660.32	25238.00
660.46	25600.78
660.60	25404.17
660.74	25390.13
660.89	25399.49
661.03	25020.33
661.17	25572.69
661.32	25289.49
661.46	25514.18
661.60	25245.02
661.74	25362.04
661.89	25530.56
662.03	25429.92
662.17	25032.03
662.31	25090.54
662.46	25200.55
662.60	25453.33
662.74	25006.28
662.88	24772.23
663.03	24702.01
663.17	24540.52
663.31	24687.97
663.45	24706.70
663.60	24865.85
663.74	24650.52
663.88	24662.22
664.02	24900.96
664.17	24938.41
664.31	24699.67
664.45	24800.32
664.59	24680.95
664.73	25010.96
664.88	24329.87
665.02	24615.41
665.16	24114.54
665.30	24390.72
665.44	24615.41
665.59	24400.08
665.73	24147.31
665.87	23803.25
666.01	24357.96
666.15	24271.36
666.29	24566.26
666.44	24304.12
666.58	24170.71
666.72	24325.19
666.86	24102.84
667.00	24116.88
667.14	24114.54
667.28	23953.04
667.43	23875.80
667.57	23819.63
667.71	23489.62
667.85	23763.46
667.99	23686.22
668.13	23864.10
668.27	23740.05
668.41	23850.06
668.56	23557.49
668.70	23821.97
668.84	23946.02
668.98	23454.51
669.12	23852.40
669.26	23236.84
669.40	23566.85
669.54	23475.57
669.68	23522.38
669.82	23234.50
669.96	23243.86
670.10	22860.01
670.25	23316.42
670.39	23388.97
670.53	23073.00
670.67	22635.32
670.81	23403.02
670.95	23304.71
671.09	22904.48
671.23	23009.81
671.37	23180.67
671.51	22944.27
671.65	22991.08
671.79	22909.16
671.93	22843.63
672.07	22724.26
672.21	22951.29
672.35	22487.87
672.49	22258.49
672.63	22101.68
672.77	22391.91
672.91	22211.68
673.05	22251.47
673.19	22366.16
673.33	22288.92
673.47	22298.28
673.61	22527.66
673.75	22480.85
673.89	22328.71
674.03	22237.43
674.17	22064.23
674.31	22052.53
674.45	21996.35
674.59	22162.53
674.73	22080.61
674.87	22029.12
675.01	21869.97
675.15	21729.53
675.29	21752.94
675.43	21371.43
675.56	21947.20
675.70	21982.31
675.84	21242.70
675.98	21280.15
676.12	21359.73
676.26	21675.70
676.40	21160.78
676.54	21326.96
676.68	21397.18
676.82	20702.04
676.96	21205.25
677.10	21177.17
677.23	20847.15
677.37	20842.47
677.51	20783.96
677.65	20973.54
677.79	20744.17
677.93	20739.49
678.07	20730.12
678.21	20350.96
678.34	20482.03
678.48	20524.16
678.62	20650.55
678.76	20631.82
678.90	20280.74
679.04	20446.92
679.18	20334.57
679.31	19831.36
679.45	19978.81
679.59	20367.34
679.73	19983.49
679.87	19871.15
680.00	19840.72
680.14	20023.28
680.28	19957.75
680.42	19623.05
680.56	19688.59
680.70	20004.56
680.83	19440.49
680.97	19466.24
681.11	19618.37
681.25	19620.71
681.39	19283.67
681.52	19421.77
681.66	19314.10
681.80	19054.30
681.94	19229.84
682.07	19250.91
682.21	18824.93
682.35	18810.89
682.49	18649.39
682.62	18700.88
682.76	18916.21
682.90	18845.99
683.04	18977.06
683.17	18750.03
683.31	18810.89
683.45	18429.38
683.59	18668.11
683.72	18721.95
683.86	18490.23
684.00	18246.82
684.13	18300.65
684.27	18356.82
684.41	18405.97
684.55	17947.23
684.68	17839.56
684.82	17881.69
684.96	17905.10
685.09	17916.80
685.23	17446.35
685.37	17713.17
685.50	17816.16
685.64	17706.15
685.78	17469.76
685.91	17666.36
686.05	17668.70
686.19	17575.08
686.32	17432.31
686.46	17453.37
686.60	17053.14
686.73	17294.22
686.87	17144.42
687.01	16999.31
687.14	16966.54
687.28	16823.77
687.42	16732.49
687.55	16720.79
687.69	16439.92
687.82	16840.15
687.96	16528.86
688.10	16868.24
688.23	16755.90
688.37	16512.48
688.50	16528.86
688.64	16641.21
688.78	16248.00
688.91	16056.08
689.05	16428.22
689.18	16112.25
689.32	16060.76
689.46	15807.98
689.59	15999.90
689.73	16042.03
689.86	15796.28
690.00	16051.39
690.13	16044.37
690.27	15557.54
690.41	16102.89
690.54	15634.78
690.68	15819.68
690.81	15817.34
690.95	15810.32
691.08	15681.59
691.22	15400.72
691.35	15508.39
691.49	15447.54
691.62	15496.69
691.76	15159.65
691.89	14899.85
692.03	14815.59
692.16	14759.42
692.30	14794.53
692.43	14530.05
692.57	14668.14
692.70	14871.76
692.84	14675.16
692.97	14665.80
693.11	14455.15
693.24	14623.67
693.38	14534.73
693.51	14471.53
693.65	14377.91
693.78	14436.42
693.92	14394.29
694.05	14118.11
694.19	14242.16
694.32	14181.31
694.45	14258.54
694.59	14078.32
694.72	13958.96
694.86	13760.01
694.99	13823.20
695.13	13650.00
695.26	13652.34
695.39	13617.24
695.53	13743.63
695.66	13809.16
695.80	13760.01
695.93	13561.06
696.07	13706.18
696.20	13736.60
696.33	13195.94
696.47	13123.38
696.60	13247.43
696.73	13383.18
696.87	13401.91
697.00	12994.65
697.14	12959.55
697.27	12587.40
697.40	12830.82
697.54	12676.34
697.67	12603.78
697.80	12669.32
697.94	12470.37
698.07	12580.38
698.21	12446.97
698.34	12519.53
698.47	12697.41
698.61	12578.04
698.74	12622.51
698.87	12636.55
699.01	12219.94
699.14	12105.25
699.27	12482.08
699.40	12133.34
699.54	12135.68
699.67	12051.42
699.80	11936.73
699.94	11770.55
700.07	11513.10
700.20	11925.03
700.34	11557.57
700.47	11585.65
700.60	11693.32
700.73	11969.50
700.87	11412.45
701.00	11590.33
701.13	11473.31
701.26	11569.27
701.40	11625.44
701.53	11578.63
701.66	11445.22
701.79	11358.62
701.93	11267.34
702.06	11166.70
702.19	11044.99
702.32	11035.63
702.46	11211.17
702.59	11052.01
702.72	10827.32
702.85	10974.77
702.99	10951.37
703.12	10757.10
703.25	10670.50
703.38	10771.15
703.51	10738.38
703.65	10630.71
703.78	10562.84
703.91	10602.63
704.04	10576.88
704.17	10623.69
704.31	10455.17
704.44	10434.11
704.57	10214.10
704.70	10171.97
704.83	9923.87
704.96	10033.88
705.10	9937.91
705.23	10078.35
>>>>>End Processed Spectral Data<<<<<
