SpectraSuite Data File
++++++++++++++++++++++++++++++++++++
Date: Fri Oct 18 13:58:35 GMT-05:00 2013
User: bianchi
Dark Spectrum Present: No
Reference Spectrum Present: No
Number of Sampled Component Spectra: 1
Spectrometers: USB2+H05261
Integration Time (usec): 50000 (USB2+H05261)
Spectra Averaged: 1 (USB2+H05261)
Boxcar Smoothing: 0 (USB2+H05261)
Correct for Electrical Dark: No (USB2+H05261)
Strobe/Lamp Enabled: No (USB2+H05261)
Correct for Detector Non-linearity: No (USB2+H05261)
Correct for Stray Light: No (USB2+H05261)
Number of Pixels in Processed Spectrum: 2048
>>>>>Begin Processed Spectral Data<<<<<
365.73	0.00
365.92	0.00
366.12	0.00
366.32	0.00
366.52	0.00
366.72	0.00
366.91	0.00
367.11	0.00
367.31	0.00
367.51	0.00
367.70	0.00
367.90	0.00
368.10	0.00
368.30	0.00
368.49	0.00
368.69	0.00
368.89	0.00
369.09	0.00
369.28	0.00
369.48	0.00
369.68	0.00
369.87	0.00
370.07	0.00
370.27	0.00
370.47	0.00
370.66	67.88
370.86	110.01
371.06	133.41
371.25	124.05
371.45	117.03
371.65	49.15
371.84	191.92
372.04	119.37
372.24	180.22
372.44	257.46
372.63	241.08
372.83	161.50
373.03	191.92
373.22	170.86
373.42	135.75
373.62	257.46
373.81	212.99
374.01	245.76
374.21	276.18
374.40	234.05
374.60	255.12
374.79	264.48
374.99	259.80
375.19	266.82
375.38	248.10
375.58	168.52
375.78	320.65
375.97	266.82
376.17	269.16
376.37	294.91
376.56	271.50
376.76	269.16
376.95	217.67
377.15	236.39
377.35	238.73
377.54	238.73
377.74	255.12
377.93	280.86
378.13	159.16
378.33	287.89
378.52	269.16
378.72	273.84
378.91	322.99
379.11	355.76
379.31	292.57
379.50	222.35
379.70	332.36
379.89	327.68
380.09	224.69
380.28	212.99
380.48	301.93
380.68	346.40
380.87	292.57
381.07	308.95
381.26	339.38
381.46	397.89
381.65	332.36
381.85	374.49
382.04	294.91
382.24	351.08
382.43	341.72
382.63	444.70
382.83	348.74
383.02	348.74
383.22	322.99
383.41	351.08
383.61	388.53
383.80	294.91
384.00	344.06
384.19	344.06
384.39	404.91
384.58	388.53
384.78	449.38
384.97	365.12
385.17	374.49
385.36	447.04
385.56	334.70
385.75	383.85
385.95	416.62
386.14	374.49
386.34	416.62
386.53	472.79
386.72	379.17
386.92	393.21
387.11	414.27
387.31	407.25
387.50	425.98
387.70	374.49
387.89	430.66
388.09	447.04
388.28	456.40
388.48	411.93
388.67	411.93
388.86	393.21
389.06	482.15
389.25	465.77
389.45	416.62
389.64	423.64
389.84	484.49
390.03	472.79
390.22	447.04
390.42	500.87
390.61	561.73
390.81	409.59
391.00	503.22
391.19	571.09
391.39	510.24
391.58	498.53
391.78	580.45
391.97	568.75
392.16	500.87
392.36	580.45
392.55	491.51
392.75	594.50
392.94	627.26
393.13	596.84
393.33	582.79
393.52	564.07
393.71	470.45
393.91	564.07
394.10	505.56
394.29	566.41
394.49	550.03
394.68	601.52
394.88	596.84
395.07	580.45
395.26	613.22
395.46	589.82
395.65	594.50
395.84	613.22
396.04	683.44
396.23	662.37
396.42	564.07
396.62	713.86
396.81	732.59
397.00	608.54
397.19	678.76
397.39	678.76
397.58	723.23
397.77	594.50
397.97	596.84
398.16	737.27
398.35	737.27
398.55	669.39
398.74	720.88
398.93	802.80
399.12	730.25
399.32	683.44
399.51	730.25
399.70	791.10
399.90	753.65
400.09	760.67
400.28	800.46
400.47	753.65
400.67	758.33
400.86	746.63
401.05	739.61
401.24	791.10
401.44	809.83
401.63	725.57
401.82	807.48
402.01	784.08
402.21	861.32
402.40	755.99
402.59	854.30
402.78	844.93
402.97	809.83
403.17	950.26
403.36	847.27
403.55	910.47
403.74	912.81
403.93	880.04
404.13	856.64
404.32	870.68
404.51	915.15
404.70	952.60
404.89	912.81
405.09	971.32
405.28	943.24
405.47	933.87
405.66	919.83
405.85	973.66
406.05	875.36
406.24	990.05
406.43	966.64
406.62	1043.88
406.81	1090.69
407.00	919.83
407.20	999.41
407.39	1102.39
407.58	1036.86
407.77	1062.60
407.96	1025.15
408.15	1043.88
408.34	1097.71
408.54	1095.37
408.73	1146.86
408.92	1093.03
409.11	1132.82
409.30	1109.41
409.49	1158.57
409.68	1200.69
409.87	1191.33
410.07	1128.14
410.26	1156.22
410.45	1128.14
410.64	1210.06
410.83	1114.10
411.02	1233.46
411.21	1191.33
411.40	1299.00
411.59	1334.11
411.78	1299.00
411.98	1224.10
412.17	1273.25
412.36	1289.64
412.55	1306.02
412.74	1348.15
412.93	1362.19
413.12	1327.08
413.31	1401.98
413.50	1322.40
413.69	1409.00
413.88	1371.55
414.07	1345.81
414.26	1420.71
414.45	1490.92
414.64	1416.02
414.83	1488.58
415.02	1521.35
415.22	1598.59
415.41	1565.82
415.60	1544.75
415.79	1596.25
415.98	1542.41
416.17	1617.31
416.36	1561.14
416.55	1710.93
416.74	1640.72
416.93	1638.38
417.12	1647.74
417.31	1666.46
417.50	1612.63
417.69	1797.53
417.88	1762.42
418.07	1664.12
418.26	1741.36
418.45	1783.49
418.64	1785.83
418.83	1734.34
419.02	1762.42
419.21	1816.26
419.39	1739.02
419.58	1832.64
419.77	1706.25
419.96	1935.62
420.15	1886.47
420.34	1858.39
420.53	1863.07
420.72	1888.81
420.91	1872.43
421.10	2008.18
421.29	1902.86
421.48	1961.37
421.67	2008.18
421.86	1919.24
422.05	1914.56
422.24	2024.56
422.43	1900.52
422.61	2038.61
422.80	2059.67
422.99	1991.80
423.18	1947.33
423.37	1923.92
423.56	1912.22
423.75	2019.88
423.94	2043.29
424.13	1968.39
424.32	2019.88
424.50	2078.40
424.69	2047.97
424.88	2073.71
425.07	2078.40
425.26	1966.05
425.45	1994.14
425.64	2019.88
425.83	1994.14
426.01	2069.03
426.20	2029.24
426.39	1975.41
426.58	2003.50
426.77	2033.93
426.96	2148.61
427.15	2038.61
427.33	2099.46
427.52	2038.61
427.71	2050.31
427.90	2251.60
428.09	2244.57
428.28	2221.17
428.46	2277.34
428.65	2216.49
428.84	2221.17
429.03	2190.74
429.22	2230.53
429.40	2331.17
429.59	2286.70
429.78	2122.87
429.97	2174.36
430.16	2223.51
430.34	2387.35
430.53	2380.32
430.72	2296.07
430.91	2359.26
431.10	2310.11
431.28	2368.62
431.47	2394.37
431.66	2436.50
431.85	2373.30
432.03	2431.82
432.22	2635.44
432.41	2382.67
432.60	2345.22
432.79	2555.86
432.97	2406.07
433.16	2413.09
433.35	2396.71
433.54	2495.01
433.72	2633.10
433.91	2466.92
434.10	2546.50
434.28	2513.74
434.47	2530.12
434.66	2623.74
434.85	2588.63
435.03	2581.61
435.22	2497.35
435.41	2738.43
435.59	2609.70
435.78	2574.59
435.97	2609.70
436.16	2761.83
436.34	2607.36
436.53	2654.17
436.72	2733.75
436.90	2656.51
437.09	2619.06
437.28	2682.25
437.46	2621.40
437.65	2810.98
437.84	2801.62
438.02	2885.88
438.21	2855.45
438.40	2752.47
438.58	2705.66
438.77	2923.33
438.96	2918.65
439.14	2998.23
439.33	3002.91
439.52	3005.25
439.70	2925.67
439.89	2956.10
440.08	2981.84
440.26	3098.87
440.45	3014.61
440.63	3059.08
440.82	3103.55
441.01	3021.63
441.19	3133.98
441.38	3232.28
441.57	3138.66
441.75	3361.01
441.94	3302.50
442.12	3201.85
442.31	3208.87
442.50	3358.67
442.68	3307.18
442.87	3304.84
443.05	3274.41
443.24	3377.39
443.43	3323.56
443.61	3262.71
443.80	3475.70
443.98	3178.45
444.17	3236.96
444.35	3372.71
444.54	3510.80
444.73	3585.70
444.91	3454.63
445.10	3424.20
445.28	3433.57
445.47	3424.20
445.65	3496.76
445.84	3433.57
446.02	3515.48
446.21	3499.10
446.39	3473.36
446.58	3555.27
446.77	3412.50
446.95	3353.99
447.14	3471.01
447.32	3496.76
447.51	3541.23
447.69	3531.87
447.88	3627.83
448.06	3574.00
448.25	3473.36
448.43	3471.01
448.62	3630.17
448.80	3522.51
448.99	3634.85
449.17	3609.11
449.36	3665.28
449.54	3707.41
449.73	3698.05
449.91	3730.81
450.10	3714.43
450.28	3693.37
450.46	3655.92
450.65	3714.43
450.83	3833.80
451.02	3637.19
451.20	3833.80
451.39	3707.41
451.57	3770.60
451.76	3845.50
451.94	3747.20
452.13	3904.01
452.31	3857.20
452.49	3756.56
452.68	3925.08
452.86	3829.12
453.05	3960.19
453.23	3922.74
453.42	3918.06
453.60	3915.72
453.78	3899.33
453.97	3929.76
454.15	3950.82
454.34	3953.16
454.52	4037.42
454.70	4002.32
454.89	4093.60
455.07	4070.19
455.26	3922.74
455.44	4112.32
455.62	4138.07
455.81	4154.45
455.99	4290.20
456.17	4198.92
456.36	4215.30
456.54	4058.49
456.73	4100.62
456.91	4351.06
457.09	4299.56
457.28	4262.12
457.46	4156.79
457.64	4304.25
457.83	4227.01
458.01	4184.88
458.19	4578.09
458.38	4327.65
458.56	4411.91
458.74	4414.25
458.93	4369.78
459.11	4524.26
459.29	4528.94
459.48	4440.00
459.66	4521.92
459.84	4561.70
460.03	4510.21
460.21	4580.43
460.39	4566.39
460.57	4423.61
460.76	4498.51
460.94	4507.87
461.12	4627.24
461.31	4660.01
461.49	4662.35
461.67	4636.60
461.85	4875.34
462.04	4599.15
462.22	4746.61
462.40	4807.46
462.59	4638.94
462.77	4819.16
462.95	4734.90
463.13	4795.76
463.32	4847.25
463.50	4767.67
463.68	4840.23
463.86	4894.06
464.05	4770.01
464.23	4856.61
464.41	4805.12
464.59	4786.40
464.78	5008.75
464.96	4880.02
465.14	4812.14
465.32	4990.02
465.50	4980.66
465.69	5053.22
465.87	4889.38
466.05	5011.09
466.23	4983.00
466.41	5022.79
466.60	5093.01
466.78	5088.32
466.96	4983.00
467.14	5111.73
467.32	5093.01
467.51	5095.35
467.69	5205.35
467.87	5212.37
468.05	5088.32
468.23	5095.35
468.41	5085.98
468.60	5188.97
468.78	5350.46
468.96	5261.52
469.14	5200.67
469.32	5305.99
469.50	5074.28
469.69	5420.68
469.87	5420.68
470.05	5483.88
470.23	5423.02
470.41	5516.64
470.59	5336.42
470.77	5408.98
470.95	5591.54
471.14	5778.78
471.32	5352.81
471.50	5423.02
471.68	5717.93
471.86	5628.99
472.04	5671.12
472.22	5837.30
472.40	5490.90
472.58	5816.23
472.77	5659.42
472.95	5799.85
473.13	5851.34
473.31	5654.73
473.49	5856.02
473.67	5872.40
473.85	5919.21
474.03	5963.68
474.21	5827.93
474.39	5891.13
474.57	5954.32
474.75	6267.95
474.93	6143.91
475.12	6134.54
475.30	6204.76
475.48	6164.97
475.66	6108.80
475.84	6242.21
476.02	6331.15
476.20	6380.30
476.38	6593.29
476.56	6420.09
476.74	6373.28
476.92	6420.09
477.10	6616.69
477.28	6623.72
477.46	6406.05
477.64	6803.94
477.82	6827.34
478.00	7054.37
478.18	6946.71
478.36	6984.16
478.54	7082.46
478.72	7108.21
478.90	7150.34
479.08	7056.72
479.26	7117.57
479.44	7503.76
479.62	7527.16
479.80	7494.40
479.98	7363.33
480.16	7517.80
480.34	7470.99
480.52	7679.30
480.70	7634.83
480.88	7557.59
481.06	7688.66
481.24	7630.15
481.41	7941.44
481.59	7847.82
481.77	8156.77
481.95	8042.08
482.13	7948.46
482.31	8219.96
482.49	8205.92
482.67	8351.03
482.85	8381.46
483.03	8423.59
483.21	8610.83
483.39	8549.98
483.57	8566.36
483.74	8592.11
483.92	8725.52
484.10	8655.30
484.28	8816.80
484.46	8975.95
484.64	9095.32
484.82	9083.62
485.00	8950.21
485.18	9254.48
485.35	9359.80
485.53	9296.61
485.71	9390.23
485.89	9612.58
486.07	9284.91
486.25	9542.36
486.43	9640.67
486.61	9607.90
486.78	9745.99
486.96	9923.87
487.14	10157.92
487.32	10050.26
487.50	10129.84
487.68	10303.04
487.85	10354.53
488.03	10347.51
488.21	10551.14
488.39	10513.69
488.57	10581.56
488.75	10450.49
488.92	10747.74
489.10	10832.00
489.28	10726.68
489.46	11143.29
489.64	11197.12
489.81	10991.16
489.99	11145.63
490.17	11379.68
490.35	11445.22
490.53	11466.28
490.70	11489.69
490.88	11758.85
491.06	11826.73
491.24	11595.01
491.41	11833.75
491.59	11639.48
491.77	11941.41
491.95	12138.02
492.13	12072.48
492.30	12229.30
492.48	12189.51
492.66	12191.85
492.84	12411.86
493.01	12711.45
493.19	12542.93
493.37	12592.08
493.54	12702.09
493.72	12622.51
493.90	12627.19
494.08	12915.08
494.25	12915.08
494.43	13149.13
494.61	13301.26
494.79	13345.73
494.96	13209.98
495.14	13334.03
495.32	13350.42
495.49	13577.45
495.67	13781.07
495.85	13767.03
496.02	13755.33
496.20	14113.43
496.38	14003.43
496.55	13827.88
496.73	14216.41
496.91	14253.86
497.09	14232.80
497.26	14312.38
497.44	14396.64
497.62	14256.20
497.79	14558.13
497.97	14679.84
498.14	14787.50
498.32	14581.54
498.50	14750.06
498.67	14991.13
498.85	15009.86
499.03	14857.72
499.20	14902.19
499.38	14892.83
499.56	15218.16
499.73	15269.66
499.91	15363.28
500.08	15220.50
500.26	15183.06
500.44	15508.39
500.61	15527.11
500.79	15548.18
500.97	15868.83
501.14	15641.80
501.32	15590.31
501.49	15861.81
501.67	15604.35
501.84	16168.42
502.02	15447.54
502.20	15971.82
502.37	16018.63
502.55	16173.10
502.72	16149.70
502.90	16147.36
503.07	16161.40
503.25	16320.56
503.43	16095.86
503.60	16556.95
503.78	16734.83
503.95	16540.57
504.13	16748.87
504.30	16521.84
504.48	16606.10
504.65	16547.59
504.83	16985.27
505.01	17165.49
505.18	16908.03
505.36	17067.19
505.53	16961.86
505.71	16903.35
505.88	17186.55
506.06	17081.23
506.23	17268.47
506.41	17114.00
506.58	17242.73
506.76	17418.27
506.93	17458.06
507.11	17263.79
507.28	17394.86
507.46	17678.07
507.63	17809.14
507.81	18146.17
507.98	17668.70
508.16	17935.53
508.33	17680.41
508.50	17554.02
508.68	17771.69
508.85	18200.01
509.03	18195.32
509.20	18169.58
509.38	18377.89
509.55	18174.26
509.73	18689.18
509.90	18209.37
510.08	18333.42
510.25	18518.32
510.42	18523.00
510.60	18717.26
510.77	18848.33
510.95	18515.98
511.12	18417.68
511.30	18750.03
511.47	18888.12
511.64	18740.67
511.82	18967.70
511.99	18941.96
512.17	19000.47
512.34	18853.02
512.51	19197.07
512.69	19412.40
512.86	19154.94
513.04	19555.18
513.21	19559.86
513.38	19522.41
513.56	19396.02
513.73	19501.34
513.90	19524.75
514.08	19597.31
514.25	19683.91
514.43	19697.95
514.60	19517.73
514.77	19807.95
514.95	19805.61
515.12	19662.84
515.29	20030.30
515.47	19885.19
515.64	20201.16
515.81	19782.21
515.99	20453.94
516.16	20360.32
516.33	20320.53
516.51	20194.14
516.68	20257.34
516.85	20418.83
517.03	20568.63
517.20	20177.76
517.37	20498.41
517.54	20636.50
517.72	20732.47
517.89	20879.92
518.06	20479.69
518.24	20720.76
518.41	20620.12
518.58	20896.30
518.75	20594.37
518.93	20786.30
519.10	21050.78
519.27	21088.23
519.45	20833.11
519.62	21001.63
519.79	21083.55
519.96	20982.90
520.14	21120.99
520.31	21013.33
520.48	21128.02
520.65	21142.06
520.83	21064.82
521.00	21785.71
521.17	21406.54
521.34	21366.75
521.52	21661.66
521.69	21893.37
521.86	21771.66
522.03	21755.28
522.20	22036.14
522.38	21532.93
522.55	21940.18
522.72	21671.02
522.89	21972.95
523.07	22129.77
523.24	21820.81
523.41	22118.06
523.58	21935.50
523.75	22031.46
523.92	21713.15
524.10	21991.67
524.27	22291.26
524.44	22284.24
524.61	22614.26
524.78	22852.99
524.96	22382.54
525.13	22520.63
525.30	22312.33
525.47	22635.32
525.64	22328.71
525.81	22450.42
525.98	22588.51
526.16	22569.79
526.33	22885.76
526.50	22822.56
526.67	22721.92
526.84	22677.45
527.01	22740.64
527.18	22836.61
527.36	23161.94
527.53	23183.01
527.70	23206.41
527.87	23288.33
528.04	23138.54
528.21	22986.40
528.38	22834.27
528.55	23206.41
528.72	23440.47
528.89	23171.30
529.07	23363.23
529.24	23468.55
529.41	23632.39
529.58	23522.38
529.75	23293.01
529.92	23349.18
530.09	23311.74
530.26	23405.36
530.43	23625.37
530.60	23606.64
530.77	23625.37
530.94	23637.07
531.11	23580.90
531.28	24039.64
531.46	24013.90
531.63	23978.79
531.80	23758.78
531.97	24280.72
532.14	24189.44
532.31	24058.37
532.48	23990.49
532.65	24044.32
532.82	24023.26
532.99	24215.18
533.16	24034.96
533.33	24442.21
533.50	24931.39
533.67	24334.55
533.84	24261.99
534.01	24376.68
534.18	24194.12
534.35	24367.32
534.52	24322.85
534.69	24671.59
534.86	24999.26
535.03	24397.74
535.20	24556.90
535.37	24896.28
535.54	24669.25
535.71	24561.58
535.88	24664.57
536.05	24629.46
536.22	24924.36
536.38	25186.50
536.55	25032.03
536.72	25205.23
536.89	24910.32
537.06	25099.90
537.23	25235.66
537.40	25041.39
537.57	25390.13
537.74	25071.82
537.91	25230.98
538.08	25172.46
538.25	24713.72
538.42	25172.46
538.59	25106.93
538.75	25270.76
538.92	25298.85
539.09	25577.37
539.26	25469.71
539.43	25685.04
539.60	25387.79
539.77	25460.35
539.94	25111.61
540.11	25598.44
540.28	25165.44
540.44	25357.36
540.61	25301.19
540.78	25603.12
540.95	25652.27
541.12	25792.70
541.29	26022.08
541.46	26082.93
541.62	26036.12
541.79	25523.54
541.96	25476.73
542.13	25923.77
542.30	26169.53
542.47	26197.62
542.63	25977.61
542.80	25853.56
542.97	26321.66
543.14	26155.49
543.31	26157.83
543.48	25874.62
543.64	26457.42
543.81	26536.99
543.98	26576.78
544.15	26574.44
544.32	26490.18
544.48	26590.83
544.65	26394.22
544.82	26417.63
544.99	26581.46
545.16	26738.28
545.32	26590.83
545.49	26670.40
545.66	26651.68
545.83	26759.34
546.00	26969.99
546.16	26630.62
546.33	26749.98
546.50	26560.40
546.67	26649.34
546.83	26742.96
547.00	26934.88
547.17	26951.27
547.34	27150.21
547.50	27276.60
547.67	27187.66
547.84	26789.77
548.00	27072.98
548.17	26988.72
548.34	26864.67
548.51	27491.93
548.67	27250.86
548.84	27393.63
549.01	27281.28
549.18	27136.17
549.34	27351.50
549.51	27042.55
549.68	27250.86
549.84	27253.20
550.01	27648.75
550.18	27220.43
550.34	27433.42
550.51	27417.04
550.68	27559.81
550.84	27405.33
551.01	27534.06
551.18	27475.55
551.34	27222.77
551.51	27349.16
551.68	27300.01
551.84	27475.55
552.01	27522.36
552.18	27793.86
552.34	27751.73
552.51	27845.35
552.68	27880.46
552.84	27751.73
553.01	27875.78
553.18	27793.86
553.34	27615.98
553.51	27871.10
553.67	28327.50
553.84	28140.26
554.01	27733.01
554.17	27889.82
554.34	28060.68
554.51	27796.20
554.67	28086.43
554.84	27789.18
555.00	27868.76
555.17	27637.05
555.33	28219.84
555.50	27983.44
555.67	28063.02
555.83	28381.34
556.00	28240.90
556.16	28236.22
556.33	28130.90
556.50	28002.17
556.66	28582.62
556.83	28168.35
556.99	28435.17
557.16	28540.49
557.32	28212.82
557.49	28547.51
557.65	28313.46
557.82	28463.25
557.98	28290.06
558.15	28276.01
558.32	28856.46
558.48	28491.34
558.65	28676.24
558.81	28666.88
558.98	28917.32
559.14	28376.66
559.31	28725.39
559.47	28467.94
559.64	28535.81
559.80	28807.31
559.97	29090.52
560.13	28599.01
560.30	28669.22
560.46	28879.87
560.63	28425.81
560.79	28910.30
560.96	28849.44
561.12	28271.33
561.29	28599.01
561.45	28919.66
561.61	28840.08
561.78	28795.61
561.94	28957.11
562.11	29144.35
562.27	29151.37
562.44	28793.27
562.60	28676.24
562.77	28809.65
562.93	28931.36
563.10	29502.45
563.26	28678.58
563.42	29284.78
563.59	29022.64
563.75	29722.46
563.92	29010.94
564.08	28854.12
564.24	28814.34
564.41	28285.37
564.57	28882.21
564.74	28774.55
564.90	29195.84
565.07	28779.23
565.23	28891.57
565.39	28954.77
565.56	29422.87
565.72	29312.87
565.88	29294.14
566.05	29008.60
566.21	29144.35
566.38	29392.45
566.54	29387.77
566.70	29369.04
566.87	29647.57
567.03	29792.68
567.19	29350.32
567.36	29528.20
567.52	29488.41
567.68	29413.51
567.85	29240.31
568.01	29001.58
568.17	29074.13
568.34	29495.43
568.50	29247.33
568.66	29621.82
568.83	29673.31
568.99	29373.72
569.15	29078.82
569.32	29191.16
569.48	29202.86
569.64	29862.90
569.81	29427.56
569.97	29544.58
570.13	29432.24
570.30	29123.29
570.46	29670.97
570.62	29277.76
570.78	29584.37
570.95	29032.00
571.11	29570.33
571.27	28943.06
571.43	29530.54
571.60	29373.72
571.76	29392.45
571.92	29366.70
572.09	29448.62
572.25	29266.06
572.41	29420.53
572.57	29909.71
572.74	30106.31
572.90	29516.50
573.06	29420.53
573.22	29404.15
573.38	29577.35
573.55	29813.74
573.71	30099.29
573.87	29734.17
574.03	29895.66
574.20	29792.68
574.36	29535.22
574.52	29607.78
574.68	29832.47
574.84	30003.33
575.01	29642.88
575.17	29670.97
575.33	29291.80
575.49	29495.43
575.65	29619.48
575.82	30157.80
575.98	29378.40
576.14	30160.14
576.30	29649.91
576.46	29848.85
576.62	29717.78
576.79	29919.07
576.95	29465.00
577.11	29755.23
577.27	30106.31
577.43	29954.18
577.59	29603.10
577.75	29600.76
577.92	29617.14
578.08	29453.30
578.24	29500.11
578.40	29523.52
578.56	29701.40
578.72	29972.90
578.88	29935.45
579.04	29731.83
579.21	29841.83
579.37	29874.60
579.53	29933.11
579.69	29369.04
579.85	29951.84
580.01	30075.88
580.17	29600.76
580.33	29301.17
580.49	29839.49
580.65	30263.13
580.82	29886.30
580.98	30071.20
581.14	29811.40
581.30	29977.58
581.46	29392.45
581.62	29633.52
581.78	29380.74
581.94	29862.90
582.10	29673.31
582.26	29565.65
582.42	29909.71
582.58	29832.47
582.74	29596.07
582.90	30026.73
583.06	30148.44
583.22	29776.30
583.38	30169.51
583.54	29970.56
583.70	30068.86
583.86	29876.94
584.02	29497.77
584.18	30426.96
584.34	29776.30
584.50	29998.65
584.66	30061.84
584.82	29553.94
584.98	29944.81
585.14	29947.15
585.30	29289.46
585.46	30089.93
585.62	29855.87
585.78	29968.22
585.94	29886.30
586.10	29549.26
586.26	30164.82
586.42	30183.55
586.58	29956.52
586.74	30146.10
586.90	29879.28
587.06	29846.51
587.22	30010.35
587.38	29605.44
587.54	30064.18
587.70	30368.45
587.86	30370.79
588.02	29788.00
588.18	30061.84
588.34	30216.32
588.49	29986.94
588.65	30101.63
588.81	29989.28
588.97	29788.00
589.13	29785.66
589.29	30455.05
589.45	29933.11
589.61	30342.70
589.77	30394.20
589.93	30314.62
590.08	30670.38
590.24	30480.80
590.40	30270.15
590.56	30185.89
590.72	30169.51
590.88	29855.87
591.04	29961.20
591.20	30424.62
591.35	30359.09
591.51	30546.33
591.67	30445.69
591.83	30693.79
591.99	30536.97
592.15	30342.70
592.31	30024.39
592.46	30078.22
592.62	30279.51
592.78	30050.14
592.94	30040.78
593.10	30216.32
593.26	30499.52
593.41	30272.49
593.57	30377.81
593.73	30607.19
593.89	30724.21
594.05	30590.80
594.20	30204.61
594.36	30382.49
594.52	30349.73
594.68	30333.34
594.84	30225.68
594.99	30501.86
595.15	30464.41
595.31	30405.90
595.47	30555.69
595.62	30546.33
595.78	30270.15
595.94	30499.52
596.10	30211.64
596.25	30197.59
596.41	29942.47
596.57	30038.44
596.73	30295.89
596.88	30129.72
597.04	30586.12
597.20	30527.61
597.36	30485.48
597.51	30902.09
597.67	30712.51
597.83	30480.80
597.99	30806.13
598.14	30558.03
598.30	30529.95
598.46	30555.69
598.61	30047.80
598.77	30691.44
598.93	30642.29
599.09	30869.33
599.24	30796.77
599.40	30897.41
599.56	30927.84
599.71	30644.63
599.87	30448.03
600.03	30485.48
600.18	30742.94
600.34	30485.48
600.50	30443.35
600.65	30457.39
600.81	30565.06
600.97	30551.01
601.12	30850.60
601.28	30745.28
601.44	30569.74
601.59	30724.21
601.75	30328.66
601.91	30747.62
602.06	30087.59
602.22	30443.35
602.37	30443.35
602.53	30396.54
602.69	30646.97
602.84	30630.59
603.00	30628.25
603.16	30469.09
603.31	30597.82
603.47	30551.01
603.62	30239.72
603.78	30642.29
603.94	30412.92
604.09	30405.90
604.25	30249.08
604.40	30576.76
604.56	30553.35
604.71	30773.36
604.87	30609.53
605.03	30670.38
605.18	30677.40
605.34	30710.17
605.49	30457.39
605.65	30450.37
605.80	30352.07
605.96	30251.42
606.12	30338.02
606.27	30630.59
606.43	30258.45
606.58	30728.89
606.74	30256.11
606.89	30581.44
607.05	30595.48
607.20	30529.95
607.36	30560.37
607.51	30387.18
607.67	30122.69
607.82	30087.59
607.98	30134.40
608.13	30377.81
608.29	30441.01
608.44	30567.40
608.60	30064.18
608.75	30471.43
608.91	30373.13
609.06	30281.85
609.22	30492.50
609.37	30113.33
609.53	30279.51
609.68	30132.06
609.84	30462.07
609.99	30244.40
610.15	30047.80
610.30	30190.57
610.46	30682.08
610.61	30169.51
610.76	30167.16
610.92	30361.43
611.07	30242.06
611.23	30092.27
611.38	29900.34
611.54	30178.87
611.69	30012.69
611.84	30073.54
612.00	29986.94
612.15	29986.94
612.31	30089.93
612.46	30047.80
612.62	30235.04
612.77	29879.28
612.92	30064.18
613.08	30331.00
613.23	29734.17
613.39	29855.87
613.54	29502.45
613.69	29598.41
613.85	30127.38
614.00	29956.52
614.15	30038.44
614.31	30141.42
614.46	29970.56
614.62	30120.35
614.77	29928.43
614.92	29956.52
615.08	29912.05
615.23	29905.02
615.38	29865.24
615.54	29596.07
615.69	29397.13
615.84	29823.11
616.00	29762.25
616.15	29823.11
616.30	29692.04
616.46	29551.60
616.61	29799.70
616.76	30080.56
616.92	29755.23
617.07	29984.60
617.22	29640.54
617.37	29659.27
617.53	30127.38
617.68	29654.59
617.83	29336.27
617.99	29401.81
618.14	29661.61
618.29	29947.15
618.45	29528.20
618.60	29762.25
618.75	29345.64
618.90	29790.34
619.06	29514.16
619.21	29614.80
619.36	29322.23
619.51	29333.93
619.67	29216.91
619.82	29027.32
619.97	29514.16
620.12	29111.58
620.28	29200.52
620.43	29427.56
620.58	29544.58
620.73	29778.64
620.89	29195.84
621.04	29535.22
621.19	29158.39
621.34	29387.77
621.49	28521.77
621.65	29132.65
621.80	29312.87
621.95	29078.82
622.10	28907.96
622.25	28900.94
622.41	29125.63
622.56	28975.83
622.71	29532.88
622.86	29179.46
623.01	28966.47
623.16	29139.67
623.32	29015.62
623.47	28968.81
623.62	28992.22
623.77	29139.67
623.92	29142.01
624.07	28804.97
624.23	29273.08
624.38	29010.94
624.53	29123.29
624.68	28823.70
624.83	29179.46
624.98	28907.96
625.13	28685.61
625.29	29067.11
625.44	28891.57
625.59	28746.46
625.74	28379.00
625.89	28727.74
626.04	28561.56
626.19	28835.40
626.34	28823.70
626.49	28840.08
626.65	28552.20
626.80	28694.97
626.95	28694.97
627.10	28535.81
627.25	28456.23
627.40	28589.64
627.55	28226.86
627.70	28481.98
627.85	28322.82
628.00	28540.49
628.15	28709.01
628.30	28177.71
628.45	28474.96
628.60	28320.48
628.76	28271.33
628.91	28493.68
629.06	28507.72
629.21	28189.41
629.36	28374.31
629.51	28428.15
629.66	27992.81
629.81	28163.67
629.96	27894.50
630.11	27761.09
630.26	28048.98
630.41	28170.69
630.56	28301.76
630.71	28304.10
630.86	28489.00
631.01	28287.71
631.16	28379.00
631.31	28271.33
631.46	27931.95
631.61	28442.19
631.76	27983.44
631.91	27929.61
632.06	27999.83
632.21	27960.04
632.36	27920.25
632.51	27662.79
632.66	27908.55
632.81	27634.71
632.96	27938.97
633.10	28238.56
633.25	27901.53
633.40	27843.01
633.55	27812.59
633.70	27805.56
633.85	27515.34
634.00	27887.48
634.15	27250.86
634.30	27751.73
634.45	27749.39
634.60	27534.06
634.75	27527.04
634.90	27927.27
635.05	27674.49
635.19	27747.05
635.34	27805.56
635.49	27742.37
635.64	27571.51
635.79	27686.20
635.94	27557.47
636.09	27660.45
636.24	27655.77
636.39	27618.32
636.53	27447.46
636.68	27138.51
636.83	27421.72
636.98	27637.05
637.13	27555.13
637.28	27433.42
637.43	27704.92
637.57	27651.09
637.72	27625.34
637.87	27564.49
638.02	27508.32
638.17	27414.69
638.32	27335.12
638.46	27077.66
638.61	27349.16
638.76	26611.89
638.91	27182.98
639.06	27082.34
639.20	27269.58
639.35	27388.95
639.50	27042.55
639.65	27482.57
639.80	27407.67
639.94	27480.23
640.09	27119.79
640.24	27019.14
640.39	27014.46
640.54	26829.56
640.68	26764.03
640.83	26946.59
640.98	26946.59
641.13	26459.76
641.27	26923.18
641.42	27161.92
641.57	26953.61
641.72	27126.81
641.86	27080.00
642.01	27019.14
642.16	26600.19
642.31	26960.63
642.45	26890.41
642.60	26845.94
642.75	26602.53
642.90	26675.09
643.04	26838.92
643.19	26345.07
643.34	26913.82
643.48	26539.33
643.63	26562.74
643.78	26806.16
643.93	26768.71
644.07	26787.43
644.22	26909.14
644.37	26693.81
644.51	26799.13
644.66	26705.51
644.81	26581.46
644.95	26242.09
645.10	26541.68
645.25	26520.61
645.39	26593.17
645.54	26520.61
645.69	26506.57
645.83	26623.59
645.98	26295.92
646.13	26115.70
646.27	26558.06
646.42	26593.17
646.57	26263.15
646.71	26338.05
646.86	26487.84
647.00	26419.97
647.15	26452.73
647.30	25738.87
647.44	26003.35
647.59	26281.88
647.74	26501.89
647.88	26389.54
648.03	26347.41
648.17	26728.92
648.32	26239.75
648.47	26160.17
648.61	26143.78
648.76	26082.93
648.90	26389.54
649.05	26637.64
649.20	26469.12
649.34	26094.63
649.49	25956.54
649.63	26195.28
649.78	26143.78
649.92	25497.80
650.07	25898.03
650.21	26085.27
650.36	25851.22
650.51	25633.55
650.65	26118.04
650.80	25727.17
650.94	25743.55
651.09	25820.79
651.23	25514.18
651.38	25792.70
651.52	25575.03
651.67	25954.20
651.81	26223.36
651.96	25776.32
652.10	25916.75
652.25	25635.89
652.39	25771.64
652.54	26181.23
652.68	25841.85
652.83	25483.75
652.97	26136.76
653.12	25577.37
653.26	25706.10
653.41	25385.45
653.55	25434.60
653.70	25319.92
653.84	25837.17
653.99	25757.60
654.13	25528.22
654.27	25380.77
654.42	25514.18
654.56	25535.24
654.71	25511.84
654.85	25390.13
655.00	25282.47
655.14	25373.75
655.29	25303.53
655.43	25441.62
655.57	25450.99
655.72	25214.59
655.86	24985.22
656.01	25385.45
656.15	25174.80
656.30	25436.94
656.44	25259.06
656.58	25057.78
656.73	25053.09
656.87	25214.59
657.01	25238.00
657.16	24915.00
657.30	25399.49
657.45	25036.71
657.59	25322.26
657.73	25132.67
657.88	25476.73
658.02	25025.01
658.16	25214.59
658.31	25230.98
658.45	24739.46
658.60	24699.67
658.74	24870.53
658.88	24716.06
659.03	24641.16
659.17	24812.02
659.31	24917.34
659.46	25179.48
659.60	24716.06
659.74	24723.08
659.89	24662.22
660.03	24493.71
660.17	24950.11
660.32	24482.00
660.46	24826.06
660.60	24393.06
660.74	24355.61
660.89	24615.41
661.03	24257.31
661.17	24301.78
661.32	24334.55
661.46	24594.35
661.60	24470.30
661.74	24327.53
661.89	24584.99
662.03	24599.03
662.17	24247.95
662.31	24287.74
662.46	24149.65
662.60	24332.21
662.74	24079.43
662.88	24088.79
663.03	23868.78
663.17	24140.29
663.31	23711.97
663.45	23974.11
663.60	24065.39
663.74	23644.09
663.88	24133.26
664.02	23857.08
664.17	23754.10
664.31	23796.23
664.45	23494.30
664.59	23709.63
664.73	23796.23
664.88	23810.27
665.02	23414.72
665.16	23370.25
665.30	23356.21
665.44	23646.43
665.59	23094.07
665.73	23616.01
665.87	23309.40
666.01	23737.71
666.15	23358.55
666.29	23569.19
666.44	23356.21
666.58	22979.38
666.72	22885.76
666.86	23150.24
667.00	23536.43
667.14	22885.76
667.28	23180.67
667.43	22965.34
667.57	23197.05
667.71	22906.82
667.85	22937.25
667.99	22939.59
668.13	23016.83
668.27	22963.00
668.41	22984.06
668.56	22661.07
668.70	22796.82
668.84	22845.97
668.98	23129.17
669.12	22745.33
669.26	22801.50
669.40	22651.70
669.54	22712.56
669.68	22642.34
669.82	22588.51
669.96	22604.89
670.10	22370.84
670.25	22434.03
670.39	22459.78
670.53	22356.80
670.67	22185.94
670.81	22188.28
670.95	21921.46
671.09	22429.35
671.23	22115.72
671.37	22726.60
671.51	22120.40
671.65	22050.19
671.79	22202.32
671.93	21858.26
672.07	22005.72
672.21	21818.47
672.35	21743.58
672.49	21694.43
672.63	21937.84
672.77	21738.90
672.91	21788.05
673.05	21687.40
673.19	21551.65
673.33	21708.47
673.47	21928.48
673.61	21678.04
673.75	21776.34
673.89	21509.52
674.03	21820.81
674.17	21350.37
674.31	21036.74
674.45	21436.97
674.59	21156.10
674.73	21326.96
674.87	21010.99
675.01	21219.30
675.15	21158.44
675.29	21062.48
675.43	20823.75
675.56	20950.14
675.70	20985.24
675.84	21060.14
675.98	20245.63
676.12	20929.07
676.26	20971.20
676.40	20755.87
676.54	20842.47
676.68	20870.56
676.82	20201.16
676.96	20596.71
677.10	20451.60
677.23	20098.18
677.37	20020.94
677.51	20208.19
677.65	19981.15
677.79	19922.64
677.93	20070.09
678.07	19939.02
678.21	19857.10
678.34	19641.78
678.48	19632.41
678.62	19885.19
678.76	19751.78
678.90	19550.49
679.04	19431.13
679.18	19255.59
679.31	19119.84
679.45	19274.31
679.59	19300.06
679.73	19363.25
679.87	18841.31
680.00	19414.74
680.14	18977.06
680.28	18956.00
680.42	19389.00
680.56	19000.47
680.70	19260.27
680.83	19381.98
680.97	18764.07
681.11	18764.07
681.25	18597.90
681.39	18881.10
681.52	18792.16
681.66	18623.64
681.80	18537.04
681.94	18696.20
682.07	18675.13
682.21	18317.03
682.35	18052.55
682.49	18171.92
682.62	18015.10
682.76	18281.92
682.90	18038.51
683.04	18183.62
683.17	17944.89
683.31	17912.12
683.45	17905.10
683.59	17893.40
683.72	17891.06
683.86	17642.96
684.00	17385.50
684.13	17699.13
684.27	17547.00
684.41	17453.37
684.55	17219.32
684.68	17163.15
684.82	17254.43
684.96	17144.42
685.09	17078.89
685.23	17081.23
685.37	17064.85
685.50	16828.45
685.64	17329.33
685.78	16994.63
685.91	16968.88
686.05	17092.93
686.19	16854.20
686.32	17135.06
686.46	16547.59
686.60	16318.22
686.73	16521.84
686.87	16556.95
687.01	16245.66
687.14	16484.39
687.28	16173.10
687.42	16458.65
687.55	16032.67
687.69	16154.38
687.82	16119.27
687.96	16252.68
688.10	16177.78
688.23	16032.67
688.37	16248.00
688.50	15901.60
688.64	15768.19
688.78	15829.04
688.91	15637.12
689.05	15580.95
689.18	16013.95
689.32	15276.68
689.46	15318.81
689.59	15389.02
689.73	15515.41
689.86	15555.20
690.00	15232.21
690.13	15098.80
690.27	15068.37
690.41	15438.17
690.54	15054.33
690.68	15094.11
690.81	15204.12
690.95	15295.40
691.08	14925.60
691.22	14640.05
691.35	15112.84
691.49	14771.12
691.62	15173.69
691.76	14635.37
691.89	14623.67
692.03	14401.32
692.16	14361.53
692.30	14401.32
692.43	14382.59
692.57	14221.10
692.70	14246.84
692.84	14183.65
692.97	13905.12
693.11	14097.05
693.24	14099.39
693.38	13909.80
693.51	14155.56
693.65	13933.21
693.78	13834.91
693.92	13951.93
694.05	13879.38
694.19	13708.52
694.32	13521.27
694.45	13514.25
694.59	13392.55
694.72	13217.01
694.86	13427.65
694.99	13319.99
695.13	13530.64
695.26	13174.88
695.39	13142.11
695.53	13362.12
695.66	12936.14
695.80	13174.88
695.93	13224.03
696.07	13118.70
696.20	13158.49
696.33	12868.27
696.47	12896.35
696.60	12716.13
696.73	12872.95
696.87	12912.74
697.00	12676.34
697.14	12461.01
697.27	12383.77
697.40	12358.03
697.54	12446.97
697.67	12472.71
697.80	12079.50
697.94	11941.41
698.07	12084.19
698.21	11976.52
698.34	12269.09
698.47	12133.34
698.61	12079.50
698.74	11852.47
698.87	11906.31
699.01	11880.56
699.14	11796.30
699.27	11950.78
699.40	11726.08
699.54	11843.11
699.67	11707.36
699.80	11726.08
699.94	11426.50
700.07	11286.06
700.20	11641.82
700.34	11009.88
700.47	11192.44
700.60	11489.69
700.73	11400.75
700.87	11286.06
701.00	11122.23
701.13	11098.82
701.26	11171.38
701.40	11094.14
701.53	11028.60
701.66	11056.69
701.79	10867.11
701.93	10803.91
702.06	10724.33
702.19	10654.12
702.32	10726.68
702.46	10396.66
702.59	10457.51
702.72	10349.85
702.85	10310.06
702.99	10394.32
703.12	10331.12
703.25	10284.31
703.38	10314.74
703.51	10298.36
703.65	10384.96
703.78	10099.41
703.91	10230.48
704.04	10284.31
704.17	10094.73
704.31	10066.64
704.44	10022.17
704.57	10071.33
704.70	9947.28
704.83	10017.49
704.96	9944.94
705.10	9605.56
705.23	9572.79
>>>>>End Processed Spectral Data<<<<<
