SpectraSuite Data File
++++++++++++++++++++++++++++++++++++
Date: Fri Oct 18 13:58:08 GMT-05:00 2013
User: bianchi
Dark Spectrum Present: No
Reference Spectrum Present: No
Number of Sampled Component Spectra: 1
Spectrometers: USB2+H05261
Integration Time (usec): 50000 (USB2+H05261)
Spectra Averaged: 1 (USB2+H05261)
Boxcar Smoothing: 0 (USB2+H05261)
Correct for Electrical Dark: No (USB2+H05261)
Strobe/Lamp Enabled: No (USB2+H05261)
Correct for Detector Non-linearity: No (USB2+H05261)
Correct for Stray Light: No (USB2+H05261)
Number of Pixels in Processed Spectrum: 2048
>>>>>Begin Processed Spectral Data<<<<<
365.73	0.00
365.92	0.00
366.12	0.00
366.32	0.00
366.52	0.00
366.72	0.00
366.91	0.00
367.11	0.00
367.31	0.00
367.51	0.00
367.70	0.00
367.90	0.00
368.10	0.00
368.30	0.00
368.49	0.00
368.69	0.00
368.89	0.00
369.09	0.00
369.28	0.00
369.48	0.00
369.68	0.00
369.87	0.00
370.07	0.00
370.27	0.00
370.47	0.00
370.66	124.05
370.86	63.19
371.06	131.07
371.25	154.48
371.45	177.88
371.65	138.09
371.84	173.20
372.04	138.09
372.24	154.48
372.44	210.65
372.63	168.52
372.83	252.78
373.03	227.03
373.22	217.67
373.42	224.69
373.62	196.60
373.81	222.35
374.01	173.20
374.21	189.58
374.40	189.58
374.60	257.46
374.79	212.99
374.99	238.73
375.19	243.42
375.38	304.27
375.58	271.50
375.78	264.48
375.97	278.52
376.17	252.78
376.37	252.78
376.56	271.50
376.76	205.97
376.95	264.48
377.15	252.78
377.35	252.78
377.54	210.65
377.74	166.18
377.93	290.23
378.13	292.57
378.33	243.42
378.52	337.04
378.72	341.72
378.91	280.86
379.11	257.46
379.31	290.23
379.50	283.20
379.70	299.59
379.89	280.86
380.09	325.33
380.28	297.25
380.48	383.85
380.68	301.93
380.87	294.91
381.07	315.97
381.26	315.97
381.46	411.93
381.65	390.87
381.85	306.61
382.04	285.55
382.24	264.48
382.43	250.44
382.63	355.76
382.83	313.63
383.02	360.44
383.22	393.21
383.41	318.31
383.61	287.89
383.80	374.49
384.00	411.93
384.19	334.70
384.39	369.80
384.58	362.78
384.78	276.18
384.97	397.89
385.17	397.89
385.36	379.17
385.56	348.74
385.75	418.96
385.95	388.53
386.14	435.34
386.34	442.36
386.53	376.83
386.72	327.68
386.92	447.04
387.11	409.59
387.31	383.85
387.50	423.64
387.70	414.27
387.89	383.85
388.09	444.70
388.28	486.83
388.48	421.30
388.67	383.85
388.86	528.96
389.06	458.74
389.25	447.04
389.45	526.62
389.64	493.85
389.84	538.32
390.03	533.64
390.22	512.58
390.42	472.79
390.61	533.64
390.81	543.00
391.00	500.87
391.19	571.09
391.39	538.32
391.58	559.39
391.78	528.96
391.97	503.22
392.16	458.74
392.36	599.18
392.55	512.58
392.75	479.81
392.94	535.98
393.13	545.34
393.33	580.45
393.52	610.88
393.71	601.52
393.91	601.52
394.10	489.17
394.29	554.71
394.49	540.66
394.68	613.22
394.88	622.58
395.07	540.66
395.26	650.67
395.46	585.13
395.65	571.09
395.84	662.37
396.04	629.60
396.23	622.58
396.42	603.86
396.62	667.05
396.81	641.31
397.00	681.10
397.19	627.26
397.39	683.44
397.58	706.84
397.77	713.86
397.97	641.31
398.16	641.31
398.35	777.06
398.55	669.39
398.74	739.61
398.93	734.93
399.12	664.71
399.32	660.03
399.51	657.69
399.70	760.67
399.90	718.54
400.09	866.00
400.28	751.31
400.47	784.08
400.67	746.63
400.86	861.32
401.05	751.31
401.24	793.44
401.44	870.68
401.63	840.25
401.82	823.87
402.01	835.57
402.21	882.38
402.40	868.34
402.59	849.61
402.78	798.12
402.97	908.13
403.17	866.00
403.36	947.92
403.55	814.51
403.74	891.74
403.93	856.64
404.13	880.04
404.32	837.91
404.51	823.87
404.70	983.02
404.89	961.96
405.09	983.02
405.28	1107.07
405.47	957.28
405.66	1020.47
405.85	1004.09
406.05	961.96
406.24	983.02
406.43	980.68
406.62	966.64
406.81	1013.45
407.00	1034.52
407.20	1029.84
407.39	976.00
407.58	924.51
407.77	1029.84
407.96	1139.84
408.15	1116.44
408.34	1104.73
408.54	1118.78
408.73	1109.41
408.92	1263.89
409.11	1123.46
409.30	1069.62
409.49	1069.62
409.68	1181.97
409.87	1135.16
410.07	1240.48
410.26	1170.27
410.45	1256.87
410.64	1275.59
410.83	1252.19
411.02	1219.42
411.21	1188.99
411.40	1149.20
411.59	1261.55
411.78	1259.21
411.98	1320.06
412.17	1359.85
412.36	1387.94
412.55	1261.55
412.74	1266.23
412.93	1380.92
413.12	1355.17
413.31	1362.19
413.50	1362.19
413.69	1387.94
413.88	1387.94
414.07	1376.24
414.26	1441.77
414.45	1504.96
414.64	1521.35
414.83	1572.84
415.02	1591.56
415.22	1500.28
415.41	1556.46
415.60	1638.38
415.79	1563.48
415.98	1652.42
416.17	1591.56
416.36	1568.16
416.55	1673.48
416.74	1689.87
416.93	1664.12
417.12	1755.40
417.31	1715.61
417.50	1729.66
417.69	1769.44
417.88	1792.85
418.07	1795.19
418.26	1818.60
418.45	1771.79
418.64	1935.62
418.83	1811.57
419.02	1839.66
419.21	1757.74
419.39	1842.00
419.58	1832.64
419.77	1823.28
419.96	1797.53
420.15	1963.71
420.34	1900.52
420.53	1830.30
420.72	2003.50
420.91	1975.41
421.10	1856.04
421.29	1942.64
421.48	1870.09
421.67	1982.43
421.86	1956.69
422.05	1998.82
422.24	1996.48
422.43	1893.49
422.61	1980.09
422.80	1977.75
422.99	2064.35
423.18	2136.91
423.37	2052.65
423.56	2015.20
423.75	2005.84
423.94	2129.89
424.13	1860.73
424.32	1961.37
424.50	2111.16
424.69	2111.16
424.88	2059.67
425.07	1994.14
425.26	1977.75
425.45	2134.57
425.64	2022.22
425.83	2134.57
426.01	2150.95
426.20	2029.24
426.39	2012.86
426.58	2132.23
426.77	2017.54
426.96	2125.21
427.15	2022.22
427.33	2047.97
427.52	2122.87
427.71	2139.25
427.90	2073.71
428.09	2211.81
428.28	2193.08
428.46	2260.96
428.65	2326.49
428.84	2216.49
429.03	2352.24
429.22	2214.15
429.40	2176.70
429.59	2331.17
429.78	2139.25
429.97	2223.51
430.16	2312.45
430.34	2373.30
430.53	2429.48
430.72	2352.24
430.91	2314.79
431.10	2387.35
431.28	2415.43
431.47	2434.16
431.66	2478.63
431.85	2464.58
432.03	2497.35
432.22	2417.77
432.41	2356.92
432.60	2443.52
432.79	2506.71
432.97	2593.31
433.16	2476.29
433.35	2506.71
433.54	2612.04
433.72	2626.08
433.91	2420.11
434.10	2483.31
434.28	2583.95
434.47	2586.29
434.66	2621.40
434.85	2581.61
435.03	2574.59
435.22	2710.34
435.41	2752.47
435.59	2719.70
435.78	2558.21
435.97	2658.85
436.16	2586.29
436.34	2745.45
436.53	2583.95
436.72	2717.36
436.90	2738.43
437.09	2661.19
437.28	2679.91
437.46	2752.47
437.65	2752.47
437.84	2806.30
438.02	2789.92
438.21	2876.52
438.40	2656.51
438.58	2949.08
438.77	2902.26
438.96	2974.82
439.14	3068.44
439.33	2885.88
439.52	3009.93
439.70	3007.59
439.89	3087.17
440.08	3122.27
440.26	3016.95
440.45	2984.18
440.63	3227.60
440.82	3152.70
441.01	3002.91
441.19	3126.96
441.38	3255.69
441.57	3162.06
441.75	3283.77
441.94	3262.71
442.12	3370.37
442.31	3321.22
442.50	3529.53
442.68	3391.44
442.87	3262.71
443.05	3356.33
443.24	3346.97
443.43	3293.13
443.61	3363.35
443.80	3499.10
443.98	3346.97
444.17	3272.07
444.35	3452.29
444.54	3499.10
444.73	3396.12
444.91	3421.86
445.10	3571.66
445.28	3410.16
445.47	3447.61
445.65	3531.87
445.84	3515.48
446.02	3522.51
446.21	3508.46
446.39	3424.20
446.58	3485.06
446.77	3487.40
446.95	3421.86
447.14	3562.30
447.32	3510.80
447.51	3368.03
447.69	3569.32
447.88	3468.67
448.06	3370.37
448.25	3447.61
448.43	3597.40
448.62	3557.61
448.80	3494.42
448.99	3702.73
449.17	3552.93
449.36	3485.06
449.54	3639.53
449.73	3740.18
449.91	3723.79
450.10	3770.60
450.28	3817.41
450.46	3765.92
450.65	3674.64
450.83	3751.88
451.02	3819.75
451.20	3845.50
451.39	3838.48
451.57	3810.39
451.76	3864.22
451.94	3911.04
452.13	3861.88
452.31	3822.09
452.49	3808.05
452.68	3889.97
452.86	3901.67
453.05	3978.91
453.23	3934.44
453.42	3878.27
453.60	3950.82
453.78	4102.96
453.97	3941.46
454.15	4037.42
454.34	4098.28
454.52	4182.54
454.70	4016.36
454.89	4142.75
455.07	4131.05
455.26	4074.87
455.44	4180.20
455.62	4060.83
455.81	4117.00
455.99	4081.89
456.17	4159.13
456.36	4257.43
456.54	4142.75
456.73	4180.20
456.91	4250.41
457.09	4255.09
457.28	4472.76
457.46	4287.86
457.64	4292.54
457.83	4486.81
458.01	4276.16
458.19	4409.57
458.38	4271.48
458.56	4423.61
458.74	4437.66
458.93	4493.83
459.11	4388.50
459.29	4493.83
459.48	4599.15
459.66	4526.60
459.84	4594.47
460.03	4676.39
460.21	4629.58
460.39	4652.98
460.57	4498.51
460.76	4638.94
460.94	4568.73
461.12	4608.51
461.31	4723.20
461.49	4655.33
461.67	4784.06
461.85	4844.91
462.04	4716.18
462.22	5123.43
462.40	4748.95
462.59	4786.40
462.77	4821.50
462.95	4854.27
463.13	4690.43
463.32	4833.21
463.50	4961.94
463.68	4877.68
463.86	4884.70
464.05	4793.42
464.23	4882.36
464.41	4912.78
464.59	4917.47
464.78	5055.56
464.96	4994.70
465.14	4891.72
465.32	5104.71
465.50	5067.26
465.69	5078.96
465.87	4922.15
466.05	5184.29
466.23	5132.79
466.41	5018.11
466.60	5165.56
466.78	5107.05
466.96	5036.83
467.14	5046.20
467.32	5071.94
467.51	5289.61
467.69	5151.52
467.87	5254.50
468.05	5179.61
468.23	5050.88
468.41	5153.86
468.60	5298.97
468.78	5301.31
468.96	5294.29
469.14	5284.93
469.32	5453.45
469.50	5151.52
469.69	5469.83
469.87	5437.06
470.05	5495.58
470.23	5472.17
470.41	5394.93
470.59	5411.32
470.77	5453.45
470.95	5551.75
471.14	5788.14
471.32	5528.35
471.50	5640.69
471.68	5675.80
471.86	5731.97
472.04	5804.53
472.22	5923.90
472.40	5633.67
472.58	5774.10
472.77	5783.46
472.95	5724.95
473.13	5933.26
473.31	5863.04
473.49	5856.02
473.67	5818.57
473.85	5902.83
474.03	6050.28
474.21	5987.09
474.39	6071.35
474.57	6108.80
474.75	6190.72
474.93	6282.00
475.12	6314.77
475.30	6249.23
475.48	6274.98
475.66	6183.70
475.84	6195.40
476.02	6457.54
476.20	6565.20
476.38	6499.67
476.56	6621.38
476.74	6520.73
476.92	6677.55
477.10	6539.46
477.28	6724.36
477.46	6825.00
477.64	6771.17
477.82	6871.81
478.00	6846.07
478.18	7087.14
478.36	7000.54
478.54	7286.09
478.72	7091.82
478.90	7267.36
479.08	7466.31
479.26	7379.71
479.44	7330.56
479.62	7494.40
479.80	7595.04
479.98	7480.35
480.16	7559.93
480.34	7424.18
480.52	7747.17
480.70	7702.70
480.88	7679.30
481.06	7992.93
481.24	7889.95
481.41	7798.66
481.59	7960.16
481.77	8152.09
481.95	8039.74
482.13	8042.08
482.31	8208.26
482.49	8205.92
482.67	8421.25
482.85	8500.83
483.03	8594.45
483.21	8716.16
483.39	8667.00
483.57	8798.07
483.74	8690.41
483.92	8821.48
484.10	8861.27
484.28	9062.55
484.46	9013.40
484.64	9289.59
484.82	9116.39
485.00	9083.62
485.18	9415.98
485.35	9514.28
485.53	9472.15
485.71	9441.72
485.89	9790.46
486.07	9741.31
486.25	9652.37
486.43	9753.01
486.61	10036.22
486.78	10106.43
486.96	10043.24
487.14	10244.52
487.32	10246.87
487.50	10340.49
487.68	10274.95
487.85	10375.59
488.03	10492.62
488.21	10855.40
488.39	10689.23
488.57	10956.05
488.75	10864.77
488.92	10991.16
489.10	11255.64
489.28	11166.70
489.46	11183.08
489.64	11194.78
489.81	11342.24
489.99	11349.26
490.17	11480.33
490.35	11665.23
490.53	11559.91
490.70	11779.92
490.88	11932.05
491.06	12004.61
491.24	11700.34
491.41	11964.82
491.59	12208.23
491.77	12299.52
491.95	12336.96
492.13	12453.99
492.30	12262.07
492.48	12428.24
492.66	12578.04
492.84	12690.38
493.01	12479.74
493.19	12730.17
493.37	12837.84
493.54	12898.69
493.72	13053.17
493.90	12730.17
494.08	12912.74
494.25	13062.53
494.43	13341.05
494.61	13240.41
494.79	13369.14
494.96	13518.93
495.14	13600.85
495.32	13638.30
495.49	14047.90
495.67	13935.55
495.85	13841.93
496.02	14139.18
496.20	14162.58
496.38	14141.52
496.55	13809.16
496.73	14551.11
496.91	14143.86
497.09	14684.52
497.26	14483.24
497.44	14815.59
497.62	14555.79
497.79	14824.95
497.97	14586.22
498.14	14925.60
498.32	14923.26
498.50	14937.30
498.67	14977.09
498.85	15000.49
499.03	15192.42
499.20	15194.76
499.38	15281.36
499.56	15564.56
499.73	15499.03
499.91	15761.17
500.08	15632.44
500.26	15463.92
500.44	15777.55
500.61	15953.09
500.79	15683.93
500.97	15852.45
501.14	16194.17
501.32	16212.89
501.49	15899.26
501.67	15992.88
501.84	16081.82
502.02	16123.95
502.20	16147.36
502.37	16547.59
502.55	16348.64
502.72	16624.83
502.90	16503.12
503.07	16343.96
503.25	16390.77
503.43	16615.46
503.60	16744.19
503.78	16884.62
503.95	16730.15
504.13	17121.02
504.30	16863.56
504.48	16781.64
504.65	17060.16
504.83	17165.49
505.01	17348.05
505.18	17245.07
505.36	17205.28
505.53	17216.98
505.71	17235.70
505.88	17315.28
506.06	17153.79
506.23	17701.47
506.41	17745.94
506.58	17692.11
506.76	17708.49
506.93	17483.80
507.11	17647.64
507.28	17638.28
507.46	18195.32
507.63	18127.45
507.81	18050.21
507.98	17954.25
508.16	17954.25
508.33	17804.46
508.50	18001.06
508.68	18347.46
508.85	18436.40
509.03	18415.34
509.20	18197.67
509.38	18635.35
509.55	18637.69
509.73	18642.37
509.90	18647.05
510.08	18356.82
510.25	18799.18
510.42	18773.44
510.60	18876.42
510.77	18991.11
510.95	18995.79
511.12	18623.64
511.30	18874.08
511.47	19082.39
511.64	19180.69
511.82	19192.39
511.99	19541.13
512.17	19419.42
512.34	19248.57
512.51	19587.94
512.69	19721.35
512.86	19658.16
513.04	19569.22
513.21	19583.26
513.38	19566.88
513.56	19559.86
513.73	19950.73
513.90	19894.55
514.08	19723.69
514.25	20034.99
514.43	19983.49
514.60	19950.73
514.77	20212.87
514.95	19868.81
515.12	20074.77
515.29	20016.26
515.47	20397.77
515.64	20575.65
515.81	20521.82
515.99	20173.08
516.16	20418.83
516.33	20526.50
516.51	20788.64
516.68	21041.42
516.85	20573.31
517.03	20781.62
517.20	21053.12
517.37	21029.71
517.54	20793.32
517.72	20891.62
517.89	20732.47
518.06	21020.35
518.24	21071.84
518.41	20830.77
518.58	21118.65
518.75	21153.76
518.93	21364.41
519.10	21228.66
519.27	21106.95
519.45	21336.32
519.62	21415.90
519.79	21315.26
519.96	21474.42
520.14	21689.74
520.31	21455.69
520.48	21645.27
520.65	21701.45
520.83	21785.71
521.00	22127.42
521.17	21465.05
521.34	21713.15
521.52	21575.06
521.69	21869.97
521.86	22204.66
522.03	21919.12
522.20	22082.95
522.38	22104.02
522.55	22221.05
522.72	22129.77
522.89	22185.94
523.07	22370.84
523.24	22188.28
523.41	22380.20
523.58	22141.47
523.75	22644.68
523.92	22328.71
524.10	22260.84
524.27	22263.18
524.44	23016.83
524.61	22742.99
524.78	23073.00
524.96	22642.34
525.13	22600.21
525.30	23056.62
525.47	22911.50
525.64	23126.83
525.81	23019.17
525.98	23143.22
526.16	23311.74
526.33	23044.91
526.50	23667.50
526.67	23068.32
526.84	23089.38
527.01	22768.73
527.18	23459.19
527.36	23403.02
527.53	23625.37
527.70	24084.11
527.87	23597.28
528.04	23445.15
528.21	23669.84
528.38	23723.67
528.55	23765.80
528.72	23690.90
528.89	23929.64
529.07	24034.96
529.24	23864.10
529.41	23723.67
529.58	23894.53
529.75	24212.84
529.92	23793.89
530.09	24105.18
530.26	24376.68
530.43	24079.43
530.60	24421.15
530.77	24290.08
530.94	23894.53
531.11	24154.33
531.28	24304.12
531.46	24189.44
531.63	24577.97
531.80	24411.79
531.97	24456.26
532.14	24547.54
532.31	24201.14
532.48	24226.89
532.65	24638.82
532.82	24442.21
532.99	24652.86
533.16	24540.52
533.33	24797.98
533.50	24919.68
533.67	24816.70
533.84	24381.36
534.01	24823.72
534.18	24844.79
534.35	24891.60
534.52	24800.32
534.69	24884.58
534.86	25390.13
535.03	25099.90
535.20	24996.92
535.37	25336.30
535.54	25364.39
535.71	24650.52
535.88	24943.09
536.05	25228.63
536.22	25025.01
536.38	25434.60
536.55	25366.73
536.72	25102.25
536.89	25184.16
537.06	25214.59
537.23	25254.38
537.40	25212.25
537.57	25703.76
537.74	25427.58
537.91	25895.69
538.08	25722.49
538.25	25556.31
538.42	25500.14
538.59	25846.54
538.75	25748.23
538.92	25500.14
539.09	25968.24
539.26	25621.84
539.43	26015.05
539.60	26195.28
539.77	26150.81
539.94	25891.01
540.11	25486.09
540.28	25855.90
540.44	26096.97
540.61	26139.10
540.78	26211.66
540.95	26047.82
541.12	26504.23
541.29	26188.25
541.46	26206.98
541.62	26183.57
541.79	25909.73
541.96	26045.48
542.13	26174.21
542.30	26218.68
542.47	26305.28
542.63	26286.56
542.80	26803.82
542.97	26749.98
543.14	26827.22
543.31	26934.88
543.48	26555.72
543.64	26993.40
543.81	26803.82
543.98	27044.89
544.15	27054.25
544.32	27178.30
544.48	27377.25
544.65	26977.01
544.82	26478.48
544.99	27248.52
545.16	26960.63
545.32	27136.17
545.49	27248.52
545.66	27171.28
545.83	27482.57
546.00	27400.65
546.16	27168.94
546.33	27171.28
546.50	27016.80
546.67	27271.92
546.83	27054.25
547.00	27080.00
547.17	27978.76
547.34	27271.92
547.50	27686.20
547.67	27826.63
547.84	27637.05
548.00	27075.32
548.17	27260.22
548.34	27147.87
548.51	27889.82
548.67	27641.73
548.84	27967.06
549.01	27775.14
549.18	27398.31
549.34	27543.42
549.51	27676.83
549.68	27489.59
549.84	27704.92
550.01	27805.56
550.18	27817.27
550.34	27845.35
550.51	27992.81
550.68	28191.75
550.84	27534.06
551.01	27800.88
551.18	27969.40
551.34	28142.60
551.51	28034.94
551.68	28217.50
551.84	28362.61
552.01	28105.15
552.18	28290.06
552.34	28217.50
552.51	28224.52
552.68	28020.89
552.84	28154.30
553.01	28449.21
553.18	27924.93
553.34	28435.17
553.51	28521.77
553.67	28259.63
553.84	28716.03
554.01	28484.32
554.17	28521.77
554.34	28184.73
554.51	28650.50
554.67	28814.34
554.84	28741.78
555.00	28360.27
555.17	28549.85
555.33	28507.72
555.50	28460.91
555.67	28280.69
555.83	28556.88
556.00	28924.34
556.16	28893.91
556.33	28673.90
556.50	28762.84
556.66	28947.75
556.83	28961.79
556.99	28800.29
557.16	29076.48
557.32	29099.88
557.49	28659.86
557.65	28449.21
557.82	28526.45
557.98	28992.22
558.15	28837.74
558.32	29195.84
558.48	28872.85
558.65	29294.14
558.81	29467.34
558.98	28734.76
559.14	29081.16
559.31	29060.09
559.47	29357.34
559.64	29408.83
559.80	29055.41
559.97	29132.65
560.13	28924.34
560.30	28875.19
560.46	29163.08
560.63	28957.11
560.79	29476.71
560.96	29741.19
561.12	29160.73
561.29	29366.70
561.45	29090.52
561.61	29598.41
561.78	29638.20
561.94	29521.18
562.11	29582.03
562.27	29439.26
562.44	29186.48
562.60	29163.08
562.77	29268.40
562.93	29427.56
563.10	29127.97
563.26	29235.63
563.42	30246.74
563.59	29352.66
563.75	29736.51
563.92	29422.87
564.08	29287.12
564.24	29495.43
564.41	29446.28
564.57	29685.01
564.74	29345.64
564.90	29652.25
565.07	29745.87
565.23	29825.45
565.39	29647.57
565.56	29446.28
565.72	29610.12
565.88	29670.97
566.05	29773.95
566.21	29818.42
566.38	29755.23
566.54	29951.84
566.70	29816.08
566.87	30190.57
567.03	29748.21
567.19	30066.52
567.36	29881.62
567.52	29923.75
567.68	29773.95
567.85	29867.58
568.01	30171.85
568.17	29572.67
568.34	30181.21
568.50	29956.52
568.66	29469.69
568.83	29839.49
568.99	29582.03
569.15	29991.62
569.32	29818.42
569.48	29589.05
569.64	29883.96
569.81	30082.91
569.97	29762.25
570.13	30323.98
570.30	30157.80
570.46	30691.44
570.62	29837.15
570.78	29614.80
570.95	29724.80
571.11	29949.50
571.27	29928.43
571.43	29993.97
571.60	30242.06
571.76	30040.78
571.92	30211.64
572.09	30068.86
572.25	30043.12
572.41	29926.09
572.57	30410.58
572.74	30277.17
572.90	30052.48
573.06	29766.93
573.22	30316.96
573.38	30106.31
573.55	30326.32
573.71	30583.78
573.87	29893.32
574.03	29809.06
574.20	29998.65
574.36	29998.65
574.52	30373.13
574.68	30071.20
574.84	30185.89
575.01	30246.74
575.17	30539.31
575.33	30356.75
575.49	30415.26
575.65	30174.19
575.82	30015.03
575.98	30082.91
576.14	30251.42
576.30	29986.94
576.46	30251.42
576.62	30309.94
576.79	30534.63
576.95	30443.35
577.11	30272.49
577.27	30438.67
577.43	30295.89
577.59	30630.59
577.75	30352.07
577.92	30139.08
578.08	29954.18
578.24	30270.15
578.40	30228.02
578.56	30244.40
578.72	30256.11
578.88	30831.88
579.04	30792.09
579.21	30272.49
579.37	30366.11
579.53	30389.52
579.69	30103.97
579.85	30106.31
580.01	30466.75
580.17	30134.40
580.33	30581.44
580.49	30370.79
580.65	30644.63
580.82	30513.56
580.98	30445.69
581.14	30501.86
581.30	30377.81
581.46	30480.80
581.62	30403.56
581.78	30228.02
581.94	30438.67
582.10	30146.10
582.26	30511.22
582.42	30691.44
582.58	30604.84
582.74	30356.75
582.90	30352.07
583.06	30499.52
583.22	29986.94
583.38	30363.77
583.54	30209.29
583.70	30518.25
583.86	30501.86
584.02	29851.19
584.18	30927.84
584.34	30705.49
584.50	30792.09
584.66	30466.75
584.82	30457.39
584.98	30529.95
585.14	30382.49
585.30	29954.18
585.46	30253.76
585.62	30244.40
585.78	30611.87
585.94	30431.65
586.10	30663.36
586.26	30796.77
586.42	30670.38
586.58	30721.87
586.74	30375.47
586.90	30426.96
587.06	30436.33
587.22	30036.09
587.38	30307.60
587.54	30642.29
587.70	30600.16
587.86	30696.13
588.02	30817.83
588.18	30820.17
588.34	30824.86
588.49	30944.22
588.65	30616.55
588.81	30452.71
588.97	30902.09
589.13	30305.26
589.29	30562.72
589.45	30754.64
589.61	31096.36
589.77	30958.27
589.93	31040.18
590.08	31157.21
590.24	30976.99
590.40	31358.50
590.56	30937.20
590.72	30721.87
590.88	30691.44
591.04	30576.76
591.20	31405.31
591.35	31026.14
591.51	31253.17
591.67	31082.31
591.83	31402.97
591.99	30972.31
592.15	30890.39
592.31	30850.60
592.46	30270.15
592.62	30771.02
592.78	30951.24
592.94	30649.32
593.10	30682.08
593.26	31023.80
593.41	30792.09
593.57	31255.51
593.73	30895.07
593.89	31302.32
594.05	30965.29
594.20	30764.00
594.36	31047.21
594.52	30972.31
594.68	30752.30
594.84	30553.35
594.99	30738.26
595.15	30925.50
595.31	31285.94
595.47	31049.55
595.62	30689.10
595.78	31299.98
595.94	31084.65
596.10	30850.60
596.25	30998.06
596.41	30721.87
596.57	30529.95
596.73	31264.88
596.88	30731.23
597.04	31168.91
597.20	30916.14
597.36	31278.92
597.51	31386.58
597.67	31278.92
597.83	31639.36
597.99	31159.55
598.14	31299.98
598.30	31281.26
598.46	30761.66
598.61	30984.01
598.77	30841.24
598.93	31323.39
599.09	31103.38
599.24	31316.37
599.40	31122.10
599.56	31115.08
599.71	31042.53
599.87	31239.13
600.03	31218.07
600.18	31117.42
600.34	31075.29
600.50	30960.61
600.65	30902.09
600.81	31084.65
600.97	31370.20
601.12	31358.50
601.28	31374.88
601.44	31281.26
601.59	31250.83
601.75	30984.01
601.91	31299.98
602.06	31119.76
602.22	31269.56
602.37	31173.60
602.53	31229.77
602.69	31171.25
602.84	31424.03
603.00	31168.91
603.16	31178.28
603.31	31187.64
603.47	31438.08
603.62	31082.31
603.78	31379.56
603.94	30881.03
604.09	31037.84
604.25	30934.86
604.40	31098.70
604.56	30904.43
604.71	31468.50
604.87	31103.38
605.03	31276.58
605.18	31166.57
605.34	30843.58
605.49	30614.21
605.65	31391.26
605.80	31388.92
605.96	31316.37
606.12	30876.35
606.27	31311.69
606.43	31412.33
606.58	31531.70
606.74	30834.22
606.89	31304.67
607.05	31063.59
607.20	31225.09
607.36	31133.81
607.51	31030.82
607.67	30775.70
607.82	30890.39
607.98	30927.84
608.13	30946.56
608.29	30904.43
608.44	30768.68
608.60	31236.79
608.75	31220.41
608.91	31058.91
609.06	31056.57
609.22	31138.49
609.37	30953.58
609.53	31131.47
609.68	30749.96
609.84	30843.58
609.99	30686.76
610.15	30815.49
610.30	30792.09
610.46	30558.03
610.61	30892.73
610.76	31105.72
610.92	30764.00
611.07	31098.70
611.23	30855.28
611.38	30611.87
611.54	30469.09
611.69	31002.74
611.84	30824.86
612.00	30462.07
612.15	30654.00
612.31	30604.84
612.46	30892.73
612.62	30686.76
612.77	31075.29
612.92	30817.83
613.08	30679.74
613.23	30998.06
613.39	30403.56
613.54	30300.58
613.69	30487.82
613.85	30677.40
614.00	30539.31
614.15	30630.59
614.31	30663.36
614.46	30628.25
614.62	30632.93
614.77	30438.67
614.92	30506.54
615.08	30340.36
615.23	30642.29
615.38	30438.67
615.54	30492.50
615.69	30611.87
615.84	30185.89
616.00	30225.68
616.15	30635.27
616.30	30352.07
616.46	30527.61
616.61	30265.47
616.76	30352.07
616.92	30384.83
617.07	30574.42
617.22	30256.11
617.37	30183.55
617.53	30164.82
617.68	30155.46
617.83	30136.74
617.99	30155.46
618.14	29715.44
618.29	30316.96
618.45	30092.27
618.60	30522.93
618.75	30026.73
618.90	29965.88
619.06	30092.27
619.21	30029.07
619.36	30167.16
619.51	29989.28
619.67	29851.19
619.82	30057.16
619.97	30054.82
620.12	29902.68
620.28	29788.00
620.43	29982.26
620.58	30164.82
620.73	29881.62
620.89	29685.01
621.04	30094.61
621.19	30277.17
621.34	30059.50
621.49	30066.52
621.65	30026.73
621.80	29921.41
621.95	29898.00
622.10	29303.51
622.25	29769.27
622.41	29509.47
622.56	29685.01
622.71	29790.34
622.86	29818.42
623.01	29633.52
623.16	29474.37
623.32	29584.37
623.47	29853.53
623.62	29567.99
623.77	29551.60
623.92	29551.60
624.07	29553.94
624.23	29315.21
624.38	29551.60
624.53	29441.60
624.68	29605.44
624.83	29682.67
624.98	29539.90
625.13	29502.45
625.29	29677.99
625.44	29453.30
625.59	29383.09
625.74	29364.36
625.89	29355.00
626.04	29259.04
626.19	29001.58
626.34	29160.73
626.49	29322.23
626.65	29230.95
626.80	29387.77
626.95	29247.33
627.10	29184.14
627.25	29273.08
627.40	29284.78
627.55	29015.62
627.70	29186.48
627.85	28898.59
628.00	28912.64
628.15	28907.96
628.30	28797.95
628.45	29139.67
628.60	29156.05
628.76	28968.81
628.91	29090.52
629.06	29029.66
629.21	29046.05
629.36	28727.74
629.51	28622.41
629.66	28744.12
629.81	28711.35
629.96	28596.67
630.11	28690.29
630.26	28577.94
630.41	28720.71
630.56	28671.56
630.71	28650.50
630.86	29043.71
631.01	28701.99
631.16	28685.61
631.31	28800.29
631.46	28652.84
631.61	28779.23
631.76	28655.18
631.91	28439.85
632.06	28545.17
632.21	28428.15
632.36	28685.61
632.51	28587.30
632.66	28332.18
632.81	28451.55
632.96	28690.29
633.10	28907.96
633.25	28624.75
633.40	28760.50
633.55	28404.74
633.70	28156.64
633.85	28112.17
634.00	28231.54
634.15	28474.96
634.30	28315.80
634.45	27990.47
634.60	28048.98
634.75	28156.64
634.90	28306.44
635.05	28240.90
635.19	28238.56
635.34	28395.38
635.49	28416.44
635.64	28606.03
635.79	28229.20
635.94	28463.25
636.09	28072.39
636.24	28184.73
636.39	28009.19
636.53	28238.56
636.68	28119.20
636.83	28203.46
636.98	28376.66
637.13	28268.99
637.28	28374.31
637.43	28446.87
637.57	28409.42
637.72	28032.60
637.87	27875.78
638.02	27466.19
638.17	27852.38
638.32	27814.93
638.46	27948.34
638.61	27662.79
638.76	27590.24
638.91	27426.40
639.06	27669.81
639.20	28048.98
639.35	27520.02
639.50	27777.48
639.65	27871.10
639.80	28147.28
639.94	27875.78
640.09	27597.26
640.24	27644.07
640.39	27608.96
640.54	27583.21
640.68	27805.56
640.83	27520.02
640.98	27344.48
641.13	27180.64
641.27	27335.12
641.42	27615.98
641.57	27583.21
641.72	27466.19
641.86	27274.26
642.01	27276.60
642.16	27395.97
642.31	27227.45
642.45	27363.20
642.60	26754.66
642.75	27077.66
642.90	27080.00
643.04	27110.43
643.19	27410.01
643.34	27316.39
643.48	27227.45
643.63	27276.60
643.78	27304.69
643.93	27417.04
644.07	27236.81
644.22	27613.64
644.37	26785.09
644.51	26888.07
644.66	27384.27
644.81	26939.57
644.95	27274.26
645.10	27072.98
645.25	26831.90
645.39	27187.66
645.54	27026.17
645.69	26721.90
645.83	26810.84
645.98	26738.28
646.13	26923.18
646.27	27164.26
646.42	26778.07
646.57	27187.66
646.71	27302.35
646.86	26913.82
647.00	26625.93
647.15	26937.23
647.30	26817.86
647.44	26698.49
647.59	26768.71
647.74	26515.93
647.88	26443.37
648.03	26785.09
648.17	27016.80
648.32	26855.31
648.47	26948.93
648.61	26602.53
648.76	26745.30
648.90	26565.08
649.05	26876.37
649.20	26836.58
649.34	26565.08
649.49	26494.86
649.63	26221.02
649.78	26434.01
649.92	26263.15
650.07	26785.09
650.21	26555.72
650.36	26693.81
650.51	26590.83
650.65	26604.87
650.80	26361.45
650.94	26642.32
651.09	26607.21
651.23	26513.59
651.38	26410.60
651.52	26263.15
651.67	26895.10
651.81	26120.38
651.96	26150.81
652.10	26228.04
652.25	26485.50
652.39	26377.84
652.54	26321.66
652.68	26192.94
652.83	26178.89
652.97	26181.23
653.12	26536.99
653.26	26260.81
653.41	26118.04
653.55	25731.85
653.70	26008.03
653.84	26403.58
653.99	26188.25
654.13	26125.06
654.27	26038.46
654.42	26005.69
654.56	26005.69
654.71	26169.53
654.85	26403.58
655.00	26050.16
655.14	26190.59
655.29	26036.12
655.43	26302.94
655.57	25549.29
655.72	25701.42
655.86	25844.20
656.01	26251.45
656.15	25954.20
656.30	25663.97
656.44	25652.27
656.58	26036.12
656.73	25872.28
656.87	25888.67
657.01	25933.14
657.16	25572.69
657.30	25909.73
657.45	25741.21
657.59	25392.47
657.73	25694.40
657.88	25891.01
658.02	25708.44
658.16	25336.30
658.31	25362.04
658.45	25469.71
658.60	25530.56
658.74	25020.33
658.88	25050.75
659.03	25247.36
659.17	25305.87
659.31	25380.77
659.46	25366.73
659.60	25256.72
659.74	25479.07
659.89	25305.87
660.03	25048.41
660.17	25048.41
660.32	25153.74
660.46	25233.32
660.60	25109.27
660.74	24821.38
660.89	25043.73
661.03	24840.11
661.17	25195.87
661.32	24994.58
661.46	25074.16
661.60	24907.98
661.74	25043.73
661.89	24805.00
662.03	24807.34
662.17	24842.45
662.31	24697.33
662.46	25088.20
662.60	24996.92
662.74	24697.33
662.88	24673.93
663.03	24533.50
663.17	24285.40
663.31	24074.75
663.45	24629.46
663.60	24205.82
663.74	24439.87
663.88	24575.62
664.02	24552.22
664.17	24774.57
664.31	24269.01
664.45	24563.92
664.59	24500.73
664.73	24584.99
664.88	24081.77
665.02	23882.83
665.16	23850.06
665.30	24058.37
665.44	24166.03
665.59	23957.72
665.73	23637.07
665.87	23522.38
666.01	24121.56
666.15	23442.81
666.29	24119.22
666.44	24004.53
666.58	23646.43
666.72	24184.76
666.86	23700.26
667.00	24049.00
667.14	23623.03
667.28	23400.68
667.43	23573.88
667.57	23421.74
667.71	23496.64
667.85	23484.94
667.99	23276.63
668.13	23487.28
668.27	23690.90
668.41	23606.64
668.56	23274.29
668.70	23583.24
668.84	23681.54
668.98	23468.55
669.12	23391.31
669.26	23246.20
669.40	23147.90
669.54	23070.66
669.68	23190.03
669.82	23124.49
669.96	23014.49
670.10	22836.61
670.25	22806.18
670.39	22899.80
670.53	22712.56
670.67	22597.87
670.81	22991.08
670.95	22953.63
671.09	22775.75
671.23	22604.89
671.37	22789.80
671.51	22831.93
671.65	22869.37
671.79	22642.34
671.93	22288.92
672.07	22757.03
672.21	22214.02
672.35	22181.26
672.49	21743.58
672.63	21951.88
672.77	22305.31
672.91	21963.59
673.05	21907.41
673.19	22300.62
673.33	22001.04
673.47	21893.37
673.61	21909.75
673.75	22171.89
673.89	22235.09
674.03	21809.11
674.17	21846.56
674.31	21947.20
674.45	21745.92
674.59	21680.38
674.73	21916.78
674.87	21708.47
675.01	21549.31
675.15	21834.86
675.29	21502.50
675.43	21315.26
675.56	21310.58
675.70	21216.96
675.84	21378.45
675.98	20762.89
676.12	21530.59
676.26	21455.69
676.40	21359.73
676.54	21090.57
676.68	21319.94
676.82	20753.53
676.96	20730.12
677.10	20697.36
677.23	20875.24
677.37	20720.76
677.51	20563.95
677.65	20182.44
677.79	20507.77
677.93	20493.73
678.07	20463.30
678.21	20402.45
678.34	20482.03
678.48	20360.32
678.62	19978.81
678.76	19967.11
678.90	20182.44
679.04	20247.97
679.18	20159.03
679.31	19768.16
679.45	19807.95
679.59	19580.92
679.73	19393.68
679.87	19405.38
680.00	19372.61
680.14	19463.90
680.28	19283.67
680.42	19398.36
680.56	19566.88
680.70	19288.35
680.83	19449.85
680.97	19447.51
681.11	19452.19
681.25	19183.03
681.39	19126.86
681.52	18862.38
681.66	19145.58
681.80	18853.02
681.94	18965.36
682.07	18836.63
682.21	18581.51
682.35	18375.55
682.49	18834.29
682.62	18382.57
682.76	18691.52
682.90	18410.65
683.04	18511.30
683.17	18405.97
683.31	18530.02
683.45	18438.74
683.59	18237.45
683.72	18104.04
683.86	17869.99
684.00	18185.96
684.13	18054.89
684.27	18022.12
684.41	17972.97
684.55	17715.51
684.68	17715.51
684.82	17481.46
684.96	17516.57
685.09	17514.23
685.23	17532.95
685.37	17266.13
685.50	17493.16
685.64	17521.25
685.78	17418.27
685.91	17628.92
686.05	17172.51
686.19	17221.66
686.32	17254.43
686.46	16933.78
686.60	17268.47
686.73	17092.93
686.87	16964.20
687.01	16769.94
687.14	16540.57
687.28	16468.01
687.42	16599.08
687.55	16418.86
687.69	16629.51
687.82	16358.00
687.96	16498.44
688.10	16257.36
688.23	16463.33
688.37	16273.74
688.50	16439.92
688.64	16341.62
688.78	16196.51
688.91	15953.09
689.05	16329.92
689.18	15847.77
689.32	15517.75
689.46	15978.84
689.59	15583.29
689.73	15826.70
689.86	15623.08
690.00	15683.93
690.13	15702.65
690.27	15571.58
690.41	15648.82
690.54	15524.77
690.68	15482.64
690.81	15456.90
690.95	15295.40
691.08	15461.58
691.22	15489.67
691.35	15311.78
691.49	15157.31
691.62	15250.93
691.76	14998.15
691.89	14923.26
692.03	15049.64
692.16	14600.26
692.30	14602.60
692.43	14560.47
692.57	14572.18
692.70	14731.33
692.84	14420.04
692.97	14396.64
693.11	14537.07
693.24	14272.59
693.38	14417.70
693.51	14235.14
693.65	14462.17
693.78	14153.22
693.92	14171.94
694.05	14043.21
694.19	14139.18
694.32	13694.47
694.45	13905.12
694.59	13888.74
694.72	13790.44
694.86	13790.44
694.99	13699.16
695.13	13642.98
695.26	13570.43
695.39	13458.08
695.53	13544.68
695.66	13296.58
695.80	13350.42
695.93	13474.46
696.07	13167.85
696.20	13483.83
696.33	13137.43
696.47	13172.54
696.60	13163.17
696.73	13102.32
696.87	13191.26
697.00	12901.03
697.14	12627.19
697.27	12772.30
697.40	12505.48
697.54	12652.94
697.67	12599.10
697.80	12425.90
697.94	12273.77
698.07	12325.26
698.21	12351.01
698.34	12320.58
698.47	12388.46
698.61	12458.67
698.74	12318.24
698.87	12194.19
699.01	12140.36
699.14	12074.82
699.27	11906.31
699.40	12177.81
699.54	11988.22
699.67	12086.53
699.80	11871.20
699.94	12056.10
700.07	11889.92
700.20	11520.12
700.34	11389.05
700.47	11569.27
700.60	11667.57
700.73	11426.50
700.87	11403.09
701.00	11452.24
701.13	11489.69
701.26	11283.72
701.40	11250.96
701.53	11510.75
701.66	11185.42
701.79	11152.65
701.93	11225.21
702.06	10925.62
702.19	10965.41
702.32	10951.37
702.46	10822.64
702.59	10586.24
702.72	10663.48
702.85	10696.25
702.99	10693.91
703.12	10546.45
703.25	10616.67
703.38	10644.76
703.51	10391.98
703.65	10511.35
703.78	10637.73
703.91	10434.11
704.04	10368.57
704.17	10361.55
704.31	10171.97
704.44	10415.38
704.57	10157.92
704.70	10139.20
704.83	10029.20
704.96	10143.88
705.10	9839.61
705.23	9865.36
>>>>>End Processed Spectral Data<<<<<
