SpectraSuite Data File
++++++++++++++++++++++++++++++++++++
Date: Fri Oct 18 13:58:14 GMT-05:00 2013
User: bianchi
Dark Spectrum Present: No
Reference Spectrum Present: No
Number of Sampled Component Spectra: 1
Spectrometers: USB2+H05261
Integration Time (usec): 50000 (USB2+H05261)
Spectra Averaged: 1 (USB2+H05261)
Boxcar Smoothing: 0 (USB2+H05261)
Correct for Electrical Dark: No (USB2+H05261)
Strobe/Lamp Enabled: No (USB2+H05261)
Correct for Detector Non-linearity: No (USB2+H05261)
Correct for Stray Light: No (USB2+H05261)
Number of Pixels in Processed Spectrum: 2048
>>>>>Begin Processed Spectral Data<<<<<
365.73	0.00
365.92	0.00
366.12	0.00
366.32	0.00
366.52	0.00
366.72	0.00
366.91	0.00
367.11	0.00
367.31	0.00
367.51	0.00
367.70	0.00
367.90	0.00
368.10	0.00
368.30	0.00
368.49	0.00
368.69	0.00
368.89	0.00
369.09	0.00
369.28	0.00
369.48	0.00
369.68	0.00
369.87	0.00
370.07	0.00
370.27	0.00
370.47	0.00
370.66	18.72
370.86	156.82
371.06	95.96
371.25	196.60
371.45	138.09
371.65	161.50
371.84	184.90
372.04	128.73
372.24	177.88
372.44	156.82
372.63	147.45
372.83	217.67
373.03	154.48
373.22	156.82
373.42	243.42
373.62	175.54
373.81	243.42
374.01	231.71
374.21	231.71
374.40	262.14
374.60	259.80
374.79	259.80
374.99	234.05
375.19	283.20
375.38	259.80
375.58	234.05
375.78	273.84
375.97	243.42
376.17	280.86
376.37	243.42
376.56	161.50
376.76	227.03
376.95	182.56
377.15	297.25
377.35	241.08
377.54	280.86
377.74	259.80
377.93	259.80
378.13	201.29
378.33	248.10
378.52	313.63
378.72	250.44
378.91	252.78
379.11	215.33
379.31	332.36
379.50	292.57
379.70	360.44
379.89	269.16
380.09	301.93
380.28	294.91
380.48	299.59
380.68	306.61
380.87	315.97
381.07	283.20
381.26	369.80
381.46	294.91
381.65	252.78
381.85	334.70
382.04	315.97
382.24	301.93
382.43	334.70
382.63	318.31
382.83	355.76
383.02	294.91
383.22	344.06
383.41	383.85
383.61	409.59
383.80	360.44
384.00	376.83
384.19	414.27
384.39	330.02
384.58	276.18
384.78	348.74
384.97	301.93
385.17	367.46
385.36	341.72
385.56	390.87
385.75	339.38
385.95	418.96
386.14	404.91
386.34	344.06
386.53	428.32
386.72	397.89
386.92	414.27
387.11	367.46
387.31	433.00
387.50	447.04
387.70	437.68
387.89	451.72
388.09	423.64
388.28	409.59
388.48	395.55
388.67	477.47
388.86	454.06
389.06	386.19
389.25	454.06
389.45	507.90
389.64	489.17
389.84	519.60
390.03	531.30
390.22	388.53
390.42	468.11
390.61	454.06
390.81	477.47
391.00	484.49
391.19	484.49
391.39	484.49
391.58	519.60
391.78	554.71
391.97	498.53
392.16	587.47
392.36	557.05
392.55	512.58
392.75	507.90
392.94	524.28
393.13	468.11
393.33	554.71
393.52	477.47
393.71	531.30
393.91	552.37
394.10	521.94
394.29	613.22
394.49	613.22
394.68	526.62
394.88	550.03
395.07	585.13
395.26	615.56
395.46	566.41
395.65	648.33
395.84	641.31
396.04	622.58
396.23	620.24
396.42	688.12
396.62	603.86
396.81	594.50
397.00	634.29
397.19	594.50
397.39	748.97
397.58	697.48
397.77	674.07
397.97	770.04
398.16	720.88
398.35	681.10
398.55	788.76
398.74	650.67
398.93	809.83
399.12	657.69
399.32	681.10
399.51	627.26
399.70	697.48
399.90	662.37
400.09	683.44
400.28	713.86
400.47	765.36
400.67	779.40
400.86	648.33
401.05	739.61
401.24	788.76
401.44	863.66
401.63	840.25
401.82	786.42
402.01	809.83
402.21	819.19
402.40	830.89
402.59	767.70
402.78	741.95
402.97	823.87
403.17	814.51
403.36	816.85
403.55	835.57
403.74	887.06
403.93	952.60
404.13	840.25
404.32	992.39
404.51	889.40
404.70	938.55
404.89	884.72
405.09	997.07
405.28	884.72
405.47	875.36
405.66	940.90
405.85	968.98
406.05	926.85
406.24	915.15
406.43	1046.22
406.62	952.60
406.81	983.02
407.00	1029.84
407.20	910.47
407.39	947.92
407.58	1020.47
407.77	1071.97
407.96	1074.31
408.15	973.66
408.34	1020.47
408.54	1132.82
408.73	1060.26
408.92	1116.44
409.11	1123.46
409.30	1121.12
409.49	1165.59
409.68	1165.59
409.87	1093.03
410.07	1238.14
410.26	1146.86
410.45	1125.80
410.64	1163.25
410.83	1184.31
411.02	1221.76
411.21	1226.44
411.40	1203.04
411.59	1254.53
411.78	1212.40
411.98	1296.66
412.17	1242.82
412.36	1324.74
412.55	1282.61
412.74	1373.89
412.93	1406.66
413.12	1376.24
413.31	1409.00
413.50	1383.26
413.69	1439.43
413.88	1446.45
414.07	1488.58
414.26	1394.96
414.45	1397.30
414.64	1411.34
414.83	1427.73
415.02	1460.49
415.22	1500.28
415.41	1591.56
415.60	1523.69
415.79	1394.96
415.98	1563.48
416.17	1575.18
416.36	1537.73
416.55	1661.78
416.74	1530.71
416.93	1640.72
417.12	1661.78
417.31	1629.01
417.50	1666.46
417.69	1678.16
417.88	1757.74
418.07	1708.59
418.26	1629.01
418.45	1757.74
418.64	1799.87
418.83	1792.85
419.02	1797.53
419.21	1790.51
419.39	1827.96
419.58	1717.95
419.77	1767.10
419.96	1881.79
420.15	1837.32
420.34	1844.34
420.53	1919.24
420.72	1902.86
420.91	1893.49
421.10	1884.13
421.29	2010.52
421.48	1776.47
421.67	1966.05
421.86	1947.33
422.05	2019.88
422.24	1856.04
422.43	1944.99
422.61	2043.29
422.80	2003.50
422.99	2026.90
423.18	2080.74
423.37	1944.99
423.56	2104.14
423.75	2022.22
423.94	2017.54
424.13	1818.60
424.32	1926.26
424.50	2005.84
424.69	2029.24
424.88	1968.39
425.07	2008.18
425.26	2001.16
425.45	1998.82
425.64	2012.86
425.83	2052.65
426.01	2052.65
426.20	2078.40
426.39	2064.35
426.58	2038.61
426.77	2010.52
426.96	1973.07
427.15	2094.78
427.33	2078.40
427.52	2059.67
427.71	2078.40
427.90	2148.61
428.09	2200.10
428.28	2085.42
428.46	2122.87
428.65	2169.68
428.84	2296.07
429.03	2314.79
429.22	2141.59
429.40	2193.08
429.59	2118.18
429.78	2239.89
429.97	2193.08
430.16	2221.17
430.34	2244.57
430.53	2359.26
430.72	2349.90
430.91	2303.09
431.10	2331.17
431.28	2356.92
431.47	2260.96
431.66	2352.24
431.85	2246.91
432.03	2392.03
432.22	2471.61
432.41	2368.62
432.60	2368.62
432.79	2471.61
432.97	2487.99
433.16	2462.24
433.35	2490.33
433.54	2420.11
433.72	2555.86
433.91	2541.82
434.10	2548.84
434.28	2569.91
434.47	2483.31
434.66	2469.27
434.85	2523.10
435.03	2576.93
435.22	2593.31
435.41	2562.89
435.59	2555.86
435.78	2569.91
435.97	2630.76
436.16	2551.18
436.34	2630.76
436.53	2663.53
436.72	2733.75
436.90	2670.55
437.09	2920.99
437.28	2616.72
437.46	2658.85
437.65	2794.60
437.84	2785.24
438.02	2710.34
438.21	2813.32
438.40	2686.94
438.58	2871.84
438.77	2834.39
438.96	2986.52
439.14	2944.39
439.33	2925.67
439.52	2944.39
439.70	2899.92
439.89	3016.95
440.08	3012.27
440.26	3033.33
440.45	2979.50
440.63	3155.04
440.82	3236.96
441.01	3042.70
441.19	3045.04
441.38	3236.96
441.57	3213.56
441.75	3131.64
441.94	3218.24
442.12	3346.97
442.31	3382.07
442.50	3311.86
442.68	3222.92
442.87	3311.86
443.05	3302.50
443.24	3396.12
443.43	3276.75
443.61	3396.12
443.80	3412.50
443.98	3215.90
444.17	3178.45
444.35	3356.33
444.54	3400.80
444.73	3503.78
444.91	3435.91
445.10	3545.91
445.28	3543.57
445.47	3384.41
445.65	3361.01
445.84	3447.61
446.02	3506.12
446.21	3468.67
446.39	3456.97
446.58	3445.27
446.77	3524.85
446.95	3438.25
447.14	3403.14
447.32	3414.84
447.51	3555.27
447.69	3541.23
447.88	3475.70
448.06	3630.17
448.25	3424.20
448.43	3616.13
448.62	3510.80
448.80	3508.46
448.99	3445.27
449.17	3534.21
449.36	3609.11
449.54	3641.87
449.73	3616.13
449.91	3714.43
450.10	3691.02
450.28	3705.07
450.46	3637.19
450.65	3763.58
450.83	3810.39
451.02	3712.09
451.20	3826.78
451.39	3712.09
451.57	3833.80
451.76	3658.26
451.94	3831.46
452.13	3873.59
452.31	3761.24
452.49	3815.07
452.68	3808.05
452.86	3896.99
453.05	3822.09
453.23	4044.45
453.42	3772.94
453.60	3922.74
453.78	3894.65
453.97	3918.06
454.15	4042.11
454.34	3969.55
454.52	3918.06
454.70	4039.76
454.89	4093.60
455.07	4011.68
455.26	4098.28
455.44	4091.26
455.62	4154.45
455.81	4072.53
455.99	4135.73
456.17	4051.47
456.36	4095.94
456.54	4348.72
456.73	4290.20
456.91	4273.82
457.09	4219.99
457.28	4329.99
457.46	4257.43
457.64	4334.67
457.83	4264.46
458.01	4112.32
458.19	4475.10
458.38	4280.84
458.56	4390.84
458.74	4372.12
458.93	4374.46
459.11	4582.77
459.29	4353.40
459.48	4580.43
459.66	4472.76
459.84	4545.32
460.03	4482.13
460.21	4657.67
460.39	4423.61
460.57	4372.12
460.76	4444.68
460.94	4624.90
461.12	4564.04
461.31	4542.98
461.49	4545.32
461.67	4606.17
461.85	4669.37
462.04	4627.24
462.22	4863.63
462.40	4702.14
462.59	4734.90
462.77	4706.82
462.95	4723.20
463.13	4732.56
463.32	4683.41
463.50	4688.09
463.68	4856.61
463.86	4847.25
464.05	4844.91
464.23	4858.95
464.41	4865.97
464.59	4873.00
464.78	4924.49
464.96	4894.06
465.14	4959.60
465.32	4877.68
465.50	4983.00
465.69	4961.94
465.87	5018.11
466.05	4933.85
466.23	4952.57
466.41	5107.05
466.60	5261.52
466.78	5055.56
466.96	4889.38
467.14	5057.90
467.32	5167.90
467.51	5053.22
467.69	4947.89
467.87	5170.24
468.05	5144.50
468.23	5004.07
468.41	5373.87
468.60	5401.96
468.78	5259.18
468.96	5135.14
469.14	5284.93
469.32	5289.61
469.50	5177.26
469.69	5268.55
469.87	5352.81
470.05	5291.95
470.23	5448.77
470.41	5467.49
470.59	5357.49
470.77	5444.09
470.95	5432.38
471.14	5458.13
471.32	5502.60
471.50	5612.60
471.68	5547.07
471.86	5584.52
472.04	5687.50
472.22	5841.98
472.40	5467.49
472.58	5678.14
472.77	5734.31
472.95	5664.10
473.13	5942.62
473.31	5675.80
473.49	5781.12
473.67	5851.34
473.85	5994.11
474.03	6127.52
474.21	6017.52
474.39	6085.39
474.57	6066.67
474.75	6033.90
474.93	6141.57
475.12	6024.54
475.30	6181.35
475.48	6274.98
475.66	5968.37
475.84	5879.43
476.02	6333.49
476.20	6228.17
476.38	6408.39
476.56	6452.86
476.74	6497.33
476.92	6431.79
477.10	6647.12
477.28	6569.88
477.46	6614.35
477.64	6780.53
477.82	6780.53
478.00	7012.24
478.18	6864.79
478.36	6745.42
478.54	7054.37
478.72	6958.41
478.90	7218.21
479.08	7136.29
479.26	7077.78
479.44	7194.81
479.62	7302.47
479.80	7368.01
479.98	7365.67
480.16	7456.95
480.34	7384.39
480.52	7712.07
480.70	7641.85
480.88	7599.72
481.06	7698.02
481.24	7892.29
481.41	7566.95
481.59	7929.74
481.77	7932.08
481.95	8035.06
482.13	8135.70
482.31	8058.46
482.49	8212.94
482.67	8308.90
482.85	8292.52
483.03	8362.73
483.21	8489.12
483.39	8498.49
483.57	8449.33
483.74	8573.38
483.92	8681.05
484.10	8638.92
484.28	9034.47
484.46	9100.00
484.64	9123.41
484.82	8870.63
485.00	9032.13
485.18	9158.52
485.35	9320.01
485.53	9352.78
485.71	9298.95
485.89	9558.75
486.07	9472.15
486.25	9638.33
486.43	9624.28
486.61	9731.95
486.78	9685.14
486.96	9973.02
487.14	10129.84
487.32	9996.43
487.50	10368.57
487.68	10111.11
487.85	10434.11
488.03	10562.84
488.21	10560.50
488.39	10492.62
488.57	10604.97
488.75	10682.20
488.92	10752.42
489.10	10799.23
489.28	10979.45
489.46	10970.09
489.64	11131.59
489.81	11337.56
489.99	11286.06
490.17	11417.13
490.35	11473.31
490.53	11473.31
490.70	11410.11
490.88	11716.72
491.06	11796.30
491.24	11749.49
491.41	11669.91
491.59	12023.33
491.77	11850.13
491.95	12170.79
492.13	12140.36
492.30	12255.04
492.48	12243.34
492.66	12114.61
492.84	12318.24
493.01	12463.35
493.19	12571.02
493.37	12840.18
493.54	12678.68
493.72	12966.57
493.90	12781.67
494.08	12950.18
494.25	13102.32
494.43	13289.56
494.61	13549.36
494.79	13448.72
494.96	13261.48
495.14	13231.05
495.32	13488.51
495.49	13460.42
495.67	13551.70
495.85	13886.40
496.02	13734.26
496.20	13916.83
496.38	13961.30
496.55	13823.20
496.73	14190.67
496.91	13942.57
497.09	14127.47
497.26	14303.01
497.44	14190.67
497.62	14274.93
497.79	14494.94
497.97	14508.98
498.14	14483.24
498.32	14878.79
498.50	14831.97
498.67	14764.10
498.85	14698.56
499.03	14906.87
499.20	14892.83
499.38	14960.70
499.56	15379.66
499.73	15379.66
499.91	15267.31
500.08	15316.47
500.26	15360.94
500.44	15620.74
500.61	15545.84
500.79	15620.74
500.97	15782.23
501.14	15747.12
501.32	15765.85
501.49	15632.44
501.67	15683.93
501.84	15721.38
502.02	16009.26
502.20	16074.80
502.37	16142.67
502.55	16084.16
502.72	16269.06
502.90	16184.80
503.07	15899.26
503.25	16313.53
503.43	16084.16
503.60	16367.37
503.78	16512.48
503.95	16390.77
504.13	16519.50
504.30	16622.48
504.48	16372.05
504.65	16540.57
504.83	16891.65
505.01	16879.94
505.18	16659.93
505.36	17125.70
505.53	16870.58
505.71	17022.72
505.88	17050.80
506.06	17071.87
506.23	16964.20
506.41	17247.41
506.58	17376.14
506.76	17240.39
506.93	17460.40
507.11	17289.54
507.28	17266.13
507.46	17582.10
507.63	17619.55
507.81	17827.86
507.98	17476.78
508.16	17818.50
508.33	17607.85
508.50	17614.87
508.68	17788.07
508.85	18003.40
509.03	18192.98
509.20	17937.87
509.38	18291.29
509.55	18178.94
509.73	18412.99
509.90	18216.39
510.08	18242.14
510.25	18345.12
510.42	18335.76
510.60	18588.53
510.77	18693.86
510.95	18398.95
511.12	18862.38
511.30	18574.49
511.47	18911.53
511.64	18726.63
511.82	19178.35
511.99	18782.80
512.17	18944.30
512.34	19126.86
512.51	19154.94
512.69	19168.99
512.86	19241.54
513.04	19440.49
513.21	19332.82
513.38	19117.50
513.56	19098.77
513.73	19569.22
513.90	19101.11
514.08	19536.45
514.25	19611.35
514.43	19812.63
514.60	19974.13
514.77	19791.57
514.95	20208.19
515.12	19466.24
515.29	19829.02
515.47	19852.42
515.64	20091.16
515.81	19648.80
515.99	19969.45
516.16	20350.96
516.33	20095.84
516.51	20304.15
516.68	20383.73
516.85	20187.12
517.03	20383.73
517.20	20449.26
517.37	20233.93
517.54	20491.39
517.72	20540.54
517.89	20226.91
518.06	20201.16
518.24	20519.48
518.41	20540.54
518.58	20620.12
518.75	20987.58
518.93	20601.40
519.10	21060.14
519.27	20816.72
519.45	20650.55
519.62	20886.94
519.79	20669.27
519.96	20884.60
520.14	21057.80
520.31	20968.86
520.48	21198.23
520.65	20947.79
520.83	21434.63
521.00	21607.83
521.17	21305.90
521.34	21378.45
521.52	21561.02
521.69	21715.49
521.86	21757.62
522.03	21731.87
522.20	21743.58
522.38	21717.83
522.55	21488.46
522.72	22050.19
522.89	21862.94
523.07	22160.19
523.24	21799.75
523.41	22178.92
523.58	21514.20
523.75	22347.44
523.92	22221.05
524.10	22272.54
524.27	22148.49
524.44	22167.21
524.61	21954.22
524.78	22071.25
524.96	22515.95
525.13	22478.50
525.30	22548.72
525.47	22239.77
525.64	22515.95
525.81	22396.59
525.98	22855.33
526.16	22382.54
526.33	22469.14
526.50	22883.42
526.67	22590.85
526.84	23136.20
527.01	22752.35
527.18	23110.45
527.36	22651.70
527.53	23246.20
527.70	23503.66
527.87	23508.34
528.04	23061.30
528.21	22883.42
528.38	22965.34
528.55	23091.73
528.72	23056.62
528.89	23393.65
529.07	23047.26
529.24	23185.35
529.41	23396.00
529.58	23391.31
529.75	23218.11
529.92	23337.48
530.09	23335.14
530.26	23466.21
530.43	23742.39
530.60	23555.15
530.77	23337.48
530.94	23817.29
531.11	23618.35
531.28	23391.31
531.46	23611.32
531.63	23566.85
531.80	23814.95
531.97	23758.78
532.14	23971.77
532.31	24086.45
532.48	24130.92
532.65	24166.03
532.82	24173.05
532.99	24608.39
533.16	24212.84
533.33	24252.63
533.50	24423.49
533.67	24360.30
533.84	23922.62
534.01	24556.90
534.18	24261.99
534.35	24613.07
534.52	24313.48
534.69	24622.44
534.86	24575.62
535.03	24592.01
535.20	24706.70
535.37	24559.24
535.54	24477.32
535.71	24437.53
535.88	24753.51
536.05	24561.58
536.22	25010.96
536.38	24996.92
536.55	24659.88
536.72	24741.80
536.89	25216.93
537.06	24964.15
537.23	25010.96
537.40	24856.49
537.57	24964.15
537.74	25139.69
537.91	25429.92
538.08	25551.63
538.25	25170.12
538.42	25591.42
538.59	25109.27
538.75	25041.39
538.92	25359.70
539.09	25240.34
539.26	25034.37
539.43	25486.09
539.60	25158.42
539.77	25474.39
539.94	25528.22
540.11	25109.27
540.28	25132.67
540.44	25530.56
540.61	25448.64
540.78	25422.90
540.95	25949.52
541.12	25200.55
541.29	25788.02
541.46	25504.82
541.62	25502.48
541.79	25558.65
541.96	25123.31
542.13	25776.32
542.30	25715.47
542.47	26408.26
542.63	26068.89
542.80	25832.49
542.97	26305.28
543.14	26302.94
543.31	26384.86
543.48	26380.18
543.64	26160.17
543.81	26368.48
543.98	26089.95
544.15	26525.29
544.32	26326.35
544.48	26504.23
544.65	26118.04
544.82	26380.18
544.99	26153.15
545.16	26544.02
545.32	26586.15
545.49	26679.77
545.66	26548.70
545.83	27019.14
546.00	26857.65
546.16	26843.60
546.33	26590.83
546.50	26181.23
546.67	26450.39
546.83	26459.76
547.00	26803.82
547.17	26967.65
547.34	27208.73
547.50	27051.91
547.67	26960.63
547.84	26714.87
548.00	26733.60
548.17	27101.06
548.34	26871.69
548.51	27161.92
548.67	27337.46
548.84	27002.76
549.01	27000.42
549.18	26934.88
549.34	27096.38
549.51	27040.21
549.68	27000.42
549.84	27243.84
550.01	26918.50
550.18	27316.39
550.34	27145.53
550.51	27297.67
550.68	27733.01
550.84	27168.94
551.01	27639.39
551.18	27044.89
551.34	27229.79
551.51	27714.28
551.68	27421.72
551.84	27510.66
552.01	27524.70
552.18	27676.83
552.34	27590.24
552.51	27702.58
552.68	27882.80
552.84	27630.02
553.01	28046.64
553.18	27606.62
553.34	27358.52
553.51	27395.97
553.67	27393.63
553.84	28259.63
554.01	27850.03
554.17	27660.45
554.34	27857.06
554.51	27447.46
554.67	27768.12
554.84	28290.06
555.00	28217.50
555.17	28140.26
555.33	28105.15
555.50	27725.99
555.67	28032.60
555.83	27915.57
556.00	27828.97
556.16	28004.51
556.33	28283.03
556.50	28198.77
556.66	28566.24
556.83	28294.74
556.99	29064.77
557.16	28650.50
557.32	28657.52
557.49	28383.68
557.65	28285.37
557.82	28374.31
557.98	28109.83
558.15	28402.40
558.32	28451.55
558.48	28371.97
558.65	28570.92
558.81	28325.16
558.98	28690.29
559.14	28428.15
559.31	28507.72
559.47	28531.13
559.64	28662.20
559.80	28519.43
559.97	28823.70
560.13	28641.14
560.30	28788.59
560.46	28739.44
560.63	28737.10
560.79	28631.77
560.96	28599.01
561.12	28573.26
561.29	28622.41
561.45	28573.26
561.61	28589.64
561.78	28929.02
561.94	28905.62
562.11	29125.63
562.27	28912.64
562.44	28659.86
562.60	28683.27
562.77	28765.18
562.93	28765.18
563.10	28844.76
563.26	28407.08
563.42	28732.42
563.59	29383.09
563.75	29165.42
563.92	29567.99
564.08	28701.99
564.24	28971.15
564.41	28842.42
564.57	28996.90
564.74	29053.07
564.90	29401.81
565.07	29226.27
565.23	28765.18
565.39	28706.67
565.56	29373.72
565.72	29113.92
565.88	29209.89
566.05	28837.74
566.21	29048.39
566.38	29340.96
566.54	29364.36
566.70	29294.14
566.87	29434.58
567.03	29149.03
567.19	29429.90
567.36	29284.78
567.52	29326.91
567.68	28821.36
567.85	29233.29
568.01	29500.11
568.17	29062.43
568.34	29284.78
568.50	29207.55
568.66	29369.04
568.83	29111.58
568.99	29244.99
569.15	29472.03
569.32	29383.09
569.48	29443.94
569.64	29610.12
569.81	29420.53
569.97	29184.14
570.13	29507.13
570.30	29137.33
570.46	29422.87
570.62	29233.29
570.78	29074.13
570.95	29273.08
571.11	29668.63
571.27	29252.02
571.43	29149.03
571.60	29436.92
571.76	29013.28
571.92	29392.45
572.09	29455.64
572.25	29539.90
572.41	29706.08
572.57	29467.34
572.74	29750.55
572.90	29432.24
573.06	29064.77
573.22	29687.36
573.38	29397.13
573.55	29486.07
573.71	29670.97
573.87	29649.91
574.03	29776.30
574.20	29575.01
574.36	29195.84
574.52	29502.45
574.68	29680.33
574.84	29567.99
575.01	29518.84
575.17	29715.44
575.33	29256.70
575.49	29612.46
575.65	29799.70
575.82	29523.52
575.98	29399.47
576.14	29591.39
576.30	29701.40
576.46	29661.61
576.62	29462.66
576.79	29790.34
576.95	29528.20
577.11	29905.02
577.27	29633.52
577.43	29340.96
577.59	29935.45
577.75	29460.32
577.92	29699.06
578.08	29710.76
578.24	29329.25
578.40	29563.31
578.56	29858.21
578.72	29596.07
578.88	30263.13
579.04	29750.55
579.21	29443.94
579.37	29944.81
579.53	29567.99
579.69	29558.63
579.85	29605.44
580.01	29731.83
580.17	29378.40
580.33	29570.33
580.49	29467.34
580.65	29926.09
580.82	29696.72
580.98	30139.08
581.14	29745.87
581.30	30169.51
581.46	29469.69
581.62	29572.67
581.78	29371.38
581.94	29935.45
582.10	29598.41
582.26	29844.17
582.42	29979.92
582.58	29633.52
582.74	29949.50
582.90	30211.64
583.06	29982.26
583.22	30033.75
583.38	29263.72
583.54	29558.63
583.70	30096.95
583.86	29783.32
584.02	29563.31
584.18	29750.55
584.34	29809.06
584.50	29991.62
584.66	29986.94
584.82	29799.70
584.98	29888.64
585.14	29670.97
585.30	29596.07
585.46	29766.93
585.62	29200.52
585.78	29823.11
585.94	29376.06
586.10	29970.56
586.26	29766.93
586.42	30045.46
586.58	29923.75
586.74	29792.68
586.90	29448.62
587.06	29844.17
587.22	30118.01
587.38	29652.25
587.54	29886.30
587.70	30005.67
587.86	30192.91
588.02	30136.74
588.18	29977.58
588.34	30022.05
588.49	29900.34
588.65	29935.45
588.81	30010.35
588.97	30024.39
589.13	29556.28
589.29	29668.63
589.45	30246.74
589.61	29818.42
589.77	30188.23
589.93	30073.54
590.08	30221.00
590.24	30258.45
590.40	30040.78
590.56	30632.93
590.72	29596.07
590.88	30176.53
591.04	30038.44
591.20	30724.21
591.35	30583.78
591.51	30618.89
591.67	30476.12
591.83	30462.07
591.99	30600.16
592.15	30499.52
592.31	30501.86
592.46	29982.26
592.62	29977.58
592.78	30059.50
592.94	30316.96
593.10	30197.59
593.26	30408.24
593.41	30352.07
593.57	29956.52
593.73	30253.76
593.89	30237.38
594.05	30146.10
594.20	30398.88
594.36	30333.34
594.52	30040.78
594.68	29930.77
594.84	30338.02
594.99	30162.48
595.15	30183.55
595.31	30370.79
595.47	29898.00
595.62	30405.90
595.78	30216.32
595.94	30347.39
596.10	30408.24
596.25	30235.04
596.41	30265.47
596.57	30113.33
596.73	30059.50
596.88	30036.09
597.04	30342.70
597.20	30698.47
597.36	30452.71
597.51	30426.96
597.67	30043.12
597.83	30445.69
597.99	30394.20
598.14	30321.64
598.30	30211.64
598.46	30099.29
598.61	30052.48
598.77	30682.08
598.93	30312.28
599.09	30143.76
599.24	30988.69
599.40	30845.92
599.56	30904.43
599.71	30246.74
599.87	30176.53
600.03	30323.98
600.18	30064.18
600.34	30265.47
600.50	30094.61
600.65	30483.14
600.81	30569.74
600.97	30602.50
601.12	30897.41
601.28	30560.37
601.44	30312.28
601.59	30569.74
601.75	30579.10
601.91	30749.96
602.06	30375.47
602.22	30284.19
602.37	30490.16
602.53	30511.22
602.69	30384.83
602.84	30295.89
603.00	30553.35
603.16	30361.43
603.31	30462.07
603.47	30792.09
603.62	30377.81
603.78	30450.37
603.94	30008.01
604.09	30300.58
604.25	30476.12
604.40	30270.15
604.56	30370.79
604.71	30799.11
604.87	30389.52
605.03	30101.63
605.18	30499.52
605.34	30333.34
605.49	30026.73
605.65	30218.66
605.80	29888.64
605.96	30338.02
606.12	30075.88
606.27	30586.12
606.43	30433.99
606.58	30689.10
606.74	30323.98
606.89	30340.36
607.05	30377.81
607.20	30604.84
607.36	30087.59
607.51	30412.92
607.67	30089.93
607.82	30291.21
607.98	30197.59
608.13	30558.03
608.29	30155.46
608.44	30122.69
608.60	30352.07
608.75	30499.52
608.91	30410.58
609.06	30136.74
609.22	30377.81
609.37	29914.39
609.53	30010.35
609.68	30384.83
609.84	30146.10
609.99	30263.13
610.15	30232.70
610.30	29954.18
610.46	29825.45
610.61	30071.20
610.76	30237.38
610.92	30380.15
611.07	29916.73
611.23	29862.90
611.38	29890.98
611.54	29977.58
611.69	30019.71
611.84	29895.66
612.00	30218.66
612.15	30099.29
612.31	30373.13
612.46	29970.56
612.62	30068.86
612.77	29909.71
612.92	30202.27
613.08	30052.48
613.23	30052.48
613.39	30136.74
613.54	29481.39
613.69	29450.96
613.85	29539.90
614.00	29638.20
614.15	29666.29
614.31	29890.98
614.46	29851.19
614.62	29858.21
614.77	29790.34
614.92	30150.78
615.08	29699.06
615.23	29736.51
615.38	29956.52
615.54	29663.95
615.69	29539.90
615.84	29689.70
616.00	29439.26
616.15	29717.78
616.30	29729.48
616.46	29844.17
616.61	29879.28
616.76	29914.39
616.92	30148.44
617.07	29830.13
617.22	29228.61
617.37	29287.12
617.53	29708.42
617.68	29032.00
617.83	29195.84
617.99	29558.63
618.14	29317.55
618.29	29579.69
618.45	29439.26
618.60	29544.58
618.75	29968.22
618.90	29371.38
619.06	29916.73
619.21	29448.62
619.36	29600.76
619.51	29270.74
619.67	29078.82
619.82	29043.71
619.97	29305.85
620.12	29291.80
620.28	29301.17
620.43	29207.55
620.58	29376.06
620.73	29256.70
620.89	29343.30
621.04	29186.48
621.19	29495.43
621.34	29319.89
621.49	29130.31
621.65	29502.45
621.80	29036.69
621.95	28980.51
622.10	28950.09
622.25	28741.78
622.41	28711.35
622.56	28910.30
622.71	29158.39
622.86	28966.47
623.01	28662.20
623.16	29163.08
623.32	28889.23
623.47	28999.24
623.62	28704.33
623.77	28947.75
623.92	28652.84
624.07	28638.80
624.23	29067.11
624.38	28807.31
624.53	28664.54
624.68	29022.64
624.83	29207.55
624.98	29460.32
625.13	28868.17
625.29	28811.99
625.44	29017.96
625.59	28694.97
625.74	28620.07
625.89	28711.35
626.04	28849.44
626.19	28561.56
626.34	28718.37
626.49	28811.99
626.65	28531.13
626.80	28374.31
626.95	28713.69
627.10	28582.62
627.25	28671.56
627.40	28393.04
627.55	28095.79
627.70	28538.15
627.85	28374.31
628.00	28100.47
628.15	28170.69
628.30	28175.37
628.45	27740.03
628.60	28229.20
628.76	28369.63
628.91	28510.07
629.06	28498.36
629.21	28395.38
629.36	28074.73
629.51	28116.86
629.66	28299.42
629.81	27821.95
629.96	28046.64
630.11	27901.53
630.26	27892.16
630.41	28018.55
630.56	27852.38
630.71	28393.04
630.86	28329.84
631.01	28467.94
631.16	27838.33
631.31	28442.19
631.46	27503.64
631.61	28098.13
631.76	27892.16
631.91	28175.37
632.06	27983.44
632.21	27660.45
632.36	27835.99
632.51	27730.67
632.66	27674.49
632.81	27955.36
632.96	27875.78
633.10	27810.25
633.25	27967.06
633.40	27868.76
633.55	27644.07
633.70	27520.02
633.85	27740.03
634.00	27470.87
634.15	27557.47
634.30	27414.69
634.45	27449.80
634.60	27538.74
634.75	27688.54
634.90	27510.66
635.05	27882.80
635.19	27435.76
635.34	27814.93
635.49	27407.67
635.64	27632.36
635.79	27676.83
635.94	27592.58
636.09	27644.07
636.24	27384.27
636.39	27545.76
636.53	27454.48
636.68	27407.67
636.83	27145.53
636.98	27498.95
637.13	27330.44
637.28	27166.60
637.43	27557.47
637.57	27300.01
637.72	27449.80
637.87	27211.07
638.02	27290.65
638.17	26958.29
638.32	27248.52
638.46	27068.30
638.61	26859.99
638.76	26780.41
638.91	26948.93
639.06	27044.89
639.20	26967.65
639.35	27117.45
639.50	26916.16
639.65	27288.31
639.80	27182.98
639.94	27309.37
640.09	27168.94
640.24	27138.51
640.39	26923.18
640.54	26742.96
640.68	26672.74
640.83	26906.80
640.98	26895.10
641.13	26331.03
641.27	27000.42
641.42	26757.00
641.57	26527.63
641.72	27344.48
641.86	26747.64
642.01	26506.57
642.16	26639.98
642.31	26375.50
642.45	26965.31
642.60	26487.84
642.75	26927.86
642.90	26572.10
643.04	26326.35
643.19	26466.78
643.34	26852.97
643.48	26249.11
643.63	26579.12
643.78	26649.34
643.93	26464.44
644.07	26504.23
644.22	27068.30
644.37	26347.41
644.51	26331.03
644.66	26518.27
644.81	26373.16
644.95	26614.23
645.10	26647.00
645.25	26410.60
645.39	25954.20
645.54	26185.91
645.69	26342.73
645.83	26235.06
645.98	26288.90
646.13	26363.79
646.27	26581.46
646.42	26525.29
646.57	26361.45
646.71	26324.01
646.86	26256.13
647.00	26295.92
647.15	26078.25
647.30	26246.77
647.44	26267.83
647.59	26214.00
647.74	26073.57
647.88	25788.02
648.03	25979.95
648.17	26314.64
648.32	26522.95
648.47	26464.44
648.61	26199.96
648.76	26005.69
648.90	26164.85
649.05	26190.59
649.20	26178.89
649.34	26012.71
649.49	25610.14
649.63	25549.29
649.78	25511.84
649.92	25680.36
650.07	26225.70
650.21	25975.27
650.36	25593.76
650.51	25584.40
650.65	26178.89
650.80	25734.19
650.94	26019.74
651.09	25727.17
651.23	25624.18
651.38	25745.89
651.52	25872.28
651.67	25649.93
651.81	25647.59
651.96	25825.47
652.10	25591.42
652.25	25462.69
652.39	25975.27
652.54	25638.23
652.68	25572.69
652.83	25968.24
652.97	26052.50
653.12	25479.07
653.26	25453.33
653.41	25605.46
653.55	25359.70
653.70	25603.12
653.84	25523.54
653.99	25083.52
654.13	25350.34
654.27	25317.57
654.42	24994.58
654.56	25614.82
654.71	25593.76
654.85	25504.82
655.00	25441.62
655.14	25511.84
655.29	25193.53
655.43	25436.94
655.57	25116.29
655.72	25221.61
655.86	25048.41
656.01	25453.33
656.15	25123.31
656.30	24999.26
656.44	24680.95
656.58	25184.16
656.73	25060.12
656.87	25177.14
657.01	24971.18
657.16	25380.77
657.30	25240.34
657.45	25305.87
657.59	25160.76
657.73	25039.05
657.88	24987.56
658.02	25125.65
658.16	24957.13
658.31	24950.11
658.45	24863.51
658.60	24854.15
658.74	24753.51
658.88	24809.68
659.03	24608.39
659.17	24744.14
659.31	24903.30
659.46	24755.85
659.60	25041.39
659.74	24898.62
659.89	24800.32
660.03	24875.21
660.17	24547.54
660.32	24535.84
660.46	24243.27
660.60	24231.57
660.74	24390.72
660.89	24603.71
661.03	24357.96
661.17	24194.12
661.32	24414.13
661.46	24622.44
661.60	24226.89
661.74	24325.19
661.89	24273.70
662.03	24304.12
662.17	24463.28
662.31	24215.18
662.46	24304.12
662.60	24109.86
662.74	24137.94
662.88	23786.86
663.03	23709.63
663.17	23838.36
663.31	23674.52
663.45	23644.09
663.60	24023.26
663.74	23580.90
663.88	23833.68
664.02	23667.50
664.17	23967.09
664.31	23772.82
664.45	23922.62
664.59	23833.68
664.73	24126.24
664.88	23828.99
665.02	23262.58
665.16	23274.29
665.30	23775.16
665.44	23524.72
665.59	23044.91
665.73	23094.07
665.87	22988.74
666.01	23412.38
666.15	23351.52
666.29	23396.00
666.44	22871.72
666.58	23051.94
666.72	23082.36
666.86	23335.14
667.00	23239.18
667.14	23220.45
667.28	23091.73
667.43	22970.02
667.57	22913.84
667.71	22829.59
667.85	22780.43
667.99	22801.50
668.13	22850.65
668.27	22852.99
668.41	22794.48
668.56	22817.88
668.70	22883.42
668.84	23026.19
668.98	22574.47
669.12	22625.96
669.26	22588.51
669.40	22773.41
669.54	22515.95
669.68	22434.03
669.82	22230.41
669.96	22031.46
670.10	22029.12
670.25	22218.71
670.39	22019.76
670.53	22199.98
670.67	22169.55
670.81	22270.20
670.95	22101.68
671.09	22214.02
671.23	22185.94
671.37	21919.12
671.51	22122.74
671.65	22398.93
671.79	21628.89
671.93	21891.03
672.07	22162.53
672.21	21436.97
672.35	21713.15
672.49	21516.54
672.63	21813.79
672.77	21357.39
672.91	21563.36
673.05	21769.32
673.19	21633.57
673.33	21666.34
673.47	21383.13
673.61	21394.84
673.75	21436.97
673.89	21446.33
674.03	21558.67
674.17	21397.18
674.31	21153.76
674.45	21256.75
674.59	21226.32
674.73	21118.65
674.87	21226.32
675.01	20896.30
675.15	20861.19
675.29	21088.23
675.43	20936.09
675.56	20863.54
675.70	20966.52
675.84	20882.26
675.98	20297.13
676.12	21088.23
676.26	20936.09
676.40	20620.12
676.54	20924.39
676.68	20535.86
676.82	20056.05
676.96	20552.24
677.10	20460.96
677.23	19826.68
677.37	19950.73
677.51	20269.04
677.65	20243.29
677.79	19943.70
677.93	19784.55
678.07	19871.15
678.21	19789.23
678.34	19513.05
678.48	19665.18
678.62	19672.20
678.76	19454.53
678.90	19262.61
679.04	19440.49
679.18	19499.00
679.31	19030.90
679.45	19180.69
679.59	19218.14
679.73	19054.30
679.87	19002.81
680.00	19077.71
680.14	18815.57
680.28	18974.72
680.42	18998.13
680.56	18881.10
680.70	18822.59
680.83	18937.27
680.97	18864.72
681.11	18916.21
681.25	18490.23
681.39	18747.69
681.52	18590.88
681.66	18546.40
681.80	18200.01
681.94	18368.52
682.07	18068.94
682.21	18326.39
682.35	18139.15
682.49	18050.21
682.62	17914.46
682.76	17963.61
682.90	17968.29
683.04	18017.44
683.17	17912.12
683.31	17809.14
683.45	17970.63
683.59	17830.20
683.72	17788.07
683.86	17666.36
684.00	17804.46
684.13	17092.93
684.27	17610.19
684.41	17429.97
684.55	17118.68
684.68	17069.53
684.82	17352.73
684.96	16856.54
685.09	17022.72
685.23	16959.52
685.37	17121.02
685.50	17205.28
685.64	17198.26
685.78	16844.84
685.91	16908.03
686.05	16982.93
686.19	16781.64
686.32	16798.02
686.46	16496.10
686.60	16580.36
686.73	16423.54
686.87	16453.97
687.01	16526.52
687.14	16486.73
687.28	16215.23
687.42	16056.08
687.55	15962.45
687.69	15997.56
687.82	16016.29
687.96	16077.14
688.10	16105.23
688.23	16126.29
688.37	15892.24
688.50	15889.90
688.64	15702.65
688.78	16039.69
688.91	15470.94
689.05	15733.08
689.18	15758.83
689.32	15110.50
689.46	15035.60
689.59	15494.35
689.73	15080.07
689.86	15208.80
690.00	15206.46
690.13	15297.74
690.27	15243.91
690.41	15131.56
690.54	14949.00
690.68	15082.41
690.81	15108.16
690.95	15077.73
691.08	14986.45
691.22	14869.42
691.35	14806.23
691.49	14960.70
691.62	14733.67
691.76	14551.11
691.89	14551.11
692.03	14310.04
692.16	14274.93
692.30	14518.34
692.43	14176.62
692.57	14455.15
692.70	14090.02
692.84	14256.20
692.97	14005.77
693.11	14008.11
693.24	14111.09
693.38	14031.51
693.51	13919.17
693.65	13919.17
693.78	13867.67
693.92	13895.76
694.05	13650.00
694.19	13664.05
694.32	13806.82
694.45	13472.12
694.59	13273.18
694.72	13418.29
694.86	13345.73
694.99	13121.04
695.13	12980.61
695.26	13137.43
695.39	12996.99
695.53	13069.55
695.66	13247.43
695.80	13053.17
695.93	13074.23
696.07	13071.89
696.20	13029.76
696.33	12847.20
696.47	12634.21
696.60	12526.55
696.73	12669.32
696.87	12664.64
697.00	12512.50
697.14	12578.04
697.27	12491.44
697.40	12243.34
697.54	12322.92
697.67	12561.66
697.80	12397.82
697.94	12170.79
698.07	11889.92
698.21	12121.63
698.34	12346.33
698.47	12037.38
698.61	12077.16
698.74	12084.19
698.87	11873.54
699.01	11838.43
699.14	11786.94
699.27	11667.57
699.40	11786.94
699.54	11700.34
699.67	11583.31
699.80	11782.26
699.94	11410.11
700.07	11375.00
700.20	11449.90
700.34	11250.96
700.47	11091.80
700.60	11335.21
700.73	11265.00
700.87	11208.83
701.00	11063.71
701.13	11159.67
701.26	11073.07
701.40	10967.75
701.53	11033.29
701.66	11108.18
701.79	10942.00
701.93	10965.41
702.06	10857.75
702.19	10417.72
702.32	10286.65
702.46	10588.58
702.59	10396.66
702.72	10429.43
702.85	10160.27
702.99	10328.78
703.12	10396.66
703.25	10406.02
703.38	10160.27
703.51	10289.00
703.65	10363.89
703.78	10319.42
703.91	10115.80
704.04	10296.02
704.17	10221.12
704.31	10134.52
704.44	9898.13
704.57	9980.04
704.70	9769.40
704.83	9715.56
704.96	9736.63
705.10	9706.20
705.23	9355.12
>>>>>End Processed Spectral Data<<<<<
