SpectraSuite Data File
++++++++++++++++++++++++++++++++++++
Date: Fri Oct 18 13:58:14 GMT-05:00 2013
User: bianchi
Dark Spectrum Present: No
Reference Spectrum Present: No
Number of Sampled Component Spectra: 1
Spectrometers: USB2+H05261
Integration Time (usec): 50000 (USB2+H05261)
Spectra Averaged: 1 (USB2+H05261)
Boxcar Smoothing: 0 (USB2+H05261)
Correct for Electrical Dark: No (USB2+H05261)
Strobe/Lamp Enabled: No (USB2+H05261)
Correct for Detector Non-linearity: No (USB2+H05261)
Correct for Stray Light: No (USB2+H05261)
Number of Pixels in Processed Spectrum: 2048
>>>>>Begin Processed Spectral Data<<<<<
365.73	0.00
365.92	0.00
366.12	0.00
366.32	0.00
366.52	0.00
366.72	0.00
366.91	0.00
367.11	0.00
367.31	0.00
367.51	0.00
367.70	0.00
367.90	0.00
368.10	0.00
368.30	0.00
368.49	0.00
368.69	0.00
368.89	0.00
369.09	0.00
369.28	0.00
369.48	0.00
369.68	0.00
369.87	0.00
370.07	0.00
370.27	0.00
370.47	0.00
370.66	42.13
370.86	21.06
371.06	196.60
371.25	117.03
371.45	117.03
371.65	138.09
371.84	184.90
372.04	166.18
372.24	161.50
372.44	131.07
372.63	121.71
372.83	208.31
373.03	119.37
373.22	180.22
373.42	222.35
373.62	182.56
373.81	301.93
374.01	208.31
374.21	212.99
374.40	229.37
374.60	161.50
374.79	212.99
374.99	234.05
375.19	269.16
375.38	271.50
375.58	332.36
375.78	180.22
375.97	259.80
376.17	304.27
376.37	292.57
376.56	212.99
376.76	283.20
376.95	269.16
377.15	271.50
377.35	227.03
377.54	229.37
377.74	220.01
377.93	248.10
378.13	348.74
378.33	320.65
378.52	266.82
378.72	227.03
378.91	297.25
379.11	283.20
379.31	252.78
379.50	322.99
379.70	346.40
379.89	327.68
380.09	311.29
380.28	271.50
380.48	332.36
380.68	297.25
380.87	304.27
381.07	351.08
381.26	294.91
381.46	414.27
381.65	278.52
381.85	344.06
382.04	334.70
382.24	404.91
382.43	369.80
382.63	292.57
382.83	325.33
383.02	330.02
383.22	348.74
383.41	283.20
383.61	320.65
383.80	376.83
384.00	367.46
384.19	393.21
384.39	353.42
384.58	421.30
384.78	322.99
384.97	379.17
385.17	411.93
385.36	409.59
385.56	435.34
385.75	341.72
385.95	430.66
386.14	425.98
386.34	428.32
386.53	376.83
386.72	388.53
386.92	425.98
387.11	449.38
387.31	451.72
387.50	409.59
387.70	381.51
387.89	411.93
388.09	418.96
388.28	409.59
388.48	507.90
388.67	540.66
388.86	496.19
389.06	533.64
389.25	433.00
389.45	498.53
389.64	435.34
389.84	482.15
390.03	486.83
390.22	521.94
390.42	482.15
390.61	458.74
390.81	503.22
391.00	531.30
391.19	571.09
391.39	514.92
391.58	521.94
391.78	543.00
391.97	540.66
392.16	519.60
392.36	571.09
392.55	601.52
392.75	514.92
392.94	606.20
393.13	559.39
393.33	564.07
393.52	564.07
393.71	507.90
393.91	547.69
394.10	559.39
394.29	631.94
394.49	545.34
394.68	575.77
394.88	606.20
395.07	571.09
395.26	622.58
395.46	638.97
395.65	638.97
395.84	671.73
396.04	662.37
396.23	671.73
396.42	702.16
396.62	601.52
396.81	720.88
397.00	634.29
397.19	667.05
397.39	692.80
397.58	732.59
397.77	613.22
397.97	627.26
398.16	788.76
398.35	730.25
398.55	692.80
398.74	716.20
398.93	765.36
399.12	744.29
399.32	734.93
399.51	653.01
399.70	697.48
399.90	765.36
400.09	777.06
400.28	767.70
400.47	718.54
400.67	734.93
400.86	837.91
401.05	788.76
401.24	770.04
401.44	781.74
401.63	774.72
401.82	847.27
402.01	802.80
402.21	936.21
402.40	844.93
402.59	990.05
402.78	849.61
402.97	870.68
403.17	882.38
403.36	788.76
403.55	835.57
403.74	915.15
403.93	889.40
404.13	926.85
404.32	940.90
404.51	936.21
404.70	915.15
404.89	933.87
405.09	959.62
405.28	976.00
405.47	884.72
405.66	947.92
405.85	976.00
406.05	957.28
406.24	964.30
406.43	999.41
406.62	987.71
406.81	1078.99
407.00	1053.24
407.20	968.98
407.39	940.90
407.58	992.39
407.77	1074.31
407.96	1123.46
408.15	1050.90
408.34	1086.01
408.54	1013.45
408.73	1172.61
408.92	1186.65
409.11	1186.65
409.30	1130.48
409.49	1107.07
409.68	1130.48
409.87	1212.40
410.07	1172.61
410.26	1083.67
410.45	1226.44
410.64	1231.12
410.83	1186.65
411.02	1212.40
411.21	1242.82
411.40	1163.25
411.59	1203.04
411.78	1275.59
411.98	1252.19
412.17	1263.89
412.36	1334.11
412.55	1299.00
412.74	1350.49
412.93	1296.66
413.12	1341.13
413.31	1472.20
413.50	1437.09
413.69	1427.73
413.88	1488.58
414.07	1479.22
414.26	1437.09
414.45	1430.07
414.64	1497.94
414.83	1558.80
415.02	1467.52
415.22	1565.82
415.41	1591.56
415.60	1526.03
415.79	1659.44
415.98	1746.04
416.17	1551.78
416.36	1647.74
416.55	1664.12
416.74	1600.93
416.93	1624.33
417.12	1760.08
417.31	1636.03
417.50	1645.40
417.69	1748.38
417.88	1727.32
418.07	1659.44
418.26	1696.89
418.45	1724.97
418.64	1811.57
418.83	1912.22
419.02	1797.53
419.21	1769.44
419.39	1863.07
419.58	1909.88
419.77	1842.00
419.96	1893.49
420.15	1842.00
420.34	1937.96
420.53	1879.45
420.72	1928.60
420.91	2022.22
421.10	1963.71
421.29	2076.06
421.48	1900.52
421.67	1912.22
421.86	1970.73
422.05	1959.03
422.24	2047.97
422.43	1893.49
422.61	2047.97
422.80	2017.54
422.99	2101.80
423.18	2017.54
423.37	2024.56
423.56	2012.86
423.75	2059.67
423.94	1933.28
424.13	1949.67
424.32	2019.88
424.50	2092.44
424.69	2019.88
424.88	2118.18
425.07	1994.14
425.26	2001.16
425.45	2146.27
425.64	2036.27
425.83	2106.48
426.01	2024.56
426.20	1989.46
426.39	2038.61
426.58	2094.78
426.77	2127.55
426.96	2125.21
427.15	2183.72
427.33	2129.89
427.52	2197.76
427.71	2186.06
427.90	2125.21
428.09	2106.48
428.28	2038.61
428.46	2286.70
428.65	2165.00
428.84	2202.44
429.03	2307.77
429.22	2169.68
429.40	2375.64
429.59	2214.15
429.78	2094.78
429.97	2235.21
430.16	2392.03
430.34	2377.98
430.53	2361.60
430.72	2476.29
430.91	2300.75
431.10	2244.57
431.28	2394.37
431.47	2345.22
431.66	2382.67
431.85	2387.35
432.03	2377.98
432.22	2651.83
432.41	2558.21
432.60	2457.56
432.79	2335.85
432.97	2490.33
433.16	2427.14
433.35	2476.29
433.54	2588.63
433.72	2516.08
433.91	2544.16
434.10	2513.74
434.28	2520.76
434.47	2499.69
434.66	2544.16
434.85	2616.72
435.03	2712.68
435.22	2553.52
435.41	2726.72
435.59	2715.02
435.78	2525.44
435.97	2628.42
436.16	2628.42
436.34	2640.12
436.53	2504.37
436.72	2729.06
436.90	2708.00
437.09	2759.49
437.28	2750.13
437.46	2719.70
437.65	2640.12
437.84	2785.24
438.02	2740.77
438.21	2923.33
438.40	2848.43
438.58	2747.79
438.77	2801.62
438.96	2942.05
439.14	2850.77
439.33	2876.52
439.52	2988.86
439.70	2967.80
439.89	3030.99
440.08	3073.12
440.26	3096.53
440.45	3117.59
440.63	3019.29
440.82	3101.21
441.01	3138.66
441.19	3248.66
441.38	3243.98
441.57	3302.50
441.75	3382.07
441.94	3389.10
442.12	3199.51
442.31	3281.43
442.50	3466.33
442.68	3314.20
442.87	3449.95
443.05	3339.94
443.24	3496.76
443.43	3361.01
443.61	3433.57
443.80	3557.61
443.98	3398.46
444.17	3290.79
444.35	3595.06
444.54	3431.23
444.73	3361.01
444.91	3473.36
445.10	3391.44
445.28	3368.03
445.47	3410.16
445.65	3328.24
445.84	3536.55
446.02	3538.89
446.21	3410.16
446.39	3527.19
446.58	3456.97
446.77	3695.71
446.95	3555.27
447.14	3534.21
447.32	3524.85
447.51	3597.40
447.69	3625.49
447.88	3475.70
448.06	3480.38
448.25	3646.55
448.43	3688.68
448.62	3606.77
448.80	3501.44
448.99	3557.61
449.17	3754.22
449.36	3592.72
449.54	3707.41
449.73	3878.27
449.91	3686.34
450.10	3840.82
450.28	3822.09
450.46	3784.65
450.65	3747.20
450.83	3824.44
451.02	3880.61
451.20	3822.09
451.39	3878.27
451.57	3761.24
451.76	3653.58
451.94	3770.60
452.13	3932.10
452.31	3892.31
452.49	3693.37
452.68	3857.20
452.86	3878.27
453.05	3957.85
453.23	3763.58
453.42	3868.91
453.60	3861.88
453.78	3976.57
453.97	3932.10
454.15	3950.82
454.34	4095.94
454.52	4121.68
454.70	4060.83
454.89	4107.64
455.07	3981.25
455.26	4058.49
455.44	4067.85
455.62	3988.27
455.81	4091.26
455.99	4154.45
456.17	4212.96
456.36	4191.90
456.54	4166.15
456.73	4348.72
456.91	4266.80
457.09	4346.37
457.28	4189.56
457.46	4276.16
457.64	4517.23
457.83	4416.59
458.01	4255.09
458.19	4545.32
458.38	4315.95
458.56	4458.72
458.74	4519.57
458.93	4491.49
459.11	4344.03
459.29	4449.36
459.48	4505.53
459.66	4566.39
459.84	4617.88
460.03	4645.96
460.21	4681.07
460.39	4648.30
460.57	4512.55
460.76	4624.90
460.94	4660.01
461.12	4519.57
461.31	4713.84
461.49	4652.98
461.67	4690.43
461.85	4713.84
462.04	4765.33
462.22	4858.95
462.40	4655.33
462.59	4727.88
462.77	4734.90
462.95	4767.67
463.13	4905.76
463.32	4940.87
463.50	5006.41
463.68	4786.40
463.86	4924.49
464.05	4884.70
464.23	5078.96
464.41	5029.81
464.59	4999.38
464.78	5093.01
464.96	5064.92
465.14	4961.94
465.32	5151.52
465.50	5172.58
465.69	5186.63
465.87	5160.88
466.05	4943.21
466.23	4990.02
466.41	5125.77
466.60	5242.80
466.78	5165.56
466.96	5013.43
467.14	5177.26
467.32	5100.03
467.51	5184.29
467.69	4919.81
467.87	5100.03
468.05	5205.35
468.23	5118.75
468.41	5181.95
468.60	5224.08
468.78	5263.86
468.96	5301.31
469.14	5334.08
469.32	5289.61
469.50	5151.52
469.69	5481.53
469.87	5715.59
470.05	5497.92
470.23	5451.11
470.41	5551.75
470.59	5586.86
470.77	5266.21
470.95	5500.26
471.14	5636.01
471.32	5458.13
471.50	5607.92
471.68	5631.33
471.86	5680.48
472.04	5724.95
472.22	5902.83
472.40	5671.12
472.58	5870.06
472.77	5837.30
472.95	5760.06
473.13	6099.44
473.31	5827.93
473.49	5776.44
473.67	6050.28
473.85	5846.66
474.03	6160.29
474.21	6099.44
474.39	6221.14
474.57	6012.84
474.75	6207.10
474.93	6361.58
475.12	6183.70
475.30	6338.17
475.48	6195.40
475.66	6221.14
475.84	6361.58
476.02	6466.90
476.20	6389.66
476.38	6693.93
476.56	6841.39
476.74	6663.51
476.92	6504.35
477.10	6743.08
477.28	6867.13
477.46	6738.40
477.64	6757.13
477.82	6916.28
478.00	7190.13
478.18	7152.68
478.36	6885.86
478.54	7059.06
478.72	7176.08
478.90	7283.75
479.08	7171.40
479.26	7375.03
479.44	7358.64
479.62	7414.82
479.80	7503.76
479.98	7613.76
480.16	7726.11
480.34	7510.78
480.52	7763.56
480.70	7756.54
480.88	7555.25
481.06	7920.37
481.24	7740.15
481.41	7992.93
481.59	8049.10
481.77	8177.83
481.95	8152.09
482.13	8229.32
482.31	8170.81
482.49	8367.42
482.67	8299.54
482.85	8425.93
483.03	8627.21
483.21	8559.34
483.39	8875.31
483.57	8662.32
483.74	8674.03
483.92	8765.31
484.10	8685.73
484.28	9097.66
484.46	9100.00
484.64	9397.25
484.82	9240.44
485.00	9210.01
485.18	9423.00
485.35	9425.34
485.53	9628.96
485.71	9511.94
485.89	9804.50
486.07	9605.56
486.25	9579.81
486.43	9881.74
486.61	9741.31
486.78	10153.24
486.96	9923.87
487.14	10314.74
487.32	9973.02
487.50	10260.91
487.68	10342.83
487.85	10560.50
488.03	10733.70
488.21	10679.86
488.39	10649.44
488.57	10719.65
488.75	10794.55
488.92	10972.43
489.10	11061.37
489.28	11098.82
489.46	11110.52
489.64	11150.31
489.81	11433.52
489.99	11384.37
490.17	11604.38
490.35	11644.17
490.53	11634.80
490.70	11679.27
490.88	11517.78
491.06	12046.74
491.24	11749.49
491.41	11925.03
491.59	12060.78
491.77	12320.58
491.95	12423.56
492.13	12592.08
492.30	12645.91
492.48	12493.78
492.66	12205.89
492.84	12411.86
493.01	12657.62
493.19	12716.13
493.37	12898.69
493.54	12912.74
493.72	12987.63
493.90	12964.23
494.08	13329.35
494.25	13343.39
494.43	13523.62
494.61	13188.92
494.79	13453.40
494.96	13507.23
495.14	13605.53
495.32	13923.85
495.49	13830.23
495.67	13839.59
495.85	14064.28
496.02	14106.41
496.20	14036.19
496.38	13926.19
496.55	14134.50
496.73	14588.56
496.91	14326.42
497.09	14548.77
497.26	14604.94
497.44	14534.73
497.62	14700.90
497.79	14916.23
497.97	14967.73
498.14	14953.68
498.32	15110.50
498.50	14963.04
498.67	15290.72
498.85	15150.29
499.03	15311.78
499.20	15311.78
499.38	15215.82
499.56	15693.29
499.73	15323.49
499.91	15576.27
500.08	15824.36
500.26	15573.92
500.44	15634.78
500.61	15594.99
500.79	15857.13
500.97	15831.38
501.14	16196.51
501.32	15878.19
501.49	15847.77
501.67	15917.98
501.84	16393.11
502.02	16374.39
502.20	16266.72
502.37	16547.59
502.55	16313.53
502.72	16353.32
502.90	16453.97
503.07	16137.99
503.25	16400.13
503.43	16596.74
503.60	16910.37
503.78	16692.70
503.95	16772.28
504.13	16524.18
504.30	16795.68
504.48	16809.73
504.65	16905.69
504.83	17163.15
505.01	17348.05
505.18	17350.39
505.36	17179.53
505.53	17153.79
505.71	17345.71
505.88	17132.72
506.06	17104.64
506.23	17614.87
506.41	17757.64
506.58	17638.28
506.76	17825.52
506.93	17855.95
507.11	17687.43
507.28	17919.14
507.46	18008.08
507.63	17991.70
507.81	17977.65
507.98	17762.33
508.16	18085.32
508.33	18232.77
508.50	18260.86
508.68	18003.40
508.85	18387.25
509.03	18228.09
509.20	18560.45
509.38	18541.72
509.55	18527.68
509.73	18689.18
509.90	18845.99
510.08	18747.69
510.25	18525.34
510.42	18757.05
510.60	18874.08
510.77	19108.13
510.95	19227.50
511.12	18888.12
511.30	18757.05
511.47	19154.94
511.64	18906.85
511.82	19344.53
511.99	19403.04
512.17	19396.02
512.34	19274.31
512.51	19396.02
512.69	19517.73
512.86	19337.51
513.04	19957.75
513.21	19562.20
513.38	19929.66
513.56	19889.87
513.73	19569.22
513.90	19716.67
514.08	19772.85
514.25	19632.41
514.43	19819.66
514.60	19723.69
514.77	20556.93
514.95	20510.11
515.12	20051.37
515.29	20393.09
515.47	20355.64
515.64	20350.96
515.81	20465.64
515.99	20510.11
516.16	20854.17
516.33	20552.24
516.51	20486.71
516.68	20456.28
516.85	20519.48
517.03	20891.62
517.20	20856.51
517.37	20774.60
517.54	20896.30
517.72	21003.97
517.89	20706.72
518.06	20718.42
518.24	20847.15
518.41	21184.19
518.58	21010.99
518.75	21205.25
518.93	21256.75
519.10	21039.08
519.27	21479.10
519.45	21301.22
519.62	21642.93
519.79	21474.42
519.96	21406.54
520.14	21561.02
520.31	21415.90
520.48	21710.81
520.65	21568.04
520.83	21638.25
521.00	21642.93
521.17	21624.21
521.34	21600.80
521.52	21951.88
521.69	21944.86
521.86	21905.07
522.03	22190.62
522.20	22368.50
522.38	22122.74
522.55	22298.28
522.72	21975.29
522.89	22089.98
523.07	22494.89
523.24	22576.81
523.41	22649.36
523.58	22195.30
523.75	22366.16
523.92	22331.05
524.10	22401.27
524.27	22415.31
524.44	22476.16
524.61	22677.45
524.78	22803.84
524.96	23035.55
525.13	22810.86
525.30	22930.23
525.47	22834.27
525.64	23044.91
525.81	23084.70
525.98	23220.45
526.16	23035.55
526.33	23000.44
526.50	23276.63
526.67	23136.20
526.84	23405.36
527.01	23241.52
527.18	23304.71
527.36	23285.99
527.53	23716.65
527.70	23751.76
527.87	23613.66
528.04	23592.60
528.21	23482.59
528.38	23770.48
528.55	23690.90
528.72	23648.77
528.89	23484.94
529.07	23843.04
529.24	23793.89
529.41	24222.20
529.58	23826.65
529.75	23782.18
529.92	23768.14
530.09	23702.61
530.26	24105.18
530.43	23924.96
530.60	24058.37
530.77	23833.68
530.94	24402.43
531.11	23974.11
531.28	24051.34
531.46	23995.17
531.63	24123.90
531.80	24404.77
531.97	24360.30
532.14	24191.78
532.31	24751.17
532.48	24489.03
532.65	24584.99
532.82	24465.62
532.99	24524.13
533.16	24538.18
533.33	24861.17
533.50	24767.55
533.67	24879.89
533.84	24261.99
534.01	24767.55
534.18	24706.70
534.35	25025.01
534.52	25062.46
534.69	24790.95
534.86	25348.00
535.03	24985.22
535.20	24889.26
535.37	25184.16
535.54	25277.79
535.71	24987.56
535.88	25219.27
536.05	25256.72
536.22	25500.14
536.38	25146.72
536.55	25563.33
536.72	25638.23
536.89	25149.06
537.06	25610.14
537.23	25355.02
537.40	25759.94
537.57	25652.27
537.74	25518.86
537.91	25895.69
538.08	25734.19
538.25	25570.35
538.42	25898.03
538.59	25439.28
538.75	25446.30
538.92	25806.75
539.09	25827.81
539.26	25680.36
539.43	26078.25
539.60	25968.24
539.77	25937.82
539.94	26150.81
540.11	26178.89
540.28	26228.04
540.44	25802.07
540.61	26101.65
540.78	26251.45
540.95	26251.45
541.12	26298.26
541.29	26361.45
541.46	26113.36
541.62	26096.97
541.79	26431.67
541.96	26188.25
542.13	26373.16
542.30	26251.45
542.47	26532.31
542.63	26565.08
542.80	26675.09
542.97	26862.33
543.14	26794.45
543.31	26761.69
543.48	26562.74
543.64	27168.94
543.81	26794.45
543.98	27192.34
544.15	27173.62
544.32	27192.34
544.48	27484.91
544.65	26714.87
544.82	27016.80
544.99	26913.82
545.16	27175.96
545.32	26647.00
545.49	27473.21
545.66	27440.44
545.83	27679.18
546.00	27255.54
546.16	27250.86
546.33	26647.00
546.50	27051.91
546.67	27171.28
546.83	27269.58
547.00	27229.79
547.17	27311.71
547.34	27372.57
547.50	27332.78
547.67	27510.66
547.84	27475.55
548.00	27508.32
548.17	27711.94
548.34	27686.20
548.51	27751.73
548.67	27693.22
548.84	27463.85
549.01	27611.30
549.18	27679.18
549.34	27744.71
549.51	27365.54
549.68	27632.36
549.84	27662.79
550.01	27807.90
550.18	27683.86
550.34	27833.65
550.51	28002.17
550.68	28173.03
550.84	27934.29
551.01	28121.54
551.18	27821.95
551.34	27740.03
551.51	27988.13
551.68	28191.75
551.84	28060.68
552.01	28081.75
552.18	28002.17
552.34	27971.74
552.51	28301.76
552.68	27917.91
552.84	28147.28
553.01	28411.76
553.18	27850.03
553.34	28313.46
553.51	28325.16
553.67	28807.31
553.84	28709.01
554.01	28404.74
554.17	28664.54
554.34	28568.58
554.51	28400.06
554.67	28472.62
554.84	28599.01
555.00	28313.46
555.17	28421.13
555.33	28411.76
555.50	28545.17
555.67	28666.88
555.83	28716.03
556.00	28840.08
556.16	28950.09
556.33	28432.83
556.50	28776.89
556.66	29064.77
556.83	28966.47
556.99	29244.99
557.16	29151.37
557.32	28947.75
557.49	29223.93
557.65	28666.88
557.82	28809.65
557.98	29069.45
558.15	28968.81
558.32	29001.58
558.48	28950.09
558.65	29369.04
558.81	28961.79
558.98	29345.64
559.14	28985.19
559.31	29095.20
559.47	29113.92
559.64	29371.38
559.80	29443.94
559.97	29296.49
560.13	29099.88
560.30	28900.94
560.46	29584.37
560.63	29401.81
560.79	29539.90
560.96	29390.11
561.12	29172.44
561.29	29006.26
561.45	29371.38
561.61	29336.27
561.78	29429.90
561.94	29329.25
562.11	29228.61
562.27	29223.93
562.44	29549.26
562.60	29373.72
562.77	29469.69
562.93	29457.98
563.10	29778.64
563.26	29778.64
563.42	29640.54
563.59	29518.84
563.75	29638.20
563.92	29188.82
564.08	29429.90
564.24	29427.56
564.41	29502.45
564.57	29642.88
564.74	29282.44
564.90	29956.52
565.07	29509.47
565.23	29621.82
565.39	29448.62
565.56	29780.98
565.72	29511.81
565.88	29525.86
566.05	29528.20
566.21	29347.98
566.38	29600.76
566.54	29729.48
566.70	29930.77
566.87	30029.07
567.03	30190.57
567.19	30412.92
567.36	30026.73
567.52	29773.95
567.68	30244.40
567.85	29570.33
568.01	29621.82
568.17	29851.19
568.34	29977.58
568.50	29591.39
568.66	29905.02
568.83	30078.22
568.99	29392.45
569.15	30012.69
569.32	29743.53
569.48	29593.73
569.64	30307.60
569.81	29855.87
569.97	29582.03
570.13	30436.33
570.30	30036.09
570.46	29898.00
570.62	29792.68
570.78	29720.12
570.95	29844.17
571.11	30092.27
571.27	29731.83
571.43	29888.64
571.60	30232.70
571.76	30321.64
571.92	30110.99
572.09	30078.22
572.25	30431.65
572.41	30120.35
572.57	30195.25
572.74	30323.98
572.90	30017.37
573.06	30326.32
573.22	30141.42
573.38	30394.20
573.55	30288.87
573.71	30450.37
573.87	30176.53
574.03	30223.34
574.20	30211.64
574.36	30188.23
574.52	30094.61
574.68	30040.78
574.84	30127.38
575.01	30518.25
575.17	30195.25
575.33	30015.03
575.49	30005.67
575.65	30132.06
575.82	30073.54
575.98	30216.32
576.14	30403.56
576.30	30155.46
576.46	30178.87
576.62	30366.11
576.79	30466.75
576.95	30319.30
577.11	30277.17
577.27	30480.80
577.43	30520.59
577.59	30281.85
577.75	30630.59
577.92	29975.24
578.08	30068.86
578.24	30265.47
578.40	30380.15
578.56	30405.90
578.72	30469.09
578.88	30785.07
579.04	30684.42
579.21	30504.20
579.37	30312.28
579.53	30600.16
579.69	30075.88
579.85	30270.15
580.01	30574.42
580.17	30012.69
580.33	30864.64
580.49	30429.30
580.65	30370.79
580.82	30136.74
580.98	30459.73
581.14	30595.48
581.30	30319.30
581.46	30415.26
581.62	30543.99
581.78	29701.40
581.94	30319.30
582.10	30541.65
582.26	30398.88
582.42	30431.65
582.58	30656.34
582.74	30398.88
582.90	30363.77
583.06	30354.41
583.22	30092.27
583.38	30401.22
583.54	30576.76
583.70	30876.35
583.86	30216.32
584.02	30361.43
584.18	30588.46
584.34	30410.58
584.50	31070.61
584.66	30323.98
584.82	30387.18
584.98	30731.23
585.14	30719.53
585.30	30316.96
585.46	30560.37
585.62	30120.35
585.78	30279.51
585.94	30501.86
586.10	31098.70
586.26	30352.07
586.42	30623.57
586.58	31166.57
586.74	30546.33
586.90	30604.84
587.06	30927.84
587.22	30499.52
587.38	30003.33
587.54	30976.99
587.70	30881.03
587.86	30939.54
588.02	30623.57
588.18	31204.02
588.34	30773.36
588.49	30649.32
588.65	30525.27
588.81	30684.42
588.97	30820.17
589.13	30586.12
589.29	30712.51
589.45	31129.12
589.61	30817.83
589.77	30834.22
589.93	31292.96
590.08	31140.83
590.24	31269.56
590.40	31068.27
590.56	31192.32
590.72	30754.64
590.88	30579.10
591.04	30859.96
591.20	30904.43
591.35	31009.76
591.51	31182.96
591.67	31082.31
591.83	31068.27
591.99	31157.21
592.15	31005.08
592.31	31185.30
592.46	30768.68
592.62	30555.69
592.78	31131.47
592.94	30639.95
593.10	30679.74
593.26	31180.62
593.41	31124.44
593.57	31337.43
593.73	31084.65
593.89	30897.41
594.05	31140.83
594.20	30700.81
594.36	31082.31
594.52	30895.07
594.68	30567.40
594.84	31014.44
594.99	31253.17
595.15	30869.33
595.31	31393.61
595.47	31208.70
595.62	30986.35
595.78	31159.55
595.94	30824.86
596.10	31344.45
596.25	31103.38
596.41	30806.13
596.57	30670.38
596.73	30848.26
596.88	30918.48
597.04	30848.26
597.20	31150.19
597.36	30902.09
597.51	31522.34
597.67	31321.05
597.83	31297.64
597.99	31021.46
598.14	31070.61
598.30	31110.40
598.46	31232.11
598.61	31117.42
598.77	30712.51
598.93	31065.93
599.09	31372.54
599.24	31255.51
599.40	31028.48
599.56	31290.62
599.71	31108.06
599.87	31229.77
600.03	30712.51
600.18	30930.18
600.34	30962.95
600.50	30850.60
600.65	31543.40
600.81	31241.47
600.97	31625.32
601.12	31613.62
601.28	31466.16
601.44	31337.43
601.59	31140.83
601.75	31044.87
601.91	31409.99
602.06	31236.79
602.22	31070.61
602.37	31110.40
602.53	31215.72
602.69	31412.33
602.84	31424.03
603.00	31339.77
603.16	31276.58
603.31	31147.85
603.47	31138.49
603.62	31515.31
603.78	30902.09
603.94	31054.23
604.09	30787.41
604.25	31030.82
604.40	31063.59
604.56	31267.22
604.71	31604.25
604.87	30988.69
605.03	31297.64
605.18	31646.38
605.34	30890.39
605.49	30969.97
605.65	31323.39
605.80	30721.87
605.96	30787.41
606.12	30829.54
606.27	31290.62
606.43	30747.62
606.58	30995.71
606.74	30967.63
606.89	31152.53
607.05	31201.68
607.20	31122.10
607.36	31271.90
607.51	31391.26
607.67	30927.84
607.82	30754.64
607.98	30864.64
608.13	30841.24
608.29	30972.31
608.44	30855.28
608.60	30740.60
608.75	31023.80
608.91	30810.81
609.06	31037.84
609.22	31232.11
609.37	30649.32
609.53	30878.69
609.68	30536.97
609.84	30932.52
609.99	30529.95
610.15	30464.41
610.30	30831.88
610.46	30513.56
610.61	30822.51
610.76	30920.82
610.92	30974.65
611.07	30897.41
611.23	30672.72
611.38	30859.96
611.54	30834.22
611.69	30419.94
611.84	30567.40
612.00	30623.57
612.15	30225.68
612.31	30672.72
612.46	30820.17
612.62	31267.22
612.77	30698.47
612.92	30452.71
613.08	30948.90
613.23	30377.81
613.39	30883.37
613.54	30778.04
613.69	30604.84
613.85	30354.41
614.00	30778.04
614.15	30719.53
614.31	30553.35
614.46	30380.15
614.62	30539.31
614.77	30742.94
614.92	30820.17
615.08	30724.21
615.23	30712.51
615.38	30773.36
615.54	30485.48
615.69	30693.79
615.84	30576.76
616.00	30532.29
616.15	30333.34
616.30	30258.45
616.46	30628.25
616.61	30251.42
616.76	30609.53
616.92	30431.65
617.07	30118.01
617.22	30209.29
617.37	30295.89
617.53	30155.46
617.68	30359.09
617.83	30061.84
617.99	29890.98
618.14	30281.85
618.29	30733.57
618.45	30141.42
618.60	30375.47
618.75	30323.98
618.90	30419.94
619.06	30738.26
619.21	30284.19
619.36	29975.24
619.51	29689.70
619.67	29961.20
619.82	29654.59
619.97	30005.67
620.12	29701.40
620.28	29820.77
620.43	30024.39
620.58	30183.55
620.73	29818.42
620.89	30183.55
621.04	30099.29
621.19	29862.90
621.34	29919.07
621.49	29788.00
621.65	30125.04
621.80	29930.77
621.95	29472.03
622.10	29682.67
622.25	29605.44
622.41	29823.11
622.56	29848.85
622.71	29883.96
622.86	29820.77
623.01	30118.01
623.16	29537.56
623.32	29481.39
623.47	29392.45
623.62	29465.00
623.77	29380.74
623.92	29462.66
624.07	29357.34
624.23	29546.92
624.38	29432.24
624.53	29626.50
624.68	29612.46
624.83	29687.36
624.98	29743.53
625.13	29364.36
625.29	29832.47
625.44	29560.97
625.59	29212.23
625.74	29355.00
625.89	29401.81
626.04	29247.33
626.19	29046.05
626.34	29338.62
626.49	29380.74
626.65	29118.60
626.80	29326.91
626.95	29039.03
627.10	29331.59
627.25	29366.70
627.40	29303.51
627.55	29362.02
627.70	28877.53
627.85	29003.92
628.00	29053.07
628.15	28992.22
628.30	28833.06
628.45	29034.35
628.60	28884.55
628.76	28811.99
628.91	29212.23
629.06	29020.30
629.21	29240.31
629.36	29036.69
629.51	28898.59
629.66	28861.15
629.81	28664.54
629.96	28746.46
630.11	28793.27
630.26	28959.45
630.41	28393.04
630.56	28329.84
630.71	28821.36
630.86	28437.51
631.01	28847.10
631.16	28741.78
631.31	28893.91
631.46	28687.95
631.61	28994.56
631.76	28362.61
631.91	28982.85
632.06	28591.98
632.21	28341.55
632.36	28489.00
632.51	28666.88
632.66	28718.37
632.81	28690.29
632.96	28594.32
633.10	28636.45
633.25	28489.00
633.40	28381.34
633.55	28601.35
633.70	28566.24
633.85	28037.28
634.00	27962.38
634.15	28388.36
634.30	28517.09
634.45	28540.49
634.60	28292.40
634.75	27931.95
634.90	28322.82
635.05	28285.37
635.19	28163.67
635.34	28383.68
635.49	28617.73
635.64	28151.96
635.79	28257.29
635.94	28151.96
636.09	28032.60
636.24	28093.45
636.39	28166.01
636.53	27875.78
636.68	28088.77
636.83	28051.32
636.98	28292.40
637.13	27910.89
637.28	28203.46
637.43	28364.95
637.57	27744.71
637.72	28009.19
637.87	27896.85
638.02	28051.32
638.17	28149.62
638.32	27948.34
638.46	27644.07
638.61	27648.75
638.76	27733.01
638.91	27924.93
639.06	27660.45
639.20	27697.90
639.35	27667.47
639.50	27733.01
639.65	27899.19
639.80	27786.84
639.94	27388.95
640.09	27988.13
640.24	27604.28
640.39	27800.88
640.54	27225.11
640.68	27428.74
640.83	27580.87
640.98	27311.71
641.13	27225.11
641.27	27728.33
641.42	27487.25
641.57	27498.95
641.72	27772.80
641.86	27400.65
642.01	27278.94
642.16	27468.53
642.31	27248.52
642.45	27332.78
642.60	27363.20
642.75	27220.43
642.90	27267.24
643.04	27159.58
643.19	26778.07
643.34	27264.90
643.48	27653.43
643.63	27330.44
643.78	27583.21
643.93	27309.37
644.07	27080.00
644.22	27527.04
644.37	27754.07
644.51	27314.05
644.66	27452.14
644.81	27000.42
644.95	27072.98
645.10	27101.06
645.25	26951.27
645.39	26749.98
645.54	27168.94
645.69	27220.43
645.83	27255.54
645.98	26984.04
646.13	26649.34
646.27	26864.67
646.42	27185.32
646.57	27089.36
646.71	27110.43
646.86	26780.41
647.00	26939.57
647.15	26752.32
647.30	27016.80
647.44	26471.46
647.59	26778.07
647.74	26934.88
647.88	26827.22
648.03	27185.32
648.17	27082.34
648.32	26911.48
648.47	27016.80
648.61	26979.36
648.76	26572.10
648.90	26747.64
649.05	26941.91
649.20	26642.32
649.34	26356.77
649.49	26192.94
649.63	26504.23
649.78	26462.10
649.92	26462.10
650.07	26459.76
650.21	26321.66
650.36	26740.62
650.51	26532.31
650.65	26845.94
650.80	26637.64
650.94	26380.18
651.09	26513.59
651.23	26656.36
651.38	26085.27
651.52	26312.30
651.67	26422.31
651.81	26771.05
651.96	26279.54
652.10	26225.70
652.25	26342.73
652.39	26565.08
652.54	26497.20
652.68	26298.26
652.83	26148.46
652.97	26522.95
653.12	26668.06
653.26	26251.45
653.41	26136.76
653.55	26089.95
653.70	26183.57
653.84	26352.09
653.99	26050.16
654.13	26345.07
654.27	25949.52
654.42	26239.75
654.56	26202.30
654.71	25979.95
654.85	26258.47
655.00	26024.42
655.14	26167.19
655.29	25846.54
655.43	26106.34
655.57	26043.14
655.72	25476.73
655.86	26017.40
656.01	25846.54
656.15	25919.09
656.30	26094.63
656.44	25757.60
656.58	25865.26
656.73	25837.17
656.87	25654.61
657.01	25511.84
657.16	25781.00
657.30	25717.81
657.45	26099.31
657.59	25790.36
657.73	25802.07
657.88	25214.59
658.02	25455.67
658.16	25696.74
658.31	25762.28
658.45	25589.08
658.60	25472.05
658.74	25294.17
658.88	25469.71
659.03	25563.33
659.17	25830.15
659.31	25603.12
659.46	25322.26
659.60	25935.48
659.74	25003.94
659.89	25373.75
660.03	25027.35
660.17	25298.85
660.32	25146.72
660.46	25214.59
660.60	24898.62
660.74	25069.48
660.89	25179.48
661.03	24760.53
661.17	25048.41
661.32	25046.07
661.46	25268.42
661.60	24922.02
661.74	24959.47
661.89	25013.31
662.03	24879.89
662.17	24690.31
662.31	24903.30
662.46	24968.84
662.60	24510.09
662.74	24816.70
662.88	24788.61
663.03	24313.48
663.17	24694.99
663.31	24093.47
663.45	24379.02
663.60	24514.77
663.74	24334.55
663.88	24273.70
664.02	24437.53
664.17	24418.81
664.31	24458.60
664.45	24559.24
664.59	24264.33
664.73	24346.25
664.88	23948.36
665.02	23695.58
665.16	24053.69
665.30	23960.06
665.44	24105.18
665.59	23885.17
665.73	24051.34
665.87	23985.81
666.01	23735.37
666.15	24114.54
666.29	24320.51
666.44	23592.60
666.58	23826.65
666.72	23857.08
666.86	23868.78
667.00	23812.61
667.14	23562.17
667.28	23508.34
667.43	23641.75
667.57	23379.61
667.71	23506.00
667.85	23183.01
667.99	23358.55
668.13	23550.47
668.27	23328.12
668.41	23433.44
668.56	23260.24
668.70	23491.96
668.84	23307.05
668.98	23337.48
669.12	23073.00
669.26	23377.27
669.40	23192.37
669.54	23117.47
669.68	23005.13
669.82	22860.01
669.96	22607.23
670.10	22637.66
670.25	23129.17
670.39	22824.90
670.53	22625.96
670.67	22710.22
670.81	22911.50
670.95	22948.95
671.09	22705.54
671.23	22693.83
671.37	22670.43
671.51	23103.43
671.65	22724.26
671.79	22665.75
671.93	22471.48
672.07	22415.31
672.21	22412.97
672.35	22326.37
672.49	22265.52
672.63	22349.78
672.77	21837.20
672.91	22291.26
673.05	22312.33
673.19	22396.59
673.33	21970.61
673.47	22075.93
673.61	22176.58
673.75	22125.08
673.89	22209.34
674.03	21949.54
674.17	22033.80
674.31	21495.48
674.45	21855.92
674.59	21942.52
674.73	21743.58
674.87	21500.16
675.01	21593.78
675.15	21392.50
675.29	21493.14
675.43	21282.49
675.56	21287.17
675.70	21448.67
675.84	21289.51
675.98	20767.57
676.12	21816.13
676.26	21642.93
676.40	21582.08
676.54	21191.21
676.68	21156.10
676.82	20652.89
676.96	20954.82
677.10	21090.57
677.23	20533.52
677.37	20561.61
677.51	20573.31
677.65	20280.74
677.79	20683.31
677.93	20285.42
678.07	20294.79
678.21	20245.63
678.34	20203.50
678.48	20180.10
678.62	19880.51
678.76	19908.60
678.90	20198.82
679.04	19683.91
679.18	20053.71
679.31	19646.46
679.45	19838.38
679.59	19459.21
679.73	19552.84
679.87	19494.32
680.00	19660.50
680.14	19433.47
680.28	19499.00
680.42	19386.66
680.56	19374.95
680.70	19211.12
680.83	19623.05
680.97	19524.75
681.11	19318.78
681.25	18934.93
681.39	18998.13
681.52	18974.72
681.66	19073.03
681.80	18691.52
681.94	18714.92
682.07	18771.10
682.21	18733.65
682.35	18265.54
682.49	18567.47
682.62	18541.72
682.76	18459.81
682.90	18380.23
683.04	18445.76
683.17	18548.75
683.31	18513.64
683.45	18192.98
683.59	18125.11
683.72	18333.42
683.86	18082.98
684.00	18155.54
684.13	18183.62
684.27	18099.36
684.41	17767.01
684.55	17542.32
684.68	17673.39
684.82	17645.30
684.96	17654.66
685.09	17689.77
685.23	17771.69
685.37	17593.81
685.50	17694.45
685.64	17535.29
685.78	17474.44
685.91	17488.48
686.05	17462.74
686.19	16940.80
686.32	17245.07
686.46	16910.37
686.60	17114.00
686.73	17146.76
686.87	16627.17
687.01	16996.97
687.14	16779.30
687.28	16512.48
687.42	16851.86
687.55	16592.06
687.69	16741.85
687.82	16554.61
687.96	16657.59
688.10	16526.52
688.23	16465.67
688.37	16475.03
688.50	16327.58
688.64	16002.24
688.78	16350.98
688.91	16170.76
689.05	16123.95
689.18	16025.65
689.32	15566.90
689.46	15754.15
689.59	15559.88
689.73	15681.59
689.86	15667.55
690.00	15686.27
690.13	15644.14
690.27	15686.27
690.41	15662.86
690.54	15236.89
690.68	15328.17
690.81	15477.96
690.95	15494.35
691.08	15534.14
691.22	15538.82
691.35	15056.67
691.49	15314.13
691.62	15049.64
691.76	15103.48
691.89	14855.38
692.03	14693.88
692.16	14658.78
692.30	14483.24
692.43	14450.47
692.57	14705.59
692.70	14408.34
692.84	14284.29
692.97	14408.34
693.11	14586.22
693.24	14553.45
693.38	14441.11
693.51	14099.39
693.65	14071.30
693.78	14270.25
693.92	14288.97
694.05	14064.28
694.19	14118.11
694.32	14022.15
694.45	14083.00
694.59	13678.09
694.72	13556.38
694.86	13448.72
694.99	13689.79
695.13	13504.89
695.26	13486.17
695.39	13462.76
695.53	13525.96
695.66	13460.42
695.80	13851.29
695.93	13186.58
696.07	13441.70
696.20	13357.44
696.33	13013.38
696.47	13020.40
696.60	13151.47
696.73	13085.94
696.87	12901.03
697.00	12872.95
697.14	12669.32
697.27	12727.83
697.40	12564.00
697.54	12652.94
697.67	12702.09
697.80	12409.52
697.94	12313.56
698.07	12320.58
698.21	12262.07
698.34	12308.88
698.47	12500.80
698.61	12393.14
698.74	12278.45
698.87	12351.01
699.01	12032.69
699.14	12271.43
699.27	11967.16
699.40	12114.61
699.54	11988.22
699.67	11875.88
699.80	11906.31
699.94	11885.24
700.07	11899.28
700.20	11700.34
700.34	11686.29
700.47	11480.33
700.60	11686.29
700.73	11590.33
700.87	11646.51
701.00	11503.73
701.13	11506.07
701.26	11297.77
701.40	11426.50
701.53	11215.85
701.66	11276.70
701.79	11112.86
701.93	11250.96
702.06	11080.10
702.19	10810.93
702.32	10946.69
702.46	11070.73
702.59	10745.40
702.72	10539.43
702.85	10752.42
702.99	10714.97
703.12	10815.62
703.25	10530.07
703.38	10619.01
703.51	10504.32
703.65	10707.95
703.78	10382.62
703.91	10384.96
704.04	10401.34
704.17	10485.60
704.31	10324.10
704.44	10399.00
704.57	10183.67
704.70	10017.49
704.83	9895.78
704.96	10057.28
705.10	9884.08
705.23	10033.88
>>>>>End Processed Spectral Data<<<<<
