SpectraSuite Data File
++++++++++++++++++++++++++++++++++++
Date: Fri Oct 18 13:58:06 GMT-05:00 2013
User: bianchi
Dark Spectrum Present: No
Reference Spectrum Present: No
Number of Sampled Component Spectra: 1
Spectrometers: USB2+H05261
Integration Time (usec): 50000 (USB2+H05261)
Spectra Averaged: 1 (USB2+H05261)
Boxcar Smoothing: 0 (USB2+H05261)
Correct for Electrical Dark: No (USB2+H05261)
Strobe/Lamp Enabled: No (USB2+H05261)
Correct for Detector Non-linearity: No (USB2+H05261)
Correct for Stray Light: No (USB2+H05261)
Number of Pixels in Processed Spectrum: 2048
>>>>>Begin Processed Spectral Data<<<<<
365.73	0.00
365.92	0.00
366.12	0.00
366.32	0.00
366.52	0.00
366.72	0.00
366.91	0.00
367.11	0.00
367.31	0.00
367.51	0.00
367.70	0.00
367.90	0.00
368.10	0.00
368.30	0.00
368.49	0.00
368.69	0.00
368.89	0.00
369.09	0.00
369.28	0.00
369.48	0.00
369.68	0.00
369.87	0.00
370.07	0.00
370.27	0.00
370.47	0.00
370.66	114.69
370.86	166.18
371.06	81.92
371.25	177.88
371.45	184.90
371.65	145.11
371.84	110.01
372.04	198.95
372.24	212.99
372.44	138.09
372.63	180.22
372.83	231.71
373.03	166.18
373.22	227.03
373.42	196.60
373.62	257.46
373.81	196.60
374.01	299.59
374.21	259.80
374.40	259.80
374.60	299.59
374.79	269.16
374.99	262.14
375.19	278.52
375.38	243.42
375.58	182.56
375.78	220.01
375.97	217.67
376.17	285.55
376.37	290.23
376.56	255.12
376.76	241.08
376.95	292.57
377.15	285.55
377.35	224.69
377.54	255.12
377.74	212.99
377.93	241.08
378.13	269.16
378.33	299.59
378.52	222.35
378.72	269.16
378.91	273.84
379.11	278.52
379.31	367.46
379.50	224.69
379.70	285.55
379.89	339.38
380.09	376.83
380.28	341.72
380.48	245.76
380.68	283.20
380.87	224.69
381.07	367.46
381.26	297.25
381.46	322.99
381.65	341.72
381.85	402.57
382.04	341.72
382.24	315.97
382.43	341.72
382.63	332.36
382.83	285.55
383.02	348.74
383.22	355.76
383.41	266.82
383.61	395.55
383.80	365.12
384.00	318.31
384.19	358.10
384.39	339.38
384.58	369.80
384.78	414.27
384.97	411.93
385.17	393.21
385.36	482.15
385.56	374.49
385.75	355.76
385.95	383.85
386.14	444.70
386.34	440.02
386.53	327.68
386.72	369.80
386.92	423.64
387.11	463.43
387.31	454.06
387.50	381.51
387.70	449.38
387.89	496.19
388.09	444.70
388.28	407.25
388.48	418.96
388.67	416.62
388.86	479.81
389.06	416.62
389.25	367.46
389.45	421.30
389.64	456.40
389.84	437.68
390.03	547.69
390.22	482.15
390.42	435.34
390.61	437.68
390.81	449.38
391.00	500.87
391.19	489.17
391.39	500.87
391.58	521.94
391.78	507.90
391.97	547.69
392.16	521.94
392.36	557.05
392.55	617.90
392.75	543.00
392.94	554.71
393.13	545.34
393.33	554.71
393.52	479.81
393.71	526.62
393.91	589.82
394.10	575.77
394.29	587.47
394.49	524.28
394.68	620.24
394.88	559.39
395.07	608.54
395.26	496.19
395.46	557.05
395.65	631.94
395.84	690.46
396.04	636.63
396.23	622.58
396.42	681.10
396.62	585.13
396.81	627.26
397.00	620.24
397.19	643.65
397.39	685.78
397.58	791.10
397.77	655.35
397.97	681.10
398.16	655.35
398.35	777.06
398.55	795.78
398.74	741.95
398.93	706.84
399.12	695.14
399.32	683.44
399.51	720.88
399.70	795.78
399.90	746.63
400.09	753.65
400.28	716.20
400.47	690.46
400.67	765.36
400.86	772.38
401.05	748.97
401.24	795.78
401.44	786.42
401.63	802.80
401.82	866.00
402.01	884.72
402.21	840.25
402.40	877.70
402.59	898.77
402.78	823.87
402.97	903.45
403.17	908.13
403.36	959.62
403.55	945.58
403.74	837.91
403.93	898.77
404.13	936.21
404.32	924.51
404.51	933.87
404.70	952.60
404.89	952.60
405.09	938.55
405.28	999.41
405.47	990.05
405.66	1011.11
405.85	933.87
406.05	903.45
406.24	938.55
406.43	1055.58
406.62	1095.37
406.81	1067.28
407.00	1025.15
407.20	968.98
407.39	1074.31
407.58	1097.71
407.77	1111.75
407.96	1043.88
408.15	1071.97
408.34	1074.31
408.54	1114.10
408.73	1179.63
408.92	1165.59
409.11	1041.54
409.30	1128.14
409.49	1111.75
409.68	1198.35
409.87	1076.65
410.07	1081.33
410.26	1071.97
410.45	1111.75
410.64	1165.59
410.83	1256.87
411.02	1210.06
411.21	1268.57
411.40	1306.02
411.59	1320.06
411.78	1191.33
411.98	1301.34
412.17	1317.72
412.36	1231.12
412.55	1284.95
412.74	1327.08
412.93	1313.04
413.12	1338.79
413.31	1364.53
413.50	1434.75
413.69	1441.77
413.88	1467.52
414.07	1551.78
414.26	1523.69
414.45	1476.88
414.64	1516.67
414.83	1593.90
415.02	1476.88
415.22	1516.67
415.41	1544.75
415.60	1540.07
415.79	1563.48
415.98	1596.25
416.17	1572.84
416.36	1790.51
416.55	1554.12
416.74	1708.59
416.93	1713.27
417.12	1607.95
417.31	1732.00
417.50	1692.21
417.69	1687.53
417.88	1682.85
418.07	1788.17
418.26	1832.64
418.45	1863.07
418.64	1778.81
418.83	1764.76
419.02	1722.63
419.21	1809.23
419.39	1823.28
419.58	1837.32
419.77	1825.62
419.96	1811.57
420.15	1940.30
420.34	1912.22
420.53	1853.70
420.72	1930.94
420.91	1902.86
421.10	1870.09
421.29	1860.73
421.48	1816.26
421.67	1895.83
421.86	1984.77
422.05	2050.31
422.24	1954.35
422.43	1919.24
422.61	1987.11
422.80	1998.82
422.99	2038.61
423.18	2026.90
423.37	2022.22
423.56	2038.61
423.75	2010.52
423.94	2019.88
424.13	1919.24
424.32	2022.22
424.50	2024.56
424.69	2125.21
424.88	2155.63
425.07	2029.24
425.26	2153.29
425.45	2031.58
425.64	2038.61
425.83	2118.18
426.01	2143.93
426.20	2122.87
426.39	2045.63
426.58	2015.20
426.77	2104.14
426.96	2036.27
427.15	2052.65
427.33	2101.80
427.52	2148.61
427.71	2097.12
427.90	2085.42
428.09	2256.28
428.28	2085.42
428.46	2190.74
428.65	2260.96
428.84	2279.68
429.03	2363.94
429.22	2253.94
429.40	2216.49
429.59	2326.49
429.78	2172.02
429.97	2190.74
430.16	2256.28
430.34	2228.19
430.53	2380.32
430.72	2382.67
430.91	2396.71
431.10	2314.79
431.28	2459.90
431.47	2406.07
431.66	2399.05
431.85	2340.54
432.03	2445.86
432.22	2518.42
432.41	2457.56
432.60	2450.54
432.79	2403.73
432.97	2546.50
433.16	2487.99
433.35	2417.77
433.54	2612.04
433.72	2551.18
433.91	2663.53
434.10	2504.37
434.28	2527.78
434.47	2663.53
434.66	2544.16
434.85	2642.46
435.03	2679.91
435.22	2675.23
435.41	2637.78
435.59	2644.81
435.78	2668.21
435.97	2616.72
436.16	2724.38
436.34	2733.75
436.53	2597.99
436.72	2867.16
436.90	2705.66
437.09	2630.76
437.28	2715.02
437.46	2654.17
437.65	2747.79
437.84	2815.66
438.02	2766.51
438.21	2808.64
438.40	2782.90
438.58	2909.29
438.77	2853.11
438.96	2864.82
439.14	3049.72
439.33	2904.60
439.52	2979.50
439.70	3089.51
439.89	3115.25
440.08	3068.44
440.26	3166.74
440.45	3012.27
440.63	3117.59
440.82	3178.45
441.01	3126.96
441.19	3183.13
441.38	3255.69
441.57	3229.94
441.75	3148.02
441.94	3265.05
442.12	3321.22
442.31	3386.76
442.50	3461.65
442.68	3370.37
442.87	3246.32
443.05	3375.05
443.24	3473.36
443.43	3412.50
443.61	3454.63
443.80	3442.93
443.98	3396.12
444.17	3384.41
444.35	3536.55
444.54	3449.95
444.73	3517.83
444.91	3351.65
445.10	3391.44
445.28	3501.44
445.47	3454.63
445.65	3426.54
445.84	3562.30
446.02	3534.21
446.21	3433.57
446.39	3508.46
446.58	3576.34
446.77	3581.02
446.95	3655.92
447.14	3632.51
447.32	3602.08
447.51	3471.01
447.69	3616.13
447.88	3651.24
448.06	3459.31
448.25	3599.74
448.43	3609.11
448.62	3599.74
448.80	3480.38
448.99	3543.57
449.17	3716.77
449.36	3602.08
449.54	3698.05
449.73	3765.92
449.91	3698.05
450.10	3817.41
450.28	3684.00
450.46	3735.50
450.65	3772.94
450.83	3740.18
451.02	3810.39
451.20	3686.34
451.39	3964.87
451.57	3873.59
451.76	3939.12
451.94	3873.59
452.13	4028.06
452.31	3873.59
452.49	3812.73
452.68	3960.19
452.86	3861.88
453.05	3941.46
453.23	4032.74
453.42	4002.32
453.60	3896.99
453.78	4018.70
453.97	3929.76
454.15	3901.67
454.34	3852.52
454.52	4002.32
454.70	3992.95
454.89	4093.60
455.07	4067.85
455.26	4086.58
455.44	4184.88
455.62	4102.96
455.81	4227.01
455.99	4231.69
456.17	4311.27
456.36	4337.01
456.54	4149.77
456.73	4166.15
456.91	4374.46
457.09	4264.46
457.28	4454.04
457.46	4208.28
457.64	4411.91
457.83	4507.87
458.01	4276.16
458.19	4290.20
458.38	4400.21
458.56	4470.42
458.74	4432.97
458.93	4442.34
459.11	4498.51
459.29	4477.44
459.48	4524.26
459.66	4547.66
459.84	4664.69
460.03	4751.29
460.21	4641.28
460.39	4603.83
460.57	4634.26
460.76	4594.47
460.94	4753.63
461.12	4674.05
461.31	4737.24
461.49	4554.68
461.67	4809.80
461.85	4716.18
462.04	4732.56
462.22	5130.45
462.40	4828.53
462.59	4814.48
462.77	4858.95
462.95	4931.51
463.13	4725.54
463.32	4786.40
463.50	4964.28
463.68	4807.46
463.86	4842.57
464.05	4954.91
464.23	4793.42
464.41	4915.12
464.59	4945.55
464.78	5195.99
464.96	4856.61
465.14	4975.98
465.32	5221.74
465.50	5275.57
465.69	5107.05
465.87	5050.88
466.05	4971.30
466.23	5018.11
466.41	5158.54
466.60	5219.39
466.78	5071.94
466.96	5172.58
467.14	5121.09
467.32	5254.50
467.51	5245.14
467.69	4968.96
467.87	5212.37
468.05	5238.12
468.23	5160.88
468.41	5195.99
468.60	5235.78
468.78	5376.21
468.96	5228.76
469.14	5455.79
469.32	5324.72
469.50	5357.49
469.69	5483.88
469.87	5523.66
470.05	5399.62
470.23	5570.48
470.41	5502.60
470.59	5486.22
470.77	5556.43
470.95	5465.15
471.14	5593.88
471.32	5434.72
471.50	5729.63
471.68	5561.11
471.86	5645.37
472.04	5593.88
472.22	5746.02
472.40	5687.50
472.58	5837.30
472.77	5799.85
472.95	5968.37
473.13	6061.99
473.31	5860.70
473.49	5851.34
473.67	5928.58
473.85	6008.16
474.03	5949.64
474.21	6099.44
474.39	6033.90
474.57	6244.55
474.75	6040.92
474.93	6251.57
475.12	6160.29
475.30	6361.58
475.48	6368.60
475.66	6473.92
475.84	6438.81
476.02	6422.43
476.20	6370.94
476.38	6586.27
476.56	6619.04
476.74	6686.91
476.92	6384.98
477.10	6541.80
477.28	6530.09
477.46	6675.21
477.64	6778.19
477.82	6939.69
478.00	7150.34
478.18	7126.93
478.36	7021.61
478.54	7094.16
478.72	7208.85
478.90	7155.02
479.08	7272.04
479.26	7335.24
479.44	7279.07
479.62	7431.20
479.80	7634.83
479.98	7672.28
480.16	7782.28
480.34	7737.81
480.52	7686.32
480.70	7686.32
480.88	7793.98
481.06	7903.99
481.24	7730.79
481.41	7925.05
481.59	8170.81
481.77	8081.87
481.95	8355.71
482.13	8257.41
482.31	8264.43
482.49	8313.58
482.67	8461.04
482.85	8468.06
483.03	8568.70
483.21	8514.87
483.39	8779.35
483.57	8624.87
483.74	8774.67
483.92	8945.53
484.10	8798.07
484.28	9109.36
484.46	9371.50
484.64	9132.77
484.82	9081.28
485.00	9329.38
485.18	9542.36
485.35	9591.52
485.53	9394.91
485.71	9577.47
485.89	9816.21
486.07	9722.59
486.25	9816.21
486.43	9827.91
486.61	9762.37
486.78	9987.07
486.96	10015.15
487.14	10218.78
487.32	10134.52
487.50	10408.36
487.68	10340.49
487.85	10389.64
488.03	10466.88
488.21	10841.36
488.39	11047.33
488.57	10740.72
488.75	10759.44
488.92	10883.49
489.10	11112.86
489.28	11180.74
489.46	11293.08
489.64	11248.61
489.81	11403.09
489.99	11365.64
490.17	11480.33
490.35	11805.66
490.53	11808.00
490.70	11719.06
490.88	11953.12
491.06	11929.71
491.24	11999.93
491.41	12088.87
491.59	12147.38
491.77	12023.33
491.95	12196.53
492.13	12421.22
492.30	12327.60
492.48	12280.79
492.66	12568.68
492.84	12636.55
493.01	12776.98
493.19	12751.24
493.37	13060.19
493.54	13209.98
493.72	13062.53
493.90	12985.29
494.08	13121.04
494.25	13324.67
494.43	13525.96
494.61	13748.31
494.79	13495.53
494.96	13661.71
495.14	13657.03
495.32	13837.25
495.49	13575.11
495.67	14003.43
495.85	14129.81
496.02	13813.84
496.20	14176.62
496.38	14284.29
496.55	14155.56
496.73	14134.50
496.91	14333.44
497.09	14707.93
497.26	14710.27
497.44	14604.94
497.62	14413.02
497.79	14785.16
497.97	14817.93
498.14	15000.49
498.32	15194.76
498.50	15056.67
498.67	15063.69
498.85	15232.21
499.03	15323.49
499.20	15468.60
499.38	15269.66
499.56	15349.23
499.73	15625.42
499.91	15419.45
500.08	15611.37
500.26	15515.41
500.44	15765.85
500.61	15719.04
500.79	15461.58
500.97	15683.93
501.14	15957.77
501.32	16051.39
501.49	16189.49
501.67	16079.48
501.84	16271.40
502.02	16355.66
502.20	16507.80
502.37	16479.71
502.55	16409.50
502.72	16496.10
502.90	16587.38
503.07	16666.95
503.25	16439.92
503.43	16659.93
503.60	16718.45
503.78	16828.45
503.95	16912.71
504.13	16910.37
504.30	16856.54
504.48	17165.49
504.65	17097.61
504.83	17287.20
505.01	17259.11
505.18	17303.58
505.36	17479.12
505.53	16950.16
505.71	17425.29
505.88	17324.65
506.06	17156.13
506.23	17635.94
506.41	17640.62
506.58	17774.03
506.76	17628.92
506.93	17561.04
507.11	17467.42
507.28	17909.78
507.46	17872.33
507.63	18146.17
507.81	18221.07
507.98	18043.19
508.16	18132.13
508.33	18246.82
508.50	17937.87
508.68	18382.57
508.85	18445.76
509.03	18445.76
509.20	18523.00
509.38	18726.63
509.55	18733.65
509.73	18537.04
509.90	18513.64
510.08	18633.00
510.25	18459.81
510.42	18874.08
510.60	18923.23
510.77	19353.89
510.95	19068.34
511.12	18974.72
511.30	18998.13
511.47	19176.01
511.64	19161.97
511.82	19073.03
511.99	19433.47
512.17	19360.91
512.34	19389.00
512.51	19197.07
512.69	19733.06
512.86	19499.00
513.04	19658.16
513.21	19946.05
513.38	19594.96
513.56	20030.30
513.73	19761.14
513.90	19992.86
514.08	19962.43
514.25	19988.18
514.43	19866.47
514.60	20196.48
514.77	20128.61
514.95	19908.60
515.12	20182.44
515.29	20030.30
515.47	20533.52
515.64	20470.33
515.81	20615.44
515.99	20538.20
516.16	20788.64
516.33	20629.48
516.51	20774.60
516.68	20751.19
516.85	20496.07
517.03	20732.47
517.20	20882.26
517.37	21128.02
517.54	21043.76
517.72	21055.46
517.89	20872.90
518.06	20814.38
518.24	20872.90
518.41	21018.01
518.58	21188.87
518.75	21188.87
518.93	21394.84
519.10	21238.02
519.27	21294.19
519.45	21174.83
519.62	21296.53
519.79	21341.00
519.96	21301.22
520.14	21434.63
520.31	21563.36
520.48	21757.62
520.65	21514.20
520.83	21867.63
521.00	22010.40
521.17	21748.26
521.34	21865.28
521.52	21965.93
521.69	21944.86
521.86	22153.17
522.03	22192.96
522.20	21998.70
522.38	22352.12
522.55	22017.42
522.72	21881.67
522.89	22230.41
523.07	22551.06
523.24	22513.61
523.41	22438.72
523.58	22017.42
523.75	22621.28
523.92	22441.06
524.10	22696.17
524.27	22654.05
524.44	22632.98
524.61	22838.95
524.78	22764.05
524.96	22822.56
525.13	22806.18
525.30	22829.59
525.47	22874.06
525.64	22799.16
525.81	23007.47
525.98	23295.35
526.16	23241.52
526.33	23396.00
526.50	23257.90
526.67	23264.92
526.84	23388.97
527.01	23351.52
527.18	23543.45
527.36	23426.42
527.53	23541.11
527.70	23915.59
527.87	23840.70
528.04	23513.02
528.21	23880.49
528.38	23513.02
528.55	23718.99
528.72	24119.22
528.89	24004.53
529.07	23903.89
529.24	23541.11
529.41	23910.91
529.58	23868.78
529.75	24126.24
529.92	24182.42
530.09	24112.20
530.26	23723.67
530.43	24542.86
530.60	24114.54
530.77	24217.52
530.94	24498.39
531.11	23908.57
531.28	24072.41
531.46	24386.04
531.63	24261.99
531.80	24432.85
531.97	24187.10
532.14	24762.87
532.31	24702.01
532.48	24587.33
532.65	24734.78
532.82	24376.68
532.99	24467.96
533.16	24636.48
533.33	24807.34
533.50	25013.31
533.67	24945.43
533.84	24587.33
534.01	24510.09
534.18	24748.82
534.35	24879.89
534.52	25050.75
534.69	25027.35
534.86	25411.20
535.03	25106.93
535.20	25315.23
535.37	25109.27
535.54	25312.89
535.71	25081.18
535.88	24802.66
536.05	25125.65
536.22	25603.12
536.38	25420.56
536.55	25481.41
536.72	25455.67
536.89	25348.00
537.06	25486.09
537.23	25860.58
537.40	25275.45
537.57	25371.41
537.74	25092.88
537.91	25757.60
538.08	25598.44
538.25	25895.69
538.42	25586.74
538.59	25776.32
538.75	25523.54
538.92	25453.33
539.09	26012.71
539.26	26111.02
539.43	26359.11
539.60	26228.04
539.77	26108.68
539.94	26586.15
540.11	26239.75
540.28	25883.98
540.44	26054.84
540.61	25930.80
540.78	26185.91
540.95	26272.51
541.12	25996.33
541.29	26045.48
541.46	25902.71
541.62	26204.64
541.79	26270.17
541.96	25944.84
542.13	26326.35
542.30	26607.21
542.47	26686.79
542.63	26476.14
542.80	26881.05
542.97	26845.94
543.14	26635.30
543.31	26621.25
543.48	26717.22
543.64	27070.64
543.81	26972.33
543.98	27433.42
544.15	26988.72
544.32	27033.19
544.48	27470.87
544.65	27136.17
544.82	27096.38
544.99	26913.82
545.16	27147.87
545.32	27124.47
545.49	27208.73
545.66	27433.42
545.83	27381.93
546.00	27257.88
546.16	27248.52
546.33	27197.02
546.50	26899.78
546.67	27550.45
546.83	27260.22
547.00	27491.93
547.17	27461.51
547.34	27384.27
547.50	27679.18
547.67	27655.77
547.84	27557.47
548.00	27611.30
548.17	27353.84
548.34	27353.84
548.51	27835.99
548.67	27770.46
548.84	27828.97
549.01	27964.72
549.18	28100.47
549.34	27833.65
549.51	28002.17
549.68	27466.19
549.84	27646.41
550.01	27473.21
550.18	27749.39
550.34	28093.45
550.51	28027.92
550.68	27967.06
550.84	27861.74
551.01	27751.73
551.18	28226.86
551.34	27850.03
551.51	28280.69
551.68	28409.42
551.84	27896.85
552.01	28353.25
552.18	28446.87
552.34	28313.46
552.51	28463.25
552.68	28268.99
552.84	28276.01
553.01	28402.40
553.18	28395.38
553.34	28329.84
553.51	28336.87
553.67	28397.72
553.84	28716.03
554.01	28945.41
554.17	28704.33
554.34	28809.65
554.51	28650.50
554.67	28608.37
554.84	28868.17
555.00	28692.63
555.17	29050.73
555.33	28739.44
555.50	28797.95
555.67	28460.91
555.83	28814.34
556.00	28961.79
556.16	29390.11
556.33	28723.05
556.50	28884.55
556.66	29062.43
556.83	28687.95
556.99	29069.45
557.16	29317.55
557.32	29305.85
557.49	29139.67
557.65	28669.22
557.82	28657.52
557.98	28989.88
558.15	29024.98
558.32	29216.91
558.48	29326.91
558.65	29338.62
558.81	29500.11
558.98	29235.63
559.14	29483.73
559.31	28898.59
559.47	29275.42
559.64	29125.63
559.80	29223.93
559.97	29530.54
560.13	29177.12
560.30	29369.04
560.46	29284.78
560.63	29741.19
560.79	29235.63
560.96	29352.66
561.12	29041.37
561.29	29511.81
561.45	29582.03
561.61	29280.10
561.78	29371.38
561.94	29628.84
562.11	29549.26
562.27	29343.30
562.44	29462.66
562.60	29347.98
562.77	29521.18
562.93	30143.76
563.10	29446.28
563.26	29544.58
563.42	30029.07
563.59	29635.86
563.75	29359.68
563.92	29823.11
564.08	29317.55
564.24	29820.77
564.41	29603.10
564.57	29890.98
564.74	29493.09
564.90	29701.40
565.07	29783.32
565.23	30073.54
565.39	29647.57
565.56	29991.62
565.72	29949.50
565.88	29502.45
566.05	29577.35
566.21	29790.34
566.38	29680.33
566.54	29792.68
566.70	29799.70
566.87	30284.19
567.03	30157.80
567.19	30190.57
567.36	30347.39
567.52	29909.71
567.68	30010.35
567.85	30029.07
568.01	29881.62
568.17	29626.50
568.34	30295.89
568.50	29958.86
568.66	30040.78
568.83	30082.91
568.99	29757.57
569.15	30127.38
569.32	30057.16
569.48	30148.44
569.64	30157.80
569.81	30225.68
569.97	30132.06
570.13	30190.57
570.30	30520.59
570.46	30352.07
570.62	30031.41
570.78	30230.36
570.95	30698.47
571.11	30249.08
571.27	29827.79
571.43	30092.27
571.60	29902.68
571.76	30164.82
571.92	30445.69
572.09	30349.73
572.25	30340.36
572.41	30623.57
572.57	29984.60
572.74	30366.11
572.90	30199.93
573.06	30359.09
573.22	29942.47
573.38	30052.48
573.55	30022.05
573.71	30438.67
573.87	30253.76
574.03	30132.06
574.20	30338.02
574.36	30146.10
574.52	30139.08
574.68	30333.34
574.84	30363.77
575.01	30323.98
575.17	30628.25
575.33	30583.78
575.49	30213.98
575.65	30590.80
575.82	30522.93
575.98	30562.72
576.14	30101.63
576.30	30349.73
576.46	30223.34
576.62	30232.70
576.79	30520.59
576.95	30064.18
577.11	30529.95
577.27	30668.04
577.43	30150.78
577.59	30291.21
577.75	30415.26
577.92	30478.46
578.08	30176.53
578.24	30232.70
578.40	30352.07
578.56	30506.54
578.72	30555.69
578.88	30511.22
579.04	30773.36
579.21	30506.54
579.37	30515.90
579.53	30782.73
579.69	30356.75
579.85	30064.18
580.01	30675.06
580.17	30302.92
580.33	30373.13
580.49	30455.05
580.65	30874.01
580.82	30270.15
580.98	30630.59
581.14	30574.42
581.30	30492.50
581.46	30125.04
581.62	30279.51
581.78	30253.76
581.94	30309.94
582.10	30195.25
582.26	30501.86
582.42	30125.04
582.58	30150.78
582.74	30766.34
582.90	30515.90
583.06	30721.87
583.22	30859.96
583.38	30274.83
583.54	30752.30
583.70	30558.03
583.86	30663.36
584.02	30244.40
584.18	30569.74
584.34	30726.55
584.50	31047.21
584.66	30698.47
584.82	30356.75
584.98	30871.67
585.14	30380.15
585.30	30476.12
585.46	30824.86
585.62	30335.68
585.78	30520.59
585.94	30691.44
586.10	30668.04
586.26	30808.47
586.42	30759.32
586.58	31007.42
586.74	30717.19
586.90	30328.66
587.06	30527.61
587.22	30925.50
587.38	30787.41
587.54	30967.63
587.70	31253.17
587.86	30761.66
588.02	30939.54
588.18	30756.98
588.34	30735.92
588.49	30707.83
588.65	31056.57
588.81	30675.06
588.97	30979.33
589.13	30462.07
589.29	30831.88
589.45	30665.70
589.61	31590.21
589.77	31187.64
589.93	31007.42
590.08	31173.60
590.24	30749.96
590.40	30962.95
590.56	30883.37
590.72	31098.70
590.88	30838.90
591.04	31154.87
591.20	31180.62
591.35	30932.52
591.51	31377.22
591.67	30918.48
591.83	31215.72
591.99	31126.78
592.15	31049.55
592.31	31189.98
592.46	30848.26
592.62	31035.50
592.78	30916.14
592.94	31042.53
593.10	31152.53
593.26	31159.55
593.41	31094.02
593.57	31105.72
593.73	30918.48
593.89	31524.68
594.05	31438.08
594.20	31185.30
594.36	30911.46
594.52	31166.57
594.68	30927.84
594.84	30742.94
594.99	31440.42
595.15	31175.94
595.31	31519.99
595.47	31419.35
595.62	31236.79
595.78	31182.96
595.94	31173.60
596.10	30859.96
596.25	30904.43
596.41	31154.87
596.57	30820.17
596.73	31276.58
596.88	31197.00
597.04	31098.70
597.20	31367.86
597.36	31491.91
597.51	31627.66
597.67	31021.46
597.83	31009.76
597.99	31234.45
598.14	30871.67
598.30	31058.91
598.46	31054.23
598.61	31304.67
598.77	30958.27
598.93	31168.91
599.09	30955.93
599.24	32037.25
599.40	31424.03
599.56	31538.72
599.71	31264.88
599.87	31154.87
600.03	31112.74
600.18	31089.34
600.34	31180.62
600.50	31026.14
600.65	31274.24
600.81	31552.76
600.97	31330.41
601.12	31419.35
601.28	31545.74
601.44	31679.15
601.59	31328.07
601.75	31344.45
601.91	31253.17
602.06	31150.19
602.22	31304.67
602.37	31112.74
602.53	31339.77
602.69	31527.02
602.84	31253.17
603.00	31711.92
603.16	31356.16
603.31	31625.32
603.47	31407.65
603.62	30827.20
603.78	31316.37
603.94	31227.43
604.09	31332.75
604.25	31381.90
604.40	31185.30
604.56	31557.44
604.71	31421.69
604.87	31459.14
605.03	31417.01
605.18	31587.87
605.34	31218.07
605.49	31356.16
605.65	31426.37
605.80	30768.68
605.96	30766.34
606.12	31047.21
606.27	31728.30
606.43	30885.71
606.58	31325.73
606.74	31311.69
606.89	31285.94
607.05	31353.82
607.20	31461.48
607.36	31061.25
607.51	31660.43
607.67	31126.78
607.82	30878.69
607.98	30991.03
608.13	31063.59
608.29	30951.24
608.44	31438.08
608.60	31084.65
608.75	31257.85
608.91	30960.61
609.06	31061.25
609.22	30946.56
609.37	30967.63
609.53	31070.61
609.68	30749.96
609.84	31072.95
609.99	30707.83
610.15	30733.57
610.30	31019.12
610.46	31138.49
610.61	30850.60
610.76	30850.60
610.92	31047.21
611.07	31035.50
611.23	31084.65
611.38	30754.64
611.54	30494.84
611.69	30515.90
611.84	31007.42
612.00	30621.23
612.15	30649.32
612.31	30998.06
612.46	30586.12
612.62	30939.54
612.77	30864.64
612.92	30897.41
613.08	30717.19
613.23	30824.86
613.39	30567.40
613.54	30728.89
613.69	30668.04
613.85	30513.56
614.00	30494.84
614.15	30897.41
614.31	30410.58
614.46	30356.75
614.62	30471.43
614.77	30452.71
614.92	30721.87
615.08	30698.47
615.23	30646.97
615.38	30771.02
615.54	30073.54
615.69	30689.10
615.84	30443.35
616.00	30944.22
616.15	30520.59
616.30	30920.82
616.46	31009.76
616.61	30176.53
616.76	30426.96
616.92	30417.60
617.07	30572.08
617.22	30408.24
617.37	29895.66
617.53	30813.15
617.68	30094.61
617.83	30148.44
617.99	30213.98
618.14	30384.83
618.29	30195.25
618.45	30328.66
618.60	30618.89
618.75	30361.43
618.90	30279.51
619.06	30326.32
619.21	30471.43
619.36	30525.27
619.51	30099.29
619.67	29926.09
619.82	29799.70
619.97	30073.54
620.12	30057.16
620.28	29802.04
620.43	30164.82
620.58	30490.16
620.73	30244.40
620.89	30424.62
621.04	30415.26
621.19	30235.04
621.34	30274.83
621.49	29806.72
621.65	29876.94
621.80	29886.30
621.95	29727.14
622.10	30000.99
622.25	30188.23
622.41	29858.21
622.56	29869.92
622.71	29989.28
622.86	29926.09
623.01	30082.91
623.16	29895.66
623.32	29558.63
623.47	29769.27
623.62	29685.01
623.77	29876.94
623.92	29731.83
624.07	29766.93
624.23	29404.15
624.38	29872.26
624.53	29486.07
624.68	30225.68
624.83	29982.26
624.98	30103.97
625.13	29827.79
625.29	29788.00
625.44	29888.64
625.59	29720.12
625.74	29401.81
625.89	29523.52
626.04	29413.51
626.19	29312.87
626.34	29207.55
626.49	29317.55
626.65	29212.23
626.80	29434.58
626.95	29635.86
627.10	29673.31
627.25	29200.52
627.40	29415.85
627.55	29221.59
627.70	29053.07
627.85	28940.72
628.00	29298.83
628.15	28830.72
628.30	29069.45
628.45	29170.10
628.60	29207.55
628.76	29315.21
628.91	29158.39
629.06	29067.11
629.21	29436.92
629.36	29254.36
629.51	28926.68
629.66	28732.42
629.81	28790.93
629.96	28713.69
630.11	28907.96
630.26	28694.97
630.41	28851.78
630.56	29067.11
630.71	29032.00
630.86	28599.01
631.01	28739.44
631.16	28966.47
631.31	28601.35
631.46	28196.43
631.61	29191.16
631.76	28875.19
631.91	28662.20
632.06	28842.42
632.21	29001.58
632.36	28329.84
632.51	28442.19
632.66	28484.32
632.81	28514.75
632.96	28868.17
633.10	28720.71
633.25	29198.18
633.40	28847.10
633.55	28690.29
633.70	28563.90
633.85	28496.02
634.00	28442.19
634.15	28266.65
634.30	28706.67
634.45	28449.21
634.60	28652.84
634.75	28306.44
634.90	28374.31
635.05	28411.76
635.19	28500.70
635.34	28657.52
635.49	28692.63
635.64	28730.08
635.79	28526.45
635.94	28545.17
636.09	28465.60
636.24	28343.89
636.39	28009.19
636.53	28091.11
636.68	28208.14
636.83	28517.09
636.98	28268.99
637.13	28020.89
637.28	28690.29
637.43	28383.68
637.57	28517.09
637.72	28044.30
637.87	28070.04
638.02	27843.01
638.17	27857.06
638.32	28315.80
638.46	27812.59
638.61	27681.52
638.76	27569.17
638.91	27828.97
639.06	27941.32
639.20	27992.81
639.35	28032.60
639.50	27931.95
639.65	28060.68
639.80	28266.65
639.94	28140.26
640.09	28142.60
640.24	27960.04
640.39	27957.70
640.54	27592.58
640.68	27637.05
640.83	27683.86
640.98	27992.81
641.13	27402.99
641.27	27990.47
641.42	27868.76
641.57	27892.16
641.72	27868.76
641.86	27496.61
642.01	27611.30
642.16	27466.19
642.31	27353.84
642.45	27428.74
642.60	27370.22
642.75	27484.91
642.90	27288.31
643.04	27098.72
643.19	27218.09
643.34	27571.51
643.48	27316.39
643.63	27494.27
643.78	27527.04
643.93	27667.47
644.07	27398.31
644.22	27601.94
644.37	27154.90
644.51	27410.01
644.66	27264.90
644.81	26939.57
644.95	27030.85
645.10	27292.99
645.25	27166.60
645.39	27597.26
645.54	27466.19
645.69	27480.23
645.83	27407.67
645.98	27063.61
646.13	27491.93
646.27	27072.98
646.42	27468.53
646.57	27194.68
646.71	26967.65
646.86	27005.10
647.00	26806.16
647.15	26836.58
647.30	26953.61
647.44	26962.97
647.59	27070.64
647.74	26941.91
647.88	27087.02
648.03	27105.74
648.17	27227.45
648.32	27136.17
648.47	27204.05
648.61	26946.59
648.76	27084.68
648.90	26871.69
649.05	26960.63
649.20	26895.10
649.34	26700.83
649.49	26710.19
649.63	26588.49
649.78	26501.89
649.92	26775.73
650.07	26986.38
650.21	26801.47
650.36	26719.56
650.51	26698.49
650.65	26969.99
650.80	26661.04
650.94	26752.32
651.09	26536.99
651.23	26216.34
651.38	26625.93
651.52	26761.69
651.67	26705.51
651.81	26195.28
651.96	26380.18
652.10	26251.45
652.25	26452.73
652.39	26359.11
652.54	26630.62
652.68	26363.79
652.83	26389.54
652.97	26906.80
653.12	26663.38
653.26	26417.63
653.41	26536.99
653.55	26073.57
653.70	26050.16
653.84	26469.12
653.99	26328.69
654.13	26157.83
654.27	26309.96
654.42	26043.14
654.56	26221.02
654.71	26759.34
654.85	26256.13
655.00	26246.77
655.14	26022.08
655.29	26047.82
655.43	26050.16
655.57	26005.69
655.72	25802.07
655.86	26122.72
656.01	25982.29
656.15	25977.61
656.30	25926.11
656.44	25970.58
656.58	25860.58
656.73	25881.64
656.87	26059.52
657.01	25991.65
657.16	26178.89
657.30	26288.90
657.45	26026.76
657.59	26155.49
657.73	25762.28
657.88	25776.32
658.02	25797.38
658.16	25420.56
658.31	25546.95
658.45	25951.86
658.60	25458.01
658.74	25869.94
658.88	25785.68
659.03	25518.86
659.17	25591.42
659.31	25710.78
659.46	25752.91
659.60	25851.22
659.74	25495.46
659.89	25443.96
660.03	25425.24
660.17	25771.64
660.32	25252.04
660.46	24938.41
660.60	25280.13
660.74	25322.26
660.89	25167.78
661.03	25439.28
661.17	25081.18
661.32	25579.71
661.46	25270.76
661.60	25263.74
661.74	24936.07
661.89	25493.12
662.03	25319.92
662.17	24940.75
662.31	24903.30
662.46	24814.36
662.60	24439.87
662.74	24877.55
662.88	24704.35
663.03	24648.18
663.17	24652.86
663.31	24662.22
663.45	24709.04
663.60	24350.93
663.74	24409.45
663.88	24599.03
664.02	24486.68
664.17	24683.29
664.31	24437.53
664.45	24203.48
664.59	24411.79
664.73	24372.00
664.88	24315.83
665.02	24051.34
665.16	24196.46
665.30	24212.84
665.44	24123.90
665.59	24023.26
665.73	23981.13
665.87	23866.44
666.01	24219.86
666.15	24266.67
666.29	23946.02
666.44	24013.90
666.58	23845.38
666.72	24067.73
666.86	24046.66
667.00	24091.13
667.14	23770.48
667.28	24009.22
667.43	23805.59
667.57	23831.33
667.71	23630.05
667.85	23702.61
667.99	23290.67
668.13	23370.25
668.27	23564.51
668.41	23665.16
668.56	23105.77
668.70	23744.73
668.84	23620.69
668.98	23269.61
669.12	23204.07
669.26	23824.31
669.40	23431.10
669.54	23208.75
669.68	23152.58
669.82	23056.62
669.96	22728.94
670.10	23058.96
670.25	23229.82
670.39	22944.27
670.53	22831.93
670.67	22721.92
670.81	23021.51
670.95	22944.27
671.09	23126.83
671.23	22953.63
671.37	22836.61
671.51	23194.71
671.65	22981.72
671.79	22544.04
671.93	22642.34
672.07	22520.63
672.21	22651.70
672.35	22286.58
672.49	22284.24
672.63	22394.25
672.77	22443.40
672.91	22405.95
673.05	22235.09
673.19	22377.86
673.33	22115.72
673.47	22153.17
673.61	22153.17
673.75	22085.30
673.89	21776.34
674.03	22022.10
674.17	21963.59
674.31	21762.30
674.45	21935.50
674.59	22052.53
674.73	21830.18
674.87	22082.95
675.01	21818.47
675.15	21741.24
675.29	21638.25
675.43	21497.82
675.56	21252.06
675.70	21565.70
675.84	21582.08
675.98	21123.33
676.12	21242.70
676.26	21338.66
676.40	21434.63
676.54	21205.25
676.68	21209.93
676.82	21015.67
676.96	21099.93
677.10	20987.58
677.23	20730.12
677.37	20732.47
677.51	20868.22
677.65	21071.84
677.79	20493.73
677.93	20800.34
678.07	20580.33
678.21	20322.87
678.34	20449.26
678.48	20238.61
678.62	20453.94
678.76	20088.82
678.90	20315.85
679.04	19887.53
679.18	20147.33
679.31	19948.39
679.45	20065.41
679.59	19314.10
679.73	19756.46
679.87	19761.14
680.00	19702.63
680.14	19831.36
680.28	19831.36
680.42	19740.08
680.56	19541.13
680.70	19396.02
680.83	19538.79
680.97	19461.55
681.11	19396.02
681.25	19150.26
681.39	19634.75
681.52	19360.91
681.66	19124.52
681.80	19033.24
681.94	18698.54
682.07	18984.09
682.21	18710.24
682.35	18675.13
682.49	18614.28
682.62	18869.40
682.76	18558.11
682.90	18843.65
683.04	18682.16
683.17	18515.98
683.31	18436.40
683.45	18595.56
683.59	18689.18
683.72	18295.97
683.86	18202.35
684.00	18354.48
684.13	18307.67
684.27	18094.68
684.41	17858.29
684.55	17886.37
684.68	17624.23
684.82	17853.61
684.96	17624.23
685.09	17696.79
685.23	17572.74
685.37	17633.60
685.50	17722.54
685.64	17624.23
685.78	17657.00
685.91	17549.34
686.05	17427.63
686.19	17310.60
686.32	17095.27
686.46	17198.26
686.60	16816.75
686.73	17076.55
686.87	17137.40
687.01	16952.50
687.14	16791.00
687.28	16940.80
687.42	16638.87
687.55	16779.30
687.69	16762.92
687.82	16505.46
687.96	16594.40
688.10	16620.14
688.23	16622.48
688.37	16585.04
688.50	16332.26
688.64	16463.33
688.78	16233.96
688.91	16168.42
689.05	16168.42
689.18	15967.13
689.32	15756.49
689.46	15796.28
689.59	15829.04
689.73	15887.56
689.86	15901.60
690.00	15789.25
690.13	15791.59
690.27	15786.91
690.41	15709.68
690.54	15646.48
690.68	15398.38
690.81	15393.70
690.95	15829.04
691.08	15552.86
691.22	15370.30
691.35	15562.22
691.49	15328.17
691.62	15082.41
691.76	14951.34
691.89	14846.02
692.03	15094.11
692.16	14817.93
692.30	15035.60
692.43	14672.82
692.57	14703.25
692.70	14792.19
692.84	14565.15
692.97	14513.66
693.11	14410.68
693.24	14438.76
693.38	14286.63
693.51	14516.00
693.65	14459.83
693.78	14403.66
693.92	14225.78
694.05	14277.27
694.19	13994.06
694.32	14129.81
694.45	13792.78
694.59	13886.40
694.72	13834.91
694.86	13724.90
694.99	13827.88
695.13	13497.87
695.26	13722.56
695.39	13427.65
695.53	13624.26
695.66	13558.72
695.80	13474.46
695.93	13525.96
696.07	13397.23
696.20	13453.40
696.33	13490.85
696.47	13132.75
696.60	13329.35
696.73	13209.98
696.87	13144.45
697.00	12781.67
697.14	12709.11
697.27	12706.77
697.40	12812.09
697.54	12547.61
697.67	12751.24
697.80	12769.96
697.94	12435.27
698.07	12332.28
698.21	12678.68
698.34	12461.01
698.47	12505.48
698.61	12170.79
698.74	12470.37
698.87	12533.57
699.01	12070.14
699.14	12297.17
699.27	12346.33
699.40	12166.10
699.54	11920.35
699.67	11751.83
699.80	11873.54
699.94	11805.66
700.07	11791.62
700.20	11609.06
700.34	11580.97
700.47	11882.90
700.60	11709.70
700.73	11800.98
700.87	11602.04
701.00	11335.21
701.13	11590.33
701.26	11475.65
701.40	11576.29
701.53	11407.77
701.66	11590.33
701.79	11180.74
701.93	11246.27
702.06	10977.11
702.19	11012.22
702.32	10942.00
702.46	10965.41
702.59	10874.13
702.72	10860.09
702.85	10759.44
702.99	10651.78
703.12	10567.52
703.25	10509.01
703.38	10738.38
703.51	10597.95
703.65	10429.43
703.78	10569.86
703.91	10523.05
704.04	10431.77
704.17	10373.25
704.31	10525.39
704.44	10422.41
704.57	10338.15
704.70	10216.44
704.83	10333.47
704.96	10026.86
705.10	9923.87
705.23	9977.70
>>>>>End Processed Spectral Data<<<<<
