SpectraSuite Data File
++++++++++++++++++++++++++++++++++++
Date: Fri Oct 18 13:58:06 GMT-05:00 2013
User: bianchi
Dark Spectrum Present: No
Reference Spectrum Present: No
Number of Sampled Component Spectra: 1
Spectrometers: USB2+H05261
Integration Time (usec): 50000 (USB2+H05261)
Spectra Averaged: 1 (USB2+H05261)
Boxcar Smoothing: 0 (USB2+H05261)
Correct for Electrical Dark: No (USB2+H05261)
Strobe/Lamp Enabled: No (USB2+H05261)
Correct for Detector Non-linearity: No (USB2+H05261)
Correct for Stray Light: No (USB2+H05261)
Number of Pixels in Processed Spectrum: 2048
>>>>>Begin Processed Spectral Data<<<<<
365.73	0.00
365.92	0.00
366.12	0.00
366.32	0.00
366.52	0.00
366.72	0.00
366.91	0.00
367.11	0.00
367.31	0.00
367.51	0.00
367.70	0.00
367.90	0.00
368.10	0.00
368.30	0.00
368.49	0.00
368.69	0.00
368.89	0.00
369.09	0.00
369.28	0.00
369.48	0.00
369.68	0.00
369.87	0.00
370.07	0.00
370.27	0.00
370.47	0.00
370.66	44.47
370.86	131.07
371.06	182.56
371.25	180.22
371.45	194.26
371.65	215.33
371.84	175.54
372.04	180.22
372.24	187.24
372.44	168.52
372.63	168.52
372.83	184.90
373.03	159.16
373.22	264.48
373.42	161.50
373.62	278.52
373.81	220.01
374.01	241.08
374.21	299.59
374.40	224.69
374.60	184.90
374.79	145.11
374.99	203.63
375.19	201.29
375.38	266.82
375.58	262.14
375.78	332.36
375.97	208.31
376.17	278.52
376.37	234.05
376.56	325.33
376.76	201.29
376.95	308.95
377.15	280.86
377.35	322.99
377.54	231.71
377.74	271.50
377.93	287.89
378.13	215.33
378.33	297.25
378.52	290.23
378.72	355.76
378.91	259.80
379.11	351.08
379.31	290.23
379.50	346.40
379.70	339.38
379.89	308.95
380.09	313.63
380.28	304.27
380.48	341.72
380.68	266.82
380.87	320.65
381.07	236.39
381.26	348.74
381.46	334.70
381.65	365.12
381.85	365.12
382.04	348.74
382.24	360.44
382.43	386.19
382.63	318.31
382.83	355.76
383.02	379.17
383.22	437.68
383.41	339.38
383.61	409.59
383.80	390.87
384.00	360.44
384.19	367.46
384.39	456.40
384.58	390.87
384.78	395.55
384.97	433.00
385.17	327.68
385.36	440.02
385.56	458.74
385.75	393.21
385.95	430.66
386.14	306.61
386.34	397.89
386.53	402.57
386.72	428.32
386.92	496.19
387.11	514.92
387.31	484.49
387.50	479.81
387.70	435.34
387.89	456.40
388.09	433.00
388.28	463.43
388.48	449.38
388.67	416.62
388.86	428.32
389.06	543.00
389.25	500.87
389.45	514.92
389.64	582.79
389.84	531.30
390.03	447.04
390.22	498.53
390.42	528.96
390.61	447.04
390.81	503.22
391.00	545.34
391.19	496.19
391.39	472.79
391.58	554.71
391.78	517.26
391.97	521.94
392.16	524.28
392.36	582.79
392.55	528.96
392.75	550.03
392.94	547.69
393.13	554.71
393.33	538.32
393.52	547.69
393.71	603.86
393.91	554.71
394.10	615.56
394.29	589.82
394.49	526.62
394.68	564.07
394.88	636.63
395.07	648.33
395.26	582.79
395.46	653.01
395.65	641.31
395.84	634.29
396.04	695.14
396.23	695.14
396.42	627.26
396.62	580.45
396.81	748.97
397.00	594.50
397.19	638.97
397.39	648.33
397.58	727.91
397.77	573.43
397.97	685.78
398.16	636.63
398.35	732.59
398.55	723.23
398.74	760.67
398.93	788.76
399.12	716.20
399.32	617.90
399.51	795.78
399.70	734.93
399.90	741.95
400.09	805.14
400.28	746.63
400.47	777.06
400.67	809.83
400.86	711.52
401.05	779.40
401.24	809.83
401.44	868.34
401.63	868.34
401.82	858.98
402.01	763.01
402.21	748.97
402.40	858.98
402.59	786.42
402.78	875.36
402.97	856.64
403.17	945.58
403.36	926.85
403.55	968.98
403.74	884.72
403.93	1006.43
404.13	987.71
404.32	891.74
404.51	966.64
404.70	957.28
404.89	926.85
405.09	954.94
405.28	929.19
405.47	905.79
405.66	1006.43
405.85	961.96
406.05	917.49
406.24	1078.99
406.43	1011.11
406.62	950.26
406.81	1053.24
407.00	1053.24
407.20	1015.79
407.39	1006.43
407.58	1095.37
407.77	999.41
407.96	1048.56
408.15	1114.10
408.34	1160.91
408.54	1149.20
408.73	1203.04
408.92	1022.81
409.11	1062.60
409.30	1212.40
409.49	1233.46
409.68	1125.80
409.87	1210.06
410.07	1261.55
410.26	1217.08
410.45	1287.29
410.64	1226.44
410.83	1261.55
411.02	1210.06
411.21	1291.98
411.40	1378.58
411.59	1387.94
411.78	1289.64
411.98	1282.61
412.17	1277.93
412.36	1336.45
412.55	1423.05
412.74	1338.79
412.93	1392.62
413.12	1350.49
413.31	1458.15
413.50	1404.32
413.69	1409.00
413.88	1481.56
414.07	1343.47
414.26	1460.49
414.45	1483.90
414.64	1507.30
414.83	1603.27
415.02	1544.75
415.22	1621.99
415.41	1671.14
415.60	1542.41
415.79	1647.74
415.98	1591.56
416.17	1603.27
416.36	1621.99
416.55	1619.65
416.74	1652.42
416.93	1561.14
417.12	1732.00
417.31	1638.38
417.50	1706.25
417.69	1776.47
417.88	1774.13
418.07	1788.17
418.26	1748.38
418.45	1851.36
418.64	1898.17
418.83	1886.47
419.02	1834.98
419.21	1785.83
419.39	1825.62
419.58	1865.41
419.77	1816.26
419.96	1870.09
420.15	1874.77
420.34	1860.73
420.53	1912.22
420.72	1921.58
420.91	1872.43
421.10	1909.88
421.29	1980.09
421.48	1963.71
421.67	1998.82
421.86	1942.64
422.05	2111.16
422.24	1966.05
422.43	1961.37
422.61	1961.37
422.80	2062.01
422.99	2087.76
423.18	1884.13
423.37	2099.46
423.56	2141.59
423.75	2050.31
423.94	1930.94
424.13	1888.81
424.32	1933.28
424.50	2015.20
424.69	2005.84
424.88	2043.29
425.07	2132.23
425.26	2026.90
425.45	2066.69
425.64	1961.37
425.83	2026.90
426.01	2141.59
426.20	2118.18
426.39	2265.64
426.58	2097.12
426.77	2129.89
426.96	2162.66
427.15	2267.98
427.33	2085.42
427.52	2101.80
427.71	2174.36
427.90	2153.29
428.09	2174.36
428.28	2242.23
428.46	2200.10
428.65	2120.53
428.84	2298.41
429.03	2303.09
429.22	2275.00
429.40	2260.96
429.59	2265.64
429.78	2139.25
429.97	2249.25
430.16	2340.54
430.34	2242.23
430.53	2413.09
430.72	2216.49
430.91	2375.64
431.10	2429.48
431.28	2328.83
431.47	2354.58
431.66	2490.33
431.85	2441.18
432.03	2399.05
432.22	2382.67
432.41	2455.22
432.60	2530.12
432.79	2518.42
432.97	2487.99
433.16	2551.18
433.35	2504.37
433.54	2651.83
433.72	2520.76
433.91	2527.78
434.10	2619.06
434.28	2403.73
434.47	2670.55
434.66	2679.91
434.85	2782.90
435.03	2504.37
435.22	2612.04
435.41	2654.17
435.59	2607.36
435.78	2698.64
435.97	2684.59
436.16	2637.78
436.34	2628.42
436.53	2686.94
436.72	2761.83
436.90	2801.62
437.09	2850.77
437.28	2684.59
437.46	2738.43
437.65	2761.83
437.84	2743.11
438.02	2759.49
438.21	2867.16
438.40	2974.82
438.58	2853.11
438.77	2939.71
438.96	2993.55
439.14	2977.16
439.33	3089.51
439.52	3016.95
439.70	2972.48
439.89	3042.70
440.08	3164.40
440.26	3110.57
440.45	2988.86
440.63	3110.57
440.82	3220.58
441.01	3274.41
441.19	3133.98
441.38	3171.43
441.57	3293.13
441.75	3356.33
441.94	3248.66
442.12	3290.79
442.31	3466.33
442.50	3295.47
442.68	3344.63
442.87	3421.86
443.05	3386.76
443.24	3468.67
443.43	3396.12
443.61	3379.73
443.80	3611.45
443.98	3389.10
444.17	3314.20
444.35	3501.44
444.54	3623.15
444.73	3435.91
444.91	3543.57
445.10	3471.01
445.28	3405.48
445.47	3417.18
445.65	3536.55
445.84	3304.84
446.02	3508.46
446.21	3559.95
446.39	3496.76
446.58	3576.34
446.77	3545.91
446.95	3534.21
447.14	3452.29
447.32	3506.12
447.51	3602.08
447.69	3566.98
447.88	3517.83
448.06	3599.74
448.25	3630.17
448.43	3543.57
448.62	3676.98
448.80	3613.79
448.99	3716.77
449.17	3618.47
449.36	3639.53
449.54	3719.11
449.73	3761.24
449.91	3782.31
450.10	3770.60
450.28	3695.71
450.46	3623.15
450.65	3775.28
450.83	3695.71
451.02	3801.03
451.20	3803.37
451.39	3892.31
451.57	3829.12
451.76	3805.71
451.94	3920.40
452.13	4053.81
452.31	3967.21
452.49	3791.67
452.68	3971.89
452.86	3861.88
453.05	4067.85
453.23	3992.95
453.42	3873.59
453.60	3901.67
453.78	4007.00
453.97	3913.38
454.15	3934.44
454.34	4009.34
454.52	4163.81
454.70	4100.62
454.89	4077.21
455.07	4070.19
455.26	4084.23
455.44	4173.18
455.62	4102.96
455.81	4198.92
455.99	4273.82
456.17	4177.86
456.36	4266.80
456.54	4311.27
456.73	4285.52
456.91	4489.15
457.09	4248.07
457.28	4479.79
457.46	4358.08
457.64	4451.70
457.83	4631.92
458.01	4395.53
458.19	4362.76
458.38	4400.21
458.56	4521.92
458.74	4496.17
458.93	4430.63
459.11	4512.55
459.29	4538.30
459.48	4512.55
459.66	4596.81
459.84	4713.84
460.03	4603.83
460.21	4571.07
460.39	4650.64
460.57	4610.86
460.76	4627.24
460.94	4690.43
461.12	4596.81
461.31	4802.78
461.49	4564.04
461.67	4828.53
461.85	4702.14
462.04	4795.76
462.22	5083.64
462.40	5081.30
462.59	4830.87
462.77	4760.65
462.95	4744.27
463.13	4816.82
463.32	4868.31
463.50	4882.36
463.68	4936.19
463.86	4877.68
464.05	4844.91
464.23	4936.19
464.41	4966.62
464.59	5018.11
464.78	5036.83
464.96	4924.49
465.14	5095.35
465.32	5121.09
465.50	5053.22
465.69	5184.29
465.87	4971.30
466.05	5135.14
466.23	5081.30
466.41	5076.62
466.60	5160.88
466.78	5053.22
466.96	5015.77
467.14	5221.74
467.32	5193.65
467.51	5308.34
467.69	5181.95
467.87	5191.31
468.05	5245.14
468.23	5303.65
468.41	5380.89
468.60	5217.05
468.78	5369.19
468.96	5268.55
469.14	5334.08
469.32	5221.74
469.50	5310.68
469.69	5556.43
469.87	5518.98
470.05	5509.62
470.23	5617.29
470.41	5591.54
470.59	5743.67
470.77	5371.53
470.95	5593.88
471.14	5605.58
471.32	5420.68
471.50	5783.46
471.68	5640.69
471.86	5785.80
472.04	5746.02
472.22	5849.00
472.40	5834.96
472.58	5668.78
472.77	5844.32
472.95	5874.74
473.13	6052.63
473.31	5820.91
473.49	5970.71
473.67	5834.96
473.85	5984.75
474.03	6200.08
474.21	6101.78
474.39	6155.61
474.57	6214.12
474.75	6438.81
474.93	6286.68
475.12	6300.72
475.30	6319.45
475.48	6228.17
475.66	6490.31
475.84	6532.44
476.02	6541.80
476.20	6480.94
476.38	6586.27
476.56	6604.99
476.74	6710.32
476.92	6817.98
477.10	6637.76
477.28	6754.79
477.46	6803.94
477.64	6897.56
477.82	6846.07
478.00	7075.44
478.18	7117.57
478.36	7260.34
478.54	7258.00
478.72	7255.66
478.90	7316.51
479.08	7183.10
479.26	7272.04
479.44	7335.24
479.62	7314.17
479.80	7609.08
479.98	7616.10
480.16	7461.63
480.34	7824.41
480.52	7765.90
480.70	8023.36
480.88	7896.97
481.06	7932.08
481.24	7770.58
481.41	7845.48
481.59	8086.55
481.77	7946.12
481.95	8013.99
482.13	8168.47
482.31	8175.49
482.49	8344.01
482.67	8397.84
482.85	8568.70
483.03	8636.58
483.21	8620.19
483.39	8641.26
483.57	8746.58
483.74	8737.22
483.92	8795.73
484.10	8894.04
484.28	9015.74
484.46	9172.56
484.64	9303.63
484.82	9193.62
485.00	9352.78
485.18	9406.61
485.35	9708.54
485.53	9547.05
485.71	9455.76
485.89	9764.72
486.07	9699.18
486.25	9783.44
486.43	9879.40
486.61	9942.60
486.78	10061.96
486.96	10122.82
487.14	10277.29
487.32	10361.55
487.50	10434.11
487.68	10611.99
487.85	10492.62
488.03	10689.23
488.21	10867.11
488.39	10768.80
488.57	10913.92
488.75	10689.23
488.92	11192.44
489.10	11140.95
489.28	11281.38
489.46	11566.93
489.64	11253.30
489.81	11580.97
489.99	11487.35
490.17	11576.29
490.35	11712.04
490.53	11798.64
490.70	11721.40
490.88	11700.34
491.06	12133.34
491.24	12100.57
491.41	12065.46
491.59	12322.92
491.77	12140.36
491.95	12322.92
492.13	12402.50
492.30	12468.03
492.48	12631.87
492.66	12564.00
492.84	12863.58
493.01	13069.55
493.19	12854.22
493.37	12931.46
493.54	13041.46
493.72	13067.21
493.90	13099.98
494.08	13324.67
494.25	13404.25
494.43	13476.80
494.61	13736.60
494.79	13532.98
494.96	13687.45
495.14	13811.50
495.32	13940.23
495.49	13996.40
495.67	14094.71
495.85	13987.04
496.02	14331.10
496.20	14178.97
496.38	14052.58
496.55	14281.95
496.73	14621.33
496.91	14422.38
497.09	14516.00
497.26	14494.94
497.44	14611.96
497.62	14616.65
497.79	14967.73
497.97	14843.68
498.14	15016.88
498.32	15379.66
498.50	15328.17
498.67	15283.70
498.85	15211.14
499.03	15363.28
499.20	15445.20
499.38	15435.83
499.56	15606.69
499.73	15995.22
499.91	15632.44
500.08	15791.59
500.26	15646.48
500.44	15709.68
500.61	15903.94
500.79	15920.32
500.97	16095.86
501.14	16051.39
501.32	16470.35
501.49	16105.23
501.67	16285.45
501.84	16135.65
502.02	16262.04
502.20	16641.21
502.37	16545.25
502.55	16404.81
502.72	16358.00
502.90	16617.80
503.07	16793.34
503.25	16678.66
503.43	16699.72
503.60	16720.79
503.78	16922.07
503.95	17081.23
504.13	17048.46
504.30	17022.72
504.48	16865.90
504.65	16987.61
504.83	17495.50
505.01	17394.86
505.18	17291.88
505.36	17589.13
505.53	17294.22
505.71	17359.75
505.88	17343.37
506.06	17326.99
506.23	17673.39
506.41	17954.25
506.58	17977.65
506.76	17827.86
506.93	18078.30
507.11	17853.61
507.28	17860.63
507.46	18108.72
507.63	17921.48
507.81	18125.11
507.98	18104.04
508.16	18111.07
508.33	18181.28
508.50	18237.45
508.68	18167.24
508.85	18553.43
509.03	18448.10
509.20	18590.88
509.38	18686.84
509.55	18869.40
509.73	19183.03
509.90	18981.74
510.08	18644.71
510.25	18925.57
510.42	18827.27
510.60	19096.43
510.77	19246.23
510.95	18988.77
511.12	19307.08
511.30	19236.86
511.47	19314.10
511.64	19311.76
511.82	19274.31
511.99	19639.44
512.17	19590.28
512.34	19669.86
512.51	19641.78
512.69	19763.48
512.86	19477.94
513.04	19964.77
513.21	19903.92
513.38	19903.92
513.56	20016.26
513.73	20095.84
513.90	19929.66
514.08	20070.09
514.25	20168.40
514.43	20107.54
514.60	20498.41
514.77	20233.93
514.95	20159.03
515.12	20173.08
515.29	20301.81
515.47	20428.20
515.64	20596.71
515.81	20166.06
515.99	20379.04
516.16	20627.14
516.33	20769.91
516.51	20847.15
516.68	20779.28
516.85	20585.01
517.03	20891.62
517.20	20835.45
517.37	20929.07
517.54	20826.09
517.72	20945.45
517.89	21104.61
518.06	21315.26
518.24	21214.62
518.41	21074.18
518.58	21219.30
518.75	21277.81
518.93	21357.39
519.10	21451.01
519.27	21640.59
519.45	21542.29
519.62	21474.42
519.79	21858.26
519.96	21610.17
520.14	21862.94
520.31	21762.30
520.48	21591.44
520.65	21603.14
520.83	21996.35
521.00	21558.67
521.17	21727.19
521.34	21834.86
521.52	22057.21
521.69	22361.48
521.86	22043.17
522.03	22354.46
522.20	22527.66
522.38	22424.67
522.55	22773.41
522.72	22108.70
522.89	22417.65
523.07	22588.51
523.24	22672.77
523.41	22735.96
523.58	22246.79
523.75	22511.27
523.92	22405.95
524.10	22677.45
524.27	22412.97
524.44	22827.24
524.61	23005.13
524.78	22796.82
524.96	22986.40
525.13	22888.10
525.30	22883.42
525.47	23173.64
525.64	23456.85
525.81	23068.32
525.98	23414.72
526.16	23342.16
526.33	23449.83
526.50	23522.38
526.67	23166.62
526.84	23482.59
527.01	23520.04
527.18	23281.31
527.36	23276.63
527.53	23711.97
527.70	24105.18
527.87	23880.49
528.04	23496.64
528.21	24109.86
528.38	23669.84
528.55	23950.70
528.72	23880.49
528.89	24144.97
529.07	23716.65
529.24	24044.32
529.41	24311.14
529.58	24058.37
529.75	23838.36
529.92	24095.82
530.09	24032.62
530.26	24299.44
530.43	24112.20
530.60	23854.74
530.77	24601.37
530.94	24175.39
531.11	24226.89
531.28	24627.12
531.46	24458.60
531.63	24528.81
531.80	24622.44
531.97	24758.19
532.14	24542.86
532.31	24556.90
532.48	24353.27
532.65	24933.73
532.82	24430.51
532.99	24760.53
533.16	24648.18
533.33	25273.10
533.50	24837.76
533.67	24996.92
533.84	24826.06
534.01	24491.37
534.18	24964.15
534.35	25326.94
534.52	24940.75
534.69	25123.31
534.86	25469.71
535.03	25329.28
535.20	25263.74
535.37	25350.34
535.54	25277.79
535.71	25273.10
535.88	25144.38
536.05	25263.74
536.22	25448.64
536.38	25668.66
536.55	25689.72
536.72	25682.70
536.89	25275.45
537.06	25568.01
537.23	25570.35
537.40	25310.55
537.57	25731.85
537.74	25687.38
537.91	25872.28
538.08	25879.30
538.25	25883.98
538.42	25991.65
538.59	25982.29
538.75	25523.54
538.92	25781.00
539.09	26244.43
539.26	25972.92
539.43	26232.72
539.60	26192.94
539.77	26199.96
539.94	26127.40
540.11	26391.88
540.28	26155.49
540.44	26314.64
540.61	26239.75
540.78	26183.57
540.95	26300.60
541.12	26457.42
541.29	26300.60
541.46	26459.76
541.62	26223.36
541.79	26525.29
541.96	26419.97
542.13	26738.28
542.30	26789.77
542.47	26815.52
542.63	26693.81
542.80	26981.70
542.97	26909.14
543.14	26848.29
543.31	27014.46
543.48	27096.38
543.64	27023.83
543.81	27318.73
543.98	27372.57
544.15	27241.50
544.32	27615.98
544.48	27541.08
544.65	27126.81
544.82	27023.83
544.99	26934.88
545.16	27115.11
545.32	27054.25
545.49	27477.89
545.66	27641.73
545.83	27510.66
546.00	27929.61
546.16	27578.53
546.33	27414.69
546.50	27187.66
546.67	27295.33
546.83	27374.91
547.00	27826.63
547.17	27229.79
547.34	27592.58
547.50	27374.91
547.67	27981.10
547.84	27887.48
548.00	27807.90
548.17	28156.64
548.34	27779.82
548.51	28177.71
548.67	27791.52
548.84	28044.30
549.01	28240.90
549.18	28018.55
549.34	28128.56
549.51	27576.19
549.68	28032.60
549.84	28041.96
550.01	27983.44
550.18	27845.35
550.34	28301.76
550.51	28208.14
550.68	28463.25
550.84	28166.01
551.01	28137.92
551.18	28004.51
551.34	28151.96
551.51	27934.29
551.68	28271.33
551.84	28236.22
552.01	28112.17
552.18	28570.92
552.34	28500.70
552.51	28531.13
552.68	28308.78
552.84	28369.63
553.01	28779.23
553.18	28325.16
553.34	28868.17
553.51	28596.67
553.67	28907.96
553.84	28933.70
554.01	28774.55
554.17	28919.66
554.34	28638.80
554.51	28673.90
554.67	28720.71
554.84	28591.98
555.00	28671.56
555.17	28854.12
555.33	29193.50
555.50	28898.59
555.67	28671.56
555.83	28669.22
556.00	28931.36
556.16	29291.80
556.33	28919.66
556.50	29046.05
556.66	28823.70
556.83	28922.00
556.99	29352.66
557.16	29572.67
557.32	29071.79
557.49	29277.76
557.65	29322.23
557.82	29460.32
557.98	29647.57
558.15	29193.50
558.32	29638.20
558.48	29303.51
558.65	29460.32
558.81	29244.99
558.98	29223.93
559.14	29390.11
559.31	29275.42
559.47	29158.39
559.64	29502.45
559.80	29642.88
559.97	29818.42
560.13	29453.30
560.30	29446.28
560.46	29502.45
560.63	29298.83
560.79	29867.58
560.96	29528.20
561.12	29457.98
561.29	29481.39
561.45	29572.67
561.61	29404.15
561.78	29694.38
561.94	29813.74
562.11	29710.76
562.27	29759.91
562.44	29886.30
562.60	29413.51
562.77	29951.84
562.93	29635.86
563.10	29900.34
563.26	29507.13
563.42	29764.59
563.59	29909.71
563.75	29717.78
563.92	29773.95
564.08	29750.55
564.24	29783.32
564.41	30204.61
564.57	29811.40
564.74	30061.84
564.90	29912.05
565.07	30225.68
565.23	29996.31
565.39	30221.00
565.56	30221.00
565.72	29869.92
565.88	30012.69
566.05	29993.97
566.21	30398.88
566.38	30022.05
566.54	30281.85
566.70	30356.75
566.87	30089.93
567.03	29902.68
567.19	29832.47
567.36	30305.26
567.52	30118.01
567.68	29947.15
567.85	29663.95
568.01	30366.11
568.17	29986.94
568.34	30157.80
568.50	30174.19
568.66	30438.67
568.83	30717.19
568.99	30342.70
569.15	30019.71
569.32	30394.20
569.48	30260.79
569.64	30012.69
569.81	30078.22
569.97	30249.08
570.13	30284.19
570.30	29872.26
570.46	30749.96
570.62	30377.81
570.78	30534.63
570.95	30103.97
571.11	30298.23
571.27	29869.92
571.43	30497.18
571.60	30295.89
571.76	30216.32
571.92	30415.26
572.09	30195.25
572.25	30541.65
572.41	30160.14
572.57	30494.84
572.74	30473.78
572.90	30293.55
573.06	30237.38
573.22	30162.48
573.38	30438.67
573.55	30525.27
573.71	30604.84
573.87	30426.96
574.03	30724.21
574.20	30543.99
574.36	30518.25
574.52	30553.35
574.68	30401.22
574.84	30693.79
575.01	30504.20
575.17	30663.36
575.33	30712.51
575.49	30448.03
575.65	30895.07
575.82	30710.17
575.98	30602.50
576.14	30644.63
576.30	30480.80
576.46	30441.01
576.62	30441.01
576.79	30813.15
576.95	30522.93
577.11	30436.33
577.27	30548.67
577.43	30742.94
577.59	30370.79
577.75	30469.09
577.92	30431.65
578.08	30452.71
578.24	30810.81
578.40	30700.81
578.56	30756.98
578.72	30609.53
578.88	30672.72
579.04	31330.41
579.21	31049.55
579.37	30574.42
579.53	30911.46
579.69	30759.32
579.85	30382.49
580.01	30438.67
580.17	30347.39
580.33	30712.51
580.49	30618.89
580.65	30742.94
580.82	30396.54
580.98	30735.92
581.14	30731.23
581.30	30771.02
581.46	31335.09
581.62	30199.93
581.78	30696.13
581.94	31037.84
582.10	30333.34
582.26	30862.30
582.42	30941.88
582.58	30785.07
582.74	30726.55
582.90	30745.28
583.06	31021.46
583.22	31194.66
583.38	30806.13
583.54	30742.94
583.70	30794.43
583.86	30948.90
584.02	30820.17
584.18	30857.62
584.34	30726.55
584.50	31370.20
584.66	30909.11
584.82	30866.98
584.98	30958.27
585.14	30476.12
585.30	30689.10
585.46	30700.81
585.62	30813.15
585.78	30628.25
585.94	30630.59
586.10	30583.78
586.26	31082.31
586.42	31129.12
586.58	30909.11
586.74	30934.86
586.90	30728.89
587.06	30438.67
587.22	31056.57
587.38	30602.50
587.54	31054.23
587.70	31370.20
587.86	31185.30
588.02	31173.60
588.18	31433.39
588.34	31094.02
588.49	31281.26
588.65	30717.19
588.81	30965.29
588.97	31087.00
589.13	31014.44
589.29	30869.33
589.45	31033.16
589.61	31189.98
589.77	31353.82
589.93	31271.90
590.08	31381.90
590.24	31283.60
590.40	31489.57
590.56	31550.42
590.72	31145.51
590.88	30749.96
591.04	30979.33
591.20	31344.45
591.35	31363.18
591.51	31454.46
591.67	31129.12
591.83	31241.47
591.99	31611.28
592.15	31363.18
592.31	31234.45
592.46	31065.93
592.62	31311.69
592.78	31384.24
592.94	31173.60
593.10	31133.81
593.26	31431.05
593.41	31475.52
593.57	31725.96
593.73	31239.13
593.89	31564.46
594.05	31515.31
594.20	30948.90
594.36	31204.02
594.52	31346.79
594.68	31267.22
594.84	31180.62
594.99	31302.32
595.15	31133.81
595.31	31585.53
595.47	31468.50
595.62	31152.53
595.78	31438.08
595.94	31587.87
596.10	31835.97
596.25	31187.64
596.41	31192.32
596.57	31105.72
596.73	31639.36
596.88	31344.45
597.04	31445.10
597.20	31765.75
597.36	31597.23
597.51	31690.85
597.67	31342.11
597.83	31302.32
597.99	31538.72
598.14	31187.64
598.30	31178.28
598.46	31222.75
598.61	31494.25
598.77	31307.01
598.93	30965.29
599.09	31440.42
599.24	31587.87
599.40	31459.14
599.56	31796.18
599.71	31374.88
599.87	31442.76
600.03	31342.11
600.18	31278.92
600.34	31414.67
600.50	31519.99
600.65	31351.48
600.81	31630.00
600.97	31693.19
601.12	31709.58
601.28	31611.28
601.44	31585.53
601.59	31735.32
601.75	31447.44
601.91	31938.95
602.06	31417.01
602.22	31316.37
602.37	31840.65
602.53	31321.05
602.69	31824.26
602.84	31398.29
603.00	31585.53
603.16	31463.82
603.31	31606.59
603.47	31454.46
603.62	31658.09
603.78	31152.53
603.94	31541.06
604.09	31402.97
604.25	31232.11
604.40	31337.43
604.56	31351.48
604.71	31395.95
604.87	31828.95
605.03	31555.10
605.18	32018.53
605.34	31531.70
605.49	31566.81
605.65	31400.63
605.80	31419.35
605.96	31084.65
606.12	31288.28
606.27	31082.31
606.43	31152.53
606.58	31473.18
606.74	31737.66
606.89	31527.02
607.05	31475.52
607.20	31599.57
607.36	31608.93
607.51	31828.95
607.67	31711.92
607.82	30993.37
607.98	31388.92
608.13	31374.88
608.29	31087.00
608.44	31590.21
608.60	31641.70
608.75	31615.96
608.91	31431.05
609.06	31311.69
609.22	31463.82
609.37	31229.77
609.53	31054.23
609.68	31140.83
609.84	30635.27
609.99	30962.95
610.15	31187.64
610.30	30897.41
610.46	31115.08
610.61	31255.51
610.76	31225.09
610.92	31194.66
611.07	31243.81
611.23	31154.87
611.38	31072.95
611.54	30993.37
611.69	30951.24
611.84	30986.35
612.00	31035.50
612.15	31178.28
612.31	31051.89
612.46	30878.69
612.62	30642.29
612.77	30827.20
612.92	31227.43
613.08	30960.61
613.23	31173.60
613.39	30822.51
613.54	30696.13
613.69	31042.53
613.85	31051.89
614.00	30838.90
614.15	31026.14
614.31	30607.19
614.46	31484.89
614.62	31070.61
614.77	30768.68
614.92	30972.31
615.08	30930.18
615.23	30951.24
615.38	31098.70
615.54	30614.21
615.69	30462.07
615.84	30558.03
616.00	30742.94
616.15	30948.90
616.30	30869.33
616.46	30831.88
616.61	30689.10
616.76	31009.76
616.92	30525.27
617.07	30965.29
617.22	30450.37
617.37	30600.16
617.53	30375.47
617.68	30270.15
617.83	30181.21
617.99	31044.87
618.14	30476.12
618.29	30745.28
618.45	30892.73
618.60	30513.56
618.75	30782.73
618.90	30579.10
619.06	30525.27
619.21	30455.05
619.36	30295.89
619.51	30331.00
619.67	30209.29
619.82	30368.45
619.97	30733.57
620.12	30323.98
620.28	30094.61
620.43	30291.21
620.58	30668.04
620.73	30370.79
620.89	30464.41
621.04	30724.21
621.19	30426.96
621.34	30288.87
621.49	30295.89
621.65	29851.19
621.80	30242.06
621.95	30225.68
622.10	30218.66
622.25	30150.78
622.41	29860.55
622.56	30527.61
622.71	30354.41
622.86	30106.31
623.01	30375.47
623.16	29867.58
623.32	29387.77
623.47	29715.44
623.62	29837.15
623.77	29944.81
623.92	29893.32
624.07	29853.53
624.23	29745.87
624.38	29811.40
624.53	29809.06
624.68	29729.48
624.83	30190.57
624.98	29699.06
625.13	29668.63
625.29	29820.77
625.44	29900.34
625.59	29532.88
625.74	29497.77
625.89	29656.93
626.04	29769.27
626.19	29404.15
626.34	29551.60
626.49	29558.63
626.65	29717.78
626.80	29413.51
626.95	29872.26
627.10	29902.68
627.25	29436.92
627.40	29488.41
627.55	29039.03
627.70	29486.07
627.85	29792.68
628.00	29373.72
628.15	29448.62
628.30	28891.57
628.45	29567.99
628.60	29823.11
628.76	29523.52
628.91	29460.32
629.06	29287.12
629.21	29270.74
629.36	29244.99
629.51	29312.87
629.66	29088.18
629.81	29109.24
629.96	29223.93
630.11	28758.16
630.26	29036.69
630.41	29057.75
630.56	29146.69
630.71	29347.98
630.86	29542.24
631.01	29472.03
631.16	29259.04
631.31	29514.16
631.46	29252.02
631.61	28828.38
631.76	28929.02
631.91	28802.63
632.06	28884.55
632.21	28503.04
632.36	28706.67
632.51	28397.72
632.66	29158.39
632.81	28954.77
632.96	28863.49
633.10	28620.07
633.25	29144.35
633.40	29144.35
633.55	28912.64
633.70	28676.24
633.85	28716.03
634.00	28596.67
634.15	28849.44
634.30	28638.80
634.45	28613.05
634.60	28765.18
634.75	28393.04
634.90	28561.56
635.05	28790.93
635.19	28631.77
635.34	28786.25
635.49	28964.13
635.64	28751.14
635.79	28615.39
635.94	28690.29
636.09	28236.22
636.24	28599.01
636.39	28388.36
636.53	28362.61
636.68	28299.42
636.83	28411.76
636.98	28371.97
637.13	28481.98
637.28	28418.78
637.43	28587.30
637.57	28376.66
637.72	28203.46
637.87	28074.73
638.02	28149.62
638.17	28276.01
638.32	28261.97
638.46	28402.40
638.61	27981.10
638.76	27803.22
638.91	28245.58
639.06	28336.87
639.20	28240.90
639.35	28032.60
639.50	28109.83
639.65	28180.05
639.80	28561.56
639.94	28299.42
640.09	28025.57
640.24	28444.53
640.39	28034.94
640.54	28065.36
640.68	27953.02
640.83	27644.07
640.98	27819.61
641.13	27587.89
641.27	27910.89
641.42	27817.27
641.57	28205.80
641.72	27857.06
641.86	27690.88
642.01	27613.64
642.16	27782.16
642.31	27473.21
642.45	27634.71
642.60	27733.01
642.75	27644.07
642.90	27580.87
643.04	27421.72
643.19	27117.45
643.34	27812.59
643.48	27620.66
643.63	27791.52
643.78	27606.62
643.93	28116.86
644.07	27517.68
644.22	27779.82
644.37	27637.05
644.51	27527.04
644.66	27470.87
644.81	27175.96
644.95	27234.47
645.10	27260.22
645.25	27175.96
645.39	27133.83
645.54	27213.41
645.69	27215.75
645.83	27625.34
645.98	27466.19
646.13	27325.75
646.27	27548.11
646.42	27555.13
646.57	27742.37
646.71	27583.21
646.86	27470.87
647.00	27112.77
647.15	27009.78
647.30	27353.84
647.44	26637.64
647.59	27283.62
647.74	27220.43
647.88	27227.45
648.03	27391.29
648.17	27037.87
648.32	27065.96
648.47	27023.83
648.61	26920.84
648.76	27164.26
648.90	27239.15
649.05	26969.99
649.20	26934.88
649.34	26972.33
649.49	26815.52
649.63	27152.55
649.78	26661.04
649.92	26707.85
650.07	27314.05
650.21	26909.14
650.36	26780.41
650.51	27012.12
650.65	26857.65
650.80	26665.72
650.94	26539.33
651.09	27049.57
651.23	26920.84
651.38	26567.42
651.52	26565.08
651.67	26527.63
651.81	26967.65
651.96	26864.67
652.10	26649.34
652.25	26796.79
652.39	26778.07
652.54	27077.66
652.68	26490.18
652.83	26700.83
652.97	26965.31
653.12	26403.58
653.26	26593.17
653.41	26682.11
653.55	26424.65
653.70	26300.60
653.84	26417.63
653.99	26408.26
654.13	26490.18
654.27	26071.23
654.42	26061.87
654.56	26473.80
654.71	26625.93
654.85	26178.89
655.00	26424.65
655.14	26426.99
655.29	26094.63
655.43	26492.52
655.57	26314.64
655.72	26366.13
655.86	26202.30
656.01	26499.55
656.15	26010.37
656.30	25940.16
656.44	26192.94
656.58	25979.95
656.73	26298.26
656.87	26001.01
657.01	26501.89
657.16	26363.79
657.30	26349.75
657.45	26272.51
657.59	26178.89
657.73	25607.80
657.88	25797.38
658.02	25942.50
658.16	26235.06
658.31	25876.96
658.45	25659.29
658.60	25790.36
658.74	25582.06
658.88	25729.51
659.03	25427.58
659.17	26001.01
659.31	25596.10
659.46	25717.81
659.60	25593.76
659.74	25717.81
659.89	25654.61
660.03	25448.64
660.17	25879.30
660.32	25326.94
660.46	25294.17
660.60	24940.75
660.74	25455.67
660.89	25638.23
661.03	25261.40
661.17	25205.23
661.32	25432.26
661.46	25118.63
661.60	25460.35
661.74	25458.01
661.89	25614.82
662.03	25532.90
662.17	25254.38
662.31	25085.86
662.46	25167.78
662.60	24933.73
662.74	25130.33
662.88	25064.80
663.03	24753.51
663.17	24746.48
663.31	24521.79
663.45	24685.63
663.60	24556.90
663.74	24500.73
663.88	24884.58
664.02	24552.22
664.17	25085.86
664.31	24549.88
664.45	24531.15
664.59	24554.56
664.73	24575.62
664.88	24388.38
665.02	24252.63
665.16	24322.85
665.30	24217.52
665.44	24287.74
665.59	24072.41
665.73	24353.27
665.87	24603.71
666.01	24484.34
666.15	24198.80
666.29	24308.80
666.44	24482.00
666.58	24257.31
666.72	24184.76
666.86	23992.83
667.00	24320.51
667.14	23854.74
667.28	23995.17
667.43	23777.50
667.57	24081.77
667.71	23789.20
667.85	23772.82
667.99	23403.02
668.13	23922.62
668.27	23718.99
668.41	23590.26
668.56	23515.36
668.70	23676.86
668.84	23758.78
668.98	23597.28
669.12	23424.08
669.26	23623.03
669.40	23283.65
669.54	23601.96
669.68	23641.75
669.82	23608.98
669.96	23683.88
670.10	23096.41
670.25	23105.77
670.39	23157.26
670.53	22878.74
670.67	22890.44
670.81	22817.88
670.95	23026.19
671.09	23281.31
671.23	23037.89
671.37	23147.90
671.51	23126.83
671.65	22906.82
671.79	22881.08
671.93	22824.90
672.07	22881.08
672.21	22745.33
672.35	22572.13
672.49	22604.89
672.63	22670.43
672.77	22506.59
672.91	22654.05
673.05	22813.20
673.19	22569.79
673.33	22396.59
673.47	22267.86
673.61	22768.73
673.75	22635.32
673.89	22356.80
674.03	22132.11
674.17	22078.27
674.31	21923.80
674.45	22204.66
674.59	22197.64
674.73	21921.46
674.87	22106.36
675.01	21397.18
675.15	21778.68
675.29	21577.40
675.43	21479.10
675.56	21790.39
675.70	21865.28
675.84	21350.37
675.98	21322.28
676.12	21820.81
676.26	21563.36
676.40	21397.18
676.54	21331.64
676.68	21348.03
676.82	21003.97
676.96	21322.28
677.10	20966.52
677.23	21352.71
677.37	21067.16
677.51	21027.37
677.65	20980.56
677.79	20545.22
677.93	20900.98
678.07	20697.36
678.21	20608.42
678.34	20706.72
678.48	20437.56
678.62	20386.07
678.76	20542.88
678.90	20042.01
679.04	20072.43
679.18	20315.85
679.31	19915.62
679.45	19990.52
679.59	20023.28
679.73	19922.64
679.87	19836.04
680.00	19660.50
680.14	19969.45
680.28	20208.19
680.42	19550.49
680.56	19484.96
680.70	19742.42
680.83	19506.02
680.97	19456.87
681.11	19477.94
681.25	19475.60
681.39	19538.79
681.52	19576.24
681.66	19445.17
681.80	19381.98
681.94	19089.41
682.07	18998.13
682.21	18768.76
682.35	18958.34
682.49	18953.66
682.62	18658.75
682.76	18822.59
682.90	18853.02
683.04	18698.54
683.17	18750.03
683.31	18586.19
683.45	18775.78
683.59	18621.30
683.72	18537.04
683.86	18520.66
684.00	18684.50
684.13	18059.57
684.27	18216.39
684.41	17919.14
684.55	18010.42
684.68	17853.61
684.82	17813.82
684.96	17923.82
685.09	17469.76
685.23	17689.77
685.37	17963.61
685.50	17649.98
685.64	17743.60
685.78	17645.30
685.91	17942.55
686.05	17624.23
686.19	17771.69
686.32	17439.33
686.46	17458.06
686.60	17118.68
686.73	17043.78
686.87	16865.90
687.01	17057.82
687.14	17104.64
687.28	16987.61
687.42	16826.11
687.55	16919.73
687.69	16879.94
687.82	16760.58
687.96	16563.97
688.10	16767.60
688.23	16676.32
688.37	16507.80
688.50	16652.91
688.64	16655.25
688.78	16507.80
688.91	16608.44
689.05	16273.74
689.18	16056.08
689.32	15735.42
689.46	15990.54
689.59	16070.12
689.73	16203.53
689.86	15728.40
690.00	15899.26
690.13	15934.37
690.27	16018.63
690.41	15920.32
690.54	15840.75
690.68	15658.18
690.81	15683.93
690.95	15524.77
691.08	15667.55
691.22	15447.54
691.35	15374.98
691.49	15302.42
691.62	15309.44
691.76	15220.50
691.89	15068.37
692.03	14637.71
692.16	15103.48
692.30	14864.74
692.43	14686.86
692.57	14820.27
692.70	14860.06
692.84	14726.65
692.97	14750.06
693.11	14616.65
693.24	14621.33
693.38	14628.35
693.51	14630.69
693.65	14569.83
693.78	14253.86
693.92	14806.23
694.05	14321.74
694.19	14312.38
694.32	14012.79
694.45	13762.35
694.59	13961.30
694.72	13930.87
694.86	13731.92
694.99	13647.66
695.13	13799.80
695.26	13540.00
695.39	13650.00
695.53	13839.59
695.66	13837.25
695.80	13486.17
695.93	13568.09
696.07	13617.24
696.20	13427.65
696.33	13310.63
696.47	13247.43
696.60	13195.94
696.73	13509.57
696.87	13214.66
697.00	12987.63
697.14	13004.02
697.27	12842.52
697.40	12891.67
697.54	12945.50
697.67	12620.17
697.80	12746.56
697.94	12821.45
698.07	12505.48
698.21	12351.01
698.34	12271.43
698.47	12837.84
698.61	12446.97
698.74	12554.63
698.87	12343.99
699.01	12702.09
699.14	12208.23
699.27	12131.00
699.40	12444.63
699.54	12269.09
699.67	12063.12
699.80	11955.46
699.94	11925.03
700.07	11976.52
700.20	11700.34
700.34	11826.73
700.47	11545.86
700.60	11555.22
700.73	11782.26
700.87	11768.21
701.00	11587.99
701.13	11578.63
701.26	11524.80
701.40	11845.45
701.53	11550.54
701.66	11510.75
701.79	11232.23
701.93	11208.83
702.06	11379.68
702.19	11269.68
702.32	11108.18
702.46	11012.22
702.59	11035.63
702.72	11040.31
702.85	10789.87
702.99	10754.76
703.12	10817.96
703.25	10944.34
703.38	10698.59
703.51	10572.20
703.65	10813.28
703.78	10693.91
703.91	10644.76
704.04	10672.84
704.17	10630.71
704.31	10614.33
704.44	10370.91
704.57	10249.21
704.70	10094.73
704.83	10244.52
704.96	10424.75
705.10	10232.82
705.23	9963.66
>>>>>End Processed Spectral Data<<<<<
