SpectraSuite Data File
++++++++++++++++++++++++++++++++++++
Date: Fri Oct 18 13:58:24 GMT-05:00 2013
User: bianchi
Dark Spectrum Present: No
Reference Spectrum Present: No
Number of Sampled Component Spectra: 1
Spectrometers: USB2+H05261
Integration Time (usec): 50000 (USB2+H05261)
Spectra Averaged: 1 (USB2+H05261)
Boxcar Smoothing: 0 (USB2+H05261)
Correct for Electrical Dark: No (USB2+H05261)
Strobe/Lamp Enabled: No (USB2+H05261)
Correct for Detector Non-linearity: No (USB2+H05261)
Correct for Stray Light: No (USB2+H05261)
Number of Pixels in Processed Spectrum: 2048
>>>>>Begin Processed Spectral Data<<<<<
365.73	7.02
365.92	7.02
366.12	7.02
366.32	0.00
366.52	0.00
366.72	0.00
366.91	0.00
367.11	0.00
367.31	0.00
367.51	0.00
367.70	0.00
367.90	0.00
368.10	0.00
368.30	0.00
368.49	0.00
368.69	0.00
368.89	0.00
369.09	0.00
369.28	0.00
369.48	0.00
369.68	0.00
369.87	0.00
370.07	0.00
370.27	0.00
370.47	0.00
370.66	74.90
370.86	180.22
371.06	152.13
371.25	142.77
371.45	100.64
371.65	152.13
371.84	72.56
372.04	114.69
372.24	142.77
372.44	173.20
372.63	257.46
372.83	278.52
373.03	147.45
373.22	191.92
373.42	227.03
373.62	241.08
373.81	182.56
374.01	196.60
374.21	262.14
374.40	210.65
374.60	198.95
374.79	264.48
374.99	234.05
375.19	269.16
375.38	208.31
375.58	212.99
375.78	294.91
375.97	330.02
376.17	238.73
376.37	236.39
376.56	283.20
376.76	262.14
376.95	330.02
377.15	269.16
377.35	231.71
377.54	269.16
377.74	238.73
377.93	236.39
378.13	280.86
378.33	311.29
378.52	285.55
378.72	196.60
378.91	276.18
379.11	283.20
379.31	337.04
379.50	292.57
379.70	287.89
379.89	290.23
380.09	241.08
380.28	264.48
380.48	241.08
380.68	273.84
380.87	304.27
381.07	301.93
381.26	341.72
381.46	297.25
381.65	337.04
381.85	262.14
382.04	369.80
382.24	273.84
382.43	351.08
382.63	313.63
382.83	337.04
383.02	376.83
383.22	409.59
383.41	351.08
383.61	318.31
383.80	348.74
384.00	306.61
384.19	304.27
384.39	379.17
384.58	383.85
384.78	337.04
384.97	416.62
385.17	386.19
385.36	360.44
385.56	362.78
385.75	334.70
385.95	486.83
386.14	337.04
386.34	444.70
386.53	435.34
386.72	409.59
386.92	461.09
387.11	435.34
387.31	512.58
387.50	461.09
387.70	372.15
387.89	390.87
388.09	376.83
388.28	423.64
388.48	421.30
388.67	461.09
388.86	379.17
389.06	475.13
389.25	425.98
389.45	479.81
389.64	433.00
389.84	472.79
390.03	498.53
390.22	519.60
390.42	479.81
390.61	416.62
390.81	449.38
391.00	449.38
391.19	451.72
391.39	533.64
391.58	589.82
391.78	524.28
391.97	512.58
392.16	573.43
392.36	601.52
392.55	554.71
392.75	571.09
392.94	587.47
393.13	524.28
393.33	559.39
393.52	489.17
393.71	571.09
393.91	477.47
394.10	573.43
394.29	540.66
394.49	547.69
394.68	554.71
394.88	599.18
395.07	552.37
395.26	561.73
395.46	711.52
395.65	613.22
395.84	648.33
396.04	692.80
396.23	692.80
396.42	662.37
396.62	592.16
396.81	613.22
397.00	641.31
397.19	547.69
397.39	699.82
397.58	753.65
397.77	660.03
397.97	697.48
398.16	648.33
398.35	627.26
398.55	685.78
398.74	674.07
398.93	683.44
399.12	704.50
399.32	781.74
399.51	763.01
399.70	821.53
399.90	711.52
400.09	837.91
400.28	645.99
400.47	798.12
400.67	849.61
400.86	737.27
401.05	720.88
401.24	781.74
401.44	795.78
401.63	755.99
401.82	800.46
402.01	870.68
402.21	758.33
402.40	800.46
402.59	812.17
402.78	875.36
402.97	772.38
403.17	819.19
403.36	781.74
403.55	903.45
403.74	908.13
403.93	784.08
404.13	952.60
404.32	940.90
404.51	894.08
404.70	915.15
404.89	917.49
405.09	1027.50
405.28	910.47
405.47	945.58
405.66	1020.47
405.85	968.98
406.05	994.73
406.24	1043.88
406.43	926.85
406.62	1015.79
406.81	1071.97
407.00	983.02
407.20	931.53
407.39	966.64
407.58	1043.88
407.77	1032.18
407.96	1064.94
408.15	1153.88
408.34	1034.52
408.54	1114.10
408.73	1132.82
408.92	1151.54
409.11	1146.86
409.30	1205.38
409.49	1132.82
409.68	1158.57
409.87	1088.35
410.07	1111.75
410.26	1172.61
410.45	1153.88
410.64	1104.73
410.83	1350.49
411.02	1181.97
411.21	1205.38
411.40	1226.44
411.59	1254.53
411.78	1233.46
411.98	1231.12
412.17	1313.04
412.36	1345.81
412.55	1282.61
412.74	1362.19
412.93	1336.45
413.12	1273.25
413.31	1291.98
413.50	1406.66
413.69	1371.55
413.88	1432.41
414.07	1406.66
414.26	1472.20
414.45	1465.18
414.64	1418.36
414.83	1542.41
415.02	1502.62
415.22	1607.95
415.41	1561.14
415.60	1533.05
415.79	1549.43
415.98	1507.30
416.17	1556.46
416.36	1610.29
416.55	1619.65
416.74	1650.08
416.93	1612.63
417.12	1610.29
417.31	1659.44
417.50	1715.61
417.69	1652.42
417.88	1717.95
418.07	1776.47
418.26	1724.97
418.45	1621.99
418.64	1809.23
418.83	1823.28
419.02	1858.39
419.21	1804.55
419.39	1844.34
419.58	1797.53
419.77	1870.09
419.96	1811.57
420.15	1874.77
420.34	1928.60
420.53	1977.75
420.72	1888.81
420.91	1905.20
421.10	1884.13
421.29	1930.94
421.48	1914.56
421.67	2036.27
421.86	1989.46
422.05	1982.43
422.24	1980.09
422.43	1865.41
422.61	2057.33
422.80	2092.44
422.99	1970.73
423.18	1998.82
423.37	1954.35
423.56	2052.65
423.75	2062.01
423.94	2047.97
424.13	1942.64
424.32	1973.07
424.50	2085.42
424.69	2050.31
424.88	2031.58
425.07	2047.97
425.26	2076.06
425.45	2057.33
425.64	2087.76
425.83	2085.42
426.01	2132.23
426.20	2062.01
426.39	2029.24
426.58	1947.33
426.77	2031.58
426.96	2026.90
427.15	2153.29
427.33	1998.82
427.52	2218.83
427.71	2050.31
427.90	2153.29
428.09	2167.34
428.28	2211.81
428.46	2279.68
428.65	2239.89
428.84	2179.04
429.03	2235.21
429.22	2125.21
429.40	2190.74
429.59	2286.70
429.78	2235.21
429.97	2214.15
430.16	2305.43
430.34	2202.44
430.53	2410.75
430.72	2249.25
430.91	2277.34
431.10	2312.45
431.28	2340.54
431.47	2394.37
431.66	2469.27
431.85	2492.67
432.03	2385.01
432.22	2487.99
432.41	2483.31
432.60	2349.90
432.79	2429.48
432.97	2478.63
433.16	2483.31
433.35	2459.90
433.54	2555.86
433.72	2518.42
433.91	2518.42
434.10	2525.44
434.28	2373.30
434.47	2558.21
434.66	2621.40
434.85	2516.08
435.03	2471.61
435.22	2537.14
435.41	2705.66
435.59	2696.30
435.78	2616.72
435.97	2621.40
436.16	2630.76
436.34	2679.91
436.53	2682.25
436.72	2787.58
436.90	2602.68
437.09	2637.78
437.28	2679.91
437.46	2752.47
437.65	2850.77
437.84	2715.02
438.02	2764.17
438.21	2752.47
438.40	2747.79
438.58	2691.62
438.77	2878.86
438.96	2981.84
439.14	2874.18
439.33	2963.12
439.52	3061.42
439.70	3012.27
439.89	3002.91
440.08	3054.40
440.26	3030.99
440.45	2960.78
440.63	3068.44
440.82	3103.55
441.01	3000.57
441.19	3133.98
441.38	3243.98
441.57	3276.75
441.75	3162.06
441.94	3229.94
442.12	3246.32
442.31	3307.18
442.50	3260.37
442.68	3164.40
442.87	3295.47
443.05	3342.28
443.24	3400.80
443.43	3337.60
443.61	3445.27
443.80	3459.31
443.98	3304.84
444.17	3349.31
444.35	3419.52
444.54	3435.91
444.73	3454.63
444.91	3370.37
445.10	3351.65
445.28	3440.59
445.47	3527.19
445.65	3475.70
445.84	3447.61
446.02	3487.40
446.21	3410.16
446.39	3492.08
446.58	3501.44
446.77	3473.36
446.95	3391.44
447.14	3342.28
447.32	3529.53
447.51	3499.10
447.69	3447.61
447.88	3442.93
448.06	3461.65
448.25	3482.72
448.43	3508.46
448.62	3538.89
448.80	3461.65
448.99	3524.85
449.17	3517.83
449.36	3520.17
449.54	3538.89
449.73	3784.65
449.91	3641.87
450.10	3609.11
450.28	3838.48
450.46	3662.94
450.65	3630.17
450.83	3744.86
451.02	3707.41
451.20	3786.99
451.39	3831.46
451.57	3779.97
451.76	3693.37
451.94	3770.60
452.13	3946.14
452.31	3892.31
452.49	3655.92
452.68	3758.90
452.86	3819.75
453.05	3885.29
453.23	4088.92
453.42	3882.95
453.60	3889.97
453.78	4058.49
453.97	3864.22
454.15	4018.70
454.34	3857.20
454.52	3911.04
454.70	3896.99
454.89	3922.74
455.07	3915.72
455.26	4086.58
455.44	3950.82
455.62	4018.70
455.81	4074.87
455.99	4002.32
456.17	4098.28
456.36	4109.98
456.54	4229.35
456.73	4112.32
456.91	4297.22
457.09	4318.29
457.28	4318.29
457.46	4444.68
457.64	4311.27
457.83	4313.61
458.01	4355.74
458.19	4416.59
458.38	4236.37
458.56	4550.00
458.74	4449.36
458.93	4477.44
459.11	4477.44
459.29	4210.62
459.48	4432.97
459.66	4395.53
459.84	4573.41
460.03	4582.77
460.21	4547.66
460.39	4531.28
460.57	4503.19
460.76	4603.83
460.94	4695.11
461.12	4589.79
461.31	4685.75
461.49	4620.22
461.67	4702.14
461.85	4788.74
462.04	4688.09
462.22	4718.52
462.40	4915.12
462.59	4755.97
462.77	4765.33
462.95	4919.81
463.13	4819.16
463.32	4762.99
463.50	4737.24
463.68	4837.89
463.86	4833.21
464.05	4753.63
464.23	4933.85
464.41	4971.30
464.59	4828.53
464.78	4994.70
464.96	4891.72
465.14	4999.38
465.32	5001.72
465.50	5006.41
465.69	5050.88
465.87	4903.42
466.05	4957.25
466.23	4863.63
466.41	4994.70
466.60	5181.95
466.78	4968.96
466.96	5027.47
467.14	5114.07
467.32	5184.29
467.51	5064.92
467.69	5071.94
467.87	5174.92
468.05	4983.00
468.23	5158.54
468.41	5322.38
468.60	5067.26
468.78	5114.07
468.96	5095.35
469.14	5233.44
469.32	5163.22
469.50	5259.18
469.69	5376.21
469.87	5495.58
470.05	5481.53
470.23	5430.04
470.41	5357.49
470.59	5556.43
470.77	5406.64
470.95	5357.49
471.14	5507.28
471.32	5453.45
471.50	5598.56
471.68	5563.45
471.86	5460.47
472.04	5626.65
472.22	5874.74
472.40	5577.50
472.58	5753.04
472.77	5748.36
472.95	5781.12
473.13	5755.38
473.31	5884.11
473.49	5818.57
473.67	5905.17
473.85	5944.96
474.03	5902.83
474.21	5912.19
474.39	6368.60
474.57	6083.05
474.75	6155.61
474.93	6328.81
475.12	6104.12
475.30	6113.48
475.48	6078.37
475.66	6256.25
475.84	6345.19
476.02	6338.17
476.20	6230.51
476.38	6614.35
476.56	6675.21
476.74	6583.93
476.92	6436.47
477.10	6438.81
477.28	6476.26
477.46	6635.42
477.64	6722.02
477.82	6705.63
478.00	7030.97
478.18	6899.90
478.36	6942.03
478.54	6925.65
478.72	7023.95
478.90	7199.49
479.08	7241.62
479.26	7206.51
479.44	7215.87
479.62	7452.27
479.80	7344.60
479.98	7377.37
480.16	7456.95
480.34	7426.52
480.52	7606.74
480.70	7721.43
480.88	7660.57
481.06	7674.62
481.24	7719.09
481.41	7791.64
481.59	7948.46
481.77	7990.59
481.95	8056.12
482.13	8121.66
482.31	7957.82
482.49	8173.15
482.67	8292.52
482.85	8449.33
483.03	8325.29
483.21	8671.68
483.39	8622.53
483.57	8461.04
483.74	8650.62
483.92	8823.82
484.10	8667.00
484.28	8865.95
484.46	8915.10
484.64	9128.09
484.82	9107.02
485.00	9240.44
485.18	9249.80
485.35	9444.06
485.53	9394.91
485.71	9357.46
485.89	9753.01
486.07	9177.24
486.25	9331.72
486.43	9584.49
486.61	9516.62
486.78	9874.72
486.96	9914.51
487.14	9916.85
487.32	9956.64
487.50	10265.59
487.68	10052.60
487.85	10406.02
488.03	10438.79
488.21	10562.84
488.39	10490.28
488.57	10754.76
488.75	10600.29
488.92	10883.49
489.10	10958.39
489.28	10850.72
489.46	11082.44
489.64	10953.71
489.81	11059.03
489.99	11286.06
490.17	11466.28
490.35	11473.31
490.53	11580.97
490.70	11534.16
490.88	11646.51
491.06	11852.47
491.24	11686.29
491.41	11665.23
491.59	11988.22
491.77	12236.32
491.95	12196.53
492.13	12182.49
492.30	12334.62
492.48	12044.40
492.66	12269.09
492.84	12430.59
493.01	12231.64
493.19	12287.81
493.37	12627.19
493.54	12737.20
493.72	12592.08
493.90	12882.31
494.08	12926.78
494.25	13060.19
494.43	13252.11
494.61	13516.59
494.79	13359.78
494.96	13238.07
495.14	13369.14
495.32	13249.77
495.49	13504.89
495.67	13661.71
495.85	13825.54
496.02	13907.46
496.20	13944.91
496.38	13860.65
496.55	13994.06
496.73	13947.25
496.91	14190.67
497.09	14445.79
497.26	14413.02
497.44	14312.38
497.62	14527.71
497.79	14434.08
497.97	14281.95
498.14	14874.10
498.32	14855.38
498.50	14771.12
498.67	14925.60
498.85	14995.81
499.03	14918.57
499.20	15250.93
499.38	15257.95
499.56	15440.51
499.73	15281.36
499.91	15503.71
500.08	15552.86
500.26	15171.35
500.44	15183.06
500.61	15536.48
500.79	15487.32
500.97	15798.62
501.14	15988.20
501.32	15754.15
501.49	15990.54
501.67	15859.47
501.84	15967.13
502.02	16056.08
502.20	15932.03
502.37	15992.88
502.55	15941.39
502.72	16348.64
502.90	16159.06
503.07	16109.91
503.25	16353.32
503.43	16533.54
503.60	16519.50
503.78	16706.74
503.95	16542.91
504.13	16465.67
504.30	16669.30
504.48	16437.58
504.65	16800.37
504.83	16823.77
505.01	17069.53
505.18	16819.09
505.36	17151.45
505.53	16875.26
505.71	17090.59
505.88	17055.48
506.06	17085.91
506.23	17029.74
506.41	17240.39
506.58	17334.01
506.76	17490.82
506.93	17572.74
507.11	17411.25
507.28	17301.24
507.46	17743.60
507.63	17678.07
507.81	17935.53
507.98	17462.74
508.16	17881.69
508.33	17774.03
508.50	17640.62
508.68	17823.18
508.85	18054.89
509.03	17944.89
509.20	18150.85
509.38	18616.62
509.55	18401.29
509.73	18380.23
509.90	18349.80
510.08	18162.56
510.25	18265.54
510.42	18478.53
510.60	18555.77
510.77	18644.71
510.95	18569.81
511.12	18532.36
511.30	18991.11
511.47	18984.09
511.64	18862.38
511.82	18810.89
511.99	18991.11
512.17	18937.27
512.34	19267.29
512.51	19316.44
512.69	19419.42
512.86	19283.67
513.04	19569.22
513.21	19349.21
513.38	19737.74
513.56	19445.17
513.73	19314.10
513.90	19599.65
514.08	19168.99
514.25	19798.59
514.43	19667.52
514.60	19852.42
514.77	19517.73
514.95	20027.96
515.12	19555.18
515.29	19754.12
515.47	19917.96
515.64	20105.20
515.81	19758.80
515.99	20514.80
516.16	20379.04
516.33	20067.75
516.51	20046.69
516.68	20116.90
516.85	20280.74
517.03	20247.97
517.20	20163.72
517.37	20533.52
517.54	20666.93
517.72	20393.09
517.89	20563.95
518.06	20858.85
518.24	20823.75
518.41	20475.01
518.58	20844.81
518.75	20507.77
518.93	20910.35
519.10	20872.90
519.27	21163.12
519.45	21020.35
519.62	20861.19
519.79	20762.89
519.96	20905.66
520.14	21380.79
520.31	21277.81
520.48	21626.55
520.65	21383.13
520.83	21415.90
521.00	21446.33
521.17	21649.96
521.34	21453.35
521.52	21266.11
521.69	21823.16
521.86	21898.05
522.03	21830.18
522.20	21881.67
522.38	21722.51
522.55	21806.77
522.72	21717.83
522.89	21687.40
523.07	22132.11
523.24	21895.71
523.41	22045.51
523.58	22195.30
523.75	22672.77
523.92	21949.54
524.10	22345.09
524.27	22164.87
524.44	22207.00
524.61	22541.70
524.78	22483.19
524.96	22349.78
525.13	22537.02
525.30	22239.77
525.47	22822.56
525.64	22354.46
525.81	22616.60
525.98	22707.88
526.16	22813.20
526.33	22696.17
526.50	22850.65
526.67	22647.02
526.84	22567.45
527.01	22684.47
527.18	23168.96
527.36	22899.80
527.53	23599.62
527.70	23489.62
527.87	23204.07
528.04	22852.99
528.21	23229.82
528.38	23229.82
528.55	23262.58
528.72	23339.82
528.89	23716.65
529.07	23344.50
529.24	23494.30
529.41	23484.94
529.58	23510.68
529.75	23616.01
529.92	23587.92
530.09	23419.40
530.26	23367.91
530.43	23681.54
530.60	23555.15
530.77	23477.91
530.94	23672.18
531.11	23651.11
531.28	23428.76
531.46	23861.76
531.63	23962.40
531.80	24144.97
531.97	24367.32
532.14	24231.57
532.31	24276.04
532.48	24025.60
532.65	24491.37
532.82	23812.61
532.99	24037.30
533.16	24123.90
533.33	24306.46
533.50	24718.40
533.67	24315.83
533.84	24465.62
534.01	24168.37
534.18	24159.01
534.35	24400.08
534.52	24011.56
534.69	24348.59
534.86	24704.35
535.03	24783.93
535.20	24795.64
535.37	25074.16
535.54	24746.48
535.71	24449.24
535.88	24645.84
536.05	24957.13
536.22	24945.43
536.38	25013.31
536.55	24879.89
536.72	24882.24
536.89	24758.19
537.06	24893.94
537.23	24779.25
537.40	25261.40
537.57	25350.34
537.74	24879.89
537.91	25605.46
538.08	25207.57
538.25	25071.82
538.42	25305.87
538.59	25310.55
538.75	25273.10
538.92	25078.84
539.09	25174.80
539.26	25474.39
539.43	25504.82
539.60	25495.46
539.77	25593.76
539.94	25689.72
540.11	25488.43
540.28	25766.96
540.44	25486.09
540.61	25607.80
540.78	25205.23
540.95	25537.59
541.12	25666.31
541.29	25500.14
541.46	25713.13
541.62	25556.31
541.79	25823.13
541.96	25458.01
542.13	25834.83
542.30	25771.64
542.47	25961.22
542.63	26024.42
542.80	25954.20
542.97	26286.56
543.14	26181.23
543.31	26190.59
543.48	26576.78
543.64	26536.99
543.81	26132.08
543.98	26061.87
544.15	26298.26
544.32	26487.84
544.48	26644.66
544.65	26536.99
544.82	26593.17
544.99	26384.86
545.16	26600.19
545.32	26412.95
545.49	26637.64
545.66	26485.50
545.83	26778.07
546.00	26810.84
546.16	26609.55
546.33	26628.27
546.50	26501.89
546.67	27042.55
546.83	26380.18
547.00	27049.57
547.17	26780.41
547.34	27056.59
547.50	26939.57
547.67	27143.19
547.84	27124.47
548.00	26749.98
548.17	27215.75
548.34	26670.40
548.51	27178.30
548.67	27283.62
548.84	27393.63
549.01	27257.88
549.18	27213.41
549.34	27140.85
549.51	27314.05
549.68	27503.64
549.84	27428.74
550.01	27524.70
550.18	27316.39
550.34	27398.31
550.51	27634.71
550.68	27651.09
550.84	27241.50
551.01	27297.67
551.18	27339.80
551.34	27566.83
551.51	27487.25
551.68	27527.04
551.84	27688.54
552.01	27683.86
552.18	27793.86
552.34	27339.80
552.51	27505.98
552.68	27599.60
552.84	27702.58
553.01	27840.67
553.18	27349.16
553.34	27725.99
553.51	27981.10
553.67	27859.40
553.84	27946.00
554.01	27833.65
554.17	27981.10
554.34	27908.55
554.51	27847.69
554.67	28112.17
554.84	28123.88
555.00	28142.60
555.17	28128.56
555.33	27908.55
555.50	28280.69
555.67	28051.32
555.83	28355.59
556.00	27929.61
556.16	28421.13
556.33	28336.87
556.50	28297.08
556.66	28175.37
556.83	28229.20
556.99	28641.14
557.16	28348.57
557.32	28198.77
557.49	28723.05
557.65	28175.37
557.82	28203.46
557.98	28222.18
558.15	28432.83
558.32	28336.87
558.48	28493.68
558.65	28451.55
558.81	28713.69
558.98	28704.33
559.14	28348.57
559.31	28584.96
559.47	28226.86
559.64	28568.58
559.80	28844.76
559.97	28875.19
560.13	28793.27
560.30	28390.70
560.46	28788.59
560.63	28486.66
560.79	28912.64
560.96	28519.43
561.12	28730.08
561.29	28769.86
561.45	29024.98
561.61	28694.97
561.78	29081.16
561.94	28781.57
562.11	29097.54
562.27	28875.19
562.44	28950.09
562.60	28650.50
562.77	28498.36
562.93	28856.46
563.10	29333.93
563.26	28898.59
563.42	29226.27
563.59	29149.03
563.75	28905.62
563.92	29160.73
564.08	29001.58
564.24	29067.11
564.41	29142.01
564.57	28940.72
564.74	28643.48
564.90	29429.90
565.07	29366.70
565.23	29294.14
565.39	29088.18
565.56	29350.32
565.72	29113.92
565.88	29434.58
566.05	28898.59
566.21	29076.48
566.38	29240.31
566.54	29055.41
566.70	29301.17
566.87	29544.58
567.03	29172.44
567.19	29886.30
567.36	29207.55
567.52	28922.00
567.68	29378.40
567.85	29177.12
568.01	29151.37
568.17	29434.58
568.34	29500.11
568.50	29518.84
568.66	29467.34
568.83	29598.41
568.99	29193.50
569.15	29427.56
569.32	29326.91
569.48	29380.74
569.64	29226.27
569.81	29362.02
569.97	29439.26
570.13	29472.03
570.30	29312.87
570.46	29343.30
570.62	29596.07
570.78	29560.97
570.95	29003.92
571.11	29631.18
571.27	29525.86
571.43	29472.03
571.60	29699.06
571.76	29193.50
571.92	29507.13
572.09	29392.45
572.25	29310.53
572.41	29308.19
572.57	29486.07
572.74	29890.98
572.90	29284.78
573.06	29619.48
573.22	29500.11
573.38	29383.09
573.55	29776.30
573.71	30073.54
573.87	30115.67
574.03	29572.67
574.20	29806.72
574.36	29837.15
574.52	29696.72
574.68	29230.95
574.84	29699.06
575.01	29556.28
575.17	29900.34
575.33	29429.90
575.49	29713.10
575.65	29858.21
575.82	29890.98
575.98	29591.39
576.14	29706.08
576.30	29324.57
576.46	29443.94
576.62	29436.92
576.79	29862.90
576.95	29666.29
577.11	30050.14
577.27	29926.09
577.43	29668.63
577.59	29858.21
577.75	29673.31
577.92	29411.17
578.08	29481.39
578.24	29652.25
578.40	29722.46
578.56	29696.72
578.72	29429.90
578.88	29846.51
579.04	30258.45
579.21	29682.67
579.37	29724.80
579.53	29532.88
579.69	29406.49
579.85	29521.18
580.01	29640.54
580.17	29722.46
580.33	29619.48
580.49	29488.41
580.65	29649.91
580.82	30029.07
580.98	29802.04
581.14	29738.85
581.30	30115.67
581.46	29502.45
581.62	29226.27
581.78	29699.06
581.94	30141.42
582.10	29404.15
582.26	29668.63
582.42	29743.53
582.58	30010.35
582.74	29792.68
582.90	29968.22
583.06	30054.82
583.22	30022.05
583.38	29935.45
583.54	29675.65
583.70	29502.45
583.86	29682.67
584.02	29394.79
584.18	30115.67
584.34	29970.56
584.50	29961.20
584.66	29729.48
584.82	29813.74
584.98	29734.17
585.14	30017.37
585.30	29635.86
585.46	30031.41
585.62	29832.47
585.78	30178.87
585.94	29713.10
586.10	29984.60
586.26	30101.63
586.42	30078.22
586.58	30319.30
586.74	30033.75
586.90	29617.14
587.06	29675.65
587.22	29982.26
587.38	29675.65
587.54	29972.90
587.70	30146.10
587.86	29549.26
588.02	30085.25
588.18	30246.74
588.34	30267.81
588.49	30129.72
588.65	30092.27
588.81	30169.51
588.97	30022.05
589.13	30005.67
589.29	30078.22
589.45	29701.40
589.61	30433.99
589.77	30204.61
589.93	30146.10
590.08	30452.71
590.24	30213.98
590.40	30164.82
590.56	30377.81
590.72	30342.70
590.88	30230.36
591.04	30581.44
591.20	30394.20
591.35	30543.99
591.51	30609.53
591.67	30546.33
591.83	30249.08
591.99	30803.79
592.15	30323.98
592.31	30309.94
592.46	29951.84
592.62	30328.66
592.78	30221.00
592.94	29816.08
593.10	29933.11
593.26	30534.63
593.41	30567.40
593.57	30061.84
593.73	30188.23
593.89	30300.58
594.05	30089.93
594.20	29883.96
594.36	30431.65
594.52	30345.05
594.68	30328.66
594.84	30529.95
594.99	30326.32
595.15	30387.18
595.31	30700.81
595.47	30574.42
595.62	30693.79
595.78	30213.98
595.94	30483.14
596.10	30232.70
596.25	30567.40
596.41	30174.19
596.57	30302.92
596.73	30075.88
596.88	30239.72
597.04	30820.17
597.20	30251.42
597.36	30249.08
597.51	30455.05
597.67	30352.07
597.83	30321.64
597.99	30581.44
598.14	30377.81
598.30	30150.78
598.46	30497.18
598.61	30576.76
598.77	30443.35
598.93	30492.50
599.09	30595.48
599.24	30850.60
599.40	30820.17
599.56	30738.26
599.71	30513.56
599.87	30499.52
600.03	30464.41
600.18	30422.28
600.34	30443.35
600.50	30546.33
600.65	30211.64
600.81	30831.88
600.97	30433.99
601.12	30593.14
601.28	30869.33
601.44	30976.99
601.59	30677.40
601.75	30429.30
601.91	30764.00
602.06	30239.72
602.22	30597.82
602.37	30508.88
602.53	30600.16
602.69	30565.06
602.84	30218.66
603.00	30429.30
603.16	30525.27
603.31	30328.66
603.47	30520.59
603.62	30438.67
603.78	30532.29
603.94	30335.68
604.09	30288.87
604.25	30602.50
604.40	30422.28
604.56	30799.11
604.71	30391.86
604.87	30309.94
605.03	30377.81
605.18	30799.11
605.34	30300.58
605.49	30616.55
605.65	30539.31
605.80	30405.90
605.96	30616.55
606.12	30293.55
606.27	30457.39
606.43	30600.16
606.58	30050.14
606.74	30508.88
606.89	30426.96
607.05	30202.27
607.20	30541.65
607.36	30726.55
607.51	30197.59
607.67	30429.30
607.82	30424.62
607.98	30253.76
608.13	30462.07
608.29	30567.40
608.44	30228.02
608.60	30506.54
608.75	30448.03
608.91	30441.01
609.06	30143.76
609.22	30356.75
609.37	30356.75
609.53	30480.80
609.68	30218.66
609.84	30246.74
609.99	30345.05
610.15	29996.31
610.30	30052.48
610.46	29883.96
610.61	30340.36
610.76	30401.22
610.92	30506.54
611.07	30258.45
611.23	30057.16
611.38	30066.52
611.54	30059.50
611.69	29869.92
611.84	30155.46
612.00	30047.80
612.15	29663.95
612.31	29830.13
612.46	29935.45
612.62	30230.36
612.77	30022.05
612.92	30305.26
613.08	30197.59
613.23	29645.23
613.39	30209.29
613.54	29521.18
613.69	29825.45
613.85	29972.90
614.00	29717.78
614.15	29661.61
614.31	29825.45
614.46	29823.11
614.62	30008.01
614.77	29855.87
614.92	30050.14
615.08	29762.25
615.23	30066.52
615.38	29905.02
615.54	29638.20
615.69	29785.66
615.84	29685.01
616.00	29979.92
616.15	29584.37
616.30	29645.23
616.46	29902.68
616.61	29525.86
616.76	29930.77
616.92	30073.54
617.07	29532.88
617.22	29518.84
617.37	29666.29
617.53	29551.60
617.68	29350.32
617.83	29715.44
617.99	29776.30
618.14	29780.98
618.29	29759.91
618.45	29411.17
618.60	29383.09
618.75	29525.86
618.90	29619.48
619.06	29715.44
619.21	29476.71
619.36	29558.63
619.51	29317.55
619.67	29235.63
619.82	29142.01
619.97	29268.40
620.12	29249.67
620.28	29422.87
620.43	29275.42
620.58	29619.48
620.73	29277.76
620.89	29542.24
621.04	29790.34
621.19	29465.00
621.34	29472.03
621.49	28751.14
621.65	29291.80
621.80	29156.05
621.95	28833.06
622.10	29415.85
622.25	29099.88
622.41	29163.08
622.56	28926.68
622.71	29282.44
622.86	29034.35
623.01	28772.21
623.16	28985.19
623.32	28903.28
623.47	28847.10
623.62	28781.57
623.77	28828.38
623.92	29301.17
624.07	28615.39
624.23	29017.96
624.38	29071.79
624.53	29081.16
624.68	29170.10
624.83	29404.15
624.98	29167.76
625.13	28613.05
625.29	29057.75
625.44	28889.23
625.59	28664.54
625.74	28348.57
625.89	28697.31
626.04	28751.14
626.19	28849.44
626.34	28528.79
626.49	28554.54
626.65	28704.33
626.80	28678.58
626.95	28500.70
627.10	28547.51
627.25	28926.68
627.40	28280.69
627.55	28147.28
627.70	28411.76
627.85	28180.05
628.00	28283.03
628.15	28664.54
628.30	28460.91
628.45	28489.00
628.60	28280.69
628.76	28210.48
628.91	28301.76
629.06	28566.24
629.21	28786.25
629.36	28208.14
629.51	28283.03
629.66	27906.21
629.81	27999.83
629.96	28364.95
630.11	28343.89
630.26	27908.55
630.41	28222.18
630.56	27955.36
630.71	28285.37
630.86	27964.72
631.01	27892.16
631.16	27468.53
631.31	28107.49
631.46	27969.40
631.61	28222.18
631.76	28311.12
631.91	27805.56
632.06	27908.55
632.21	27880.46
632.36	28173.03
632.51	27344.48
632.66	27634.71
632.81	27866.42
632.96	27978.76
633.10	28212.82
633.25	28205.80
633.40	28020.89
633.55	27924.93
633.70	27789.18
633.85	27625.34
634.00	27580.87
634.15	27225.11
634.30	27597.26
634.45	27669.81
634.60	27391.29
634.75	27658.11
634.90	27424.06
635.05	27711.94
635.19	27688.54
635.34	27917.91
635.49	27859.40
635.64	27793.86
635.79	27651.09
635.94	27711.94
636.09	27615.98
636.24	27351.50
636.39	27204.05
636.53	27620.66
636.68	27316.39
636.83	27257.88
636.98	27208.73
637.13	27201.71
637.28	27679.18
637.43	27335.12
637.57	27594.92
637.72	27321.07
637.87	27667.47
638.02	27332.78
638.17	27346.82
638.32	27550.45
638.46	26902.12
638.61	27433.42
638.76	27108.08
638.91	27136.17
639.06	26972.33
639.20	27262.56
639.35	27538.74
639.50	27491.93
639.65	27505.98
639.80	27590.24
639.94	27178.30
640.09	27295.33
640.24	26904.46
640.39	26946.59
640.54	27033.19
640.68	26838.92
640.83	27407.67
640.98	27047.23
641.13	26829.56
641.27	27056.59
641.42	26806.16
641.57	26965.31
641.72	27021.48
641.86	26785.09
642.01	27072.98
642.16	26780.41
642.31	26672.74
642.45	26902.12
642.60	26263.15
642.75	26836.58
642.90	26464.44
643.04	26480.82
643.19	26717.22
643.34	26412.95
643.48	26520.61
643.63	27035.53
643.78	26455.08
643.93	26843.60
644.07	26864.67
644.22	26682.11
644.37	26295.92
644.51	26480.82
644.66	26345.07
644.81	26192.94
644.95	26389.54
645.10	26347.41
645.25	26455.08
645.39	26267.83
645.54	26771.05
645.69	26710.19
645.83	26136.76
645.98	26504.23
646.13	26787.43
646.27	26834.24
646.42	26040.80
646.57	26581.46
646.71	25949.52
646.86	25930.80
647.00	26410.60
647.15	26349.75
647.30	26246.77
647.44	26426.99
647.59	26221.02
647.74	26192.94
647.88	26235.06
648.03	26274.85
648.17	26237.41
648.32	26216.34
648.47	25949.52
648.61	26272.51
648.76	26080.59
648.90	25982.29
649.05	26108.68
649.20	26040.80
649.34	25977.61
649.49	25907.39
649.63	25853.56
649.78	25736.53
649.92	25781.00
650.07	25961.22
650.21	25886.32
650.36	25832.49
650.51	25717.81
650.65	26087.61
650.80	25942.50
650.94	25977.61
651.09	25722.49
651.23	26029.10
651.38	25776.32
651.52	25792.70
651.67	25790.36
651.81	25900.37
651.96	25750.57
652.10	26015.05
652.25	25495.46
652.39	25771.64
652.54	25851.22
652.68	25986.97
652.83	25991.65
652.97	25811.43
653.12	25659.29
653.26	25490.77
653.41	26001.01
653.55	25397.15
653.70	25214.59
653.84	25743.55
653.99	25516.52
654.13	25273.10
654.27	25240.34
654.42	25603.12
654.56	25500.14
654.71	25816.11
654.85	25886.32
655.00	25483.75
655.14	25060.12
655.29	25291.83
655.43	25333.96
655.57	25214.59
655.72	25235.66
655.86	25329.28
656.01	25151.40
656.15	25027.35
656.30	25235.66
656.44	25467.37
656.58	25142.03
656.73	25151.40
656.87	25340.98
657.01	25448.64
657.16	25516.52
657.30	25329.28
657.45	25191.19
657.59	25090.54
657.73	25163.10
657.88	25195.87
658.02	24884.58
658.16	25104.59
658.31	24865.85
658.45	24854.15
658.60	24432.85
658.74	24645.84
658.88	24554.56
659.03	24687.97
659.17	25186.50
659.31	24620.10
659.46	24842.45
659.60	24926.71
659.74	24638.82
659.89	24704.35
660.03	24828.40
660.17	24823.72
660.32	24741.80
660.46	24596.69
660.60	24807.34
660.74	24081.77
660.89	24568.60
661.03	24533.50
661.17	24615.41
661.32	24304.12
661.46	24372.00
661.60	24278.38
661.74	24278.38
661.89	24643.50
662.03	24465.62
662.17	24264.33
662.31	24231.57
662.46	24177.73
662.60	24128.58
662.74	24212.84
662.88	24313.48
663.03	23814.95
663.17	23896.87
663.31	24086.45
663.45	24217.52
663.60	23740.05
663.74	23618.35
663.88	23931.98
664.02	23599.62
664.17	24056.03
664.31	23960.06
664.45	23693.24
664.59	23845.38
664.73	23892.19
664.88	23672.18
665.02	23262.58
665.16	23187.69
665.30	23456.85
665.44	23267.27
665.59	23522.38
665.73	23363.23
665.87	23407.70
666.01	23360.89
666.15	23208.75
666.29	23508.34
666.44	23431.10
666.58	23073.00
666.72	23101.09
666.86	23232.16
667.00	23077.68
667.14	23129.17
667.28	22981.72
667.43	23229.82
667.57	22848.31
667.71	22892.78
667.85	23021.51
667.99	22946.61
668.13	22906.82
668.27	23009.81
668.41	23065.98
668.56	22628.30
668.70	22970.02
668.84	22675.11
668.98	22965.34
669.12	22895.12
669.26	22462.12
669.40	22677.45
669.54	22712.56
669.68	22867.03
669.82	22178.92
669.96	22331.05
670.10	22363.82
670.25	22642.34
670.39	22347.44
670.53	22101.68
670.67	22066.57
670.81	22146.15
670.95	22487.87
671.09	22319.35
671.23	22118.06
671.37	22251.47
671.51	22045.51
671.65	22370.84
671.79	22071.25
671.93	21968.27
672.07	22221.05
672.21	21984.65
672.35	21898.05
672.49	21624.21
672.63	21666.34
672.77	21872.31
672.91	21465.05
673.05	21568.04
673.19	21591.44
673.33	21572.72
673.47	21605.49
673.61	21652.30
673.75	21488.46
673.89	21598.46
674.03	21399.52
674.17	21429.94
674.31	21200.57
674.45	21104.61
674.59	21188.87
674.73	21034.39
674.87	21383.13
675.01	21216.96
675.15	21223.98
675.29	20812.04
675.43	21106.95
675.56	20922.05
675.70	20870.56
675.84	20641.18
675.98	20648.21
676.12	20844.81
676.26	20900.98
676.40	20863.54
676.54	20554.58
676.68	20411.81
676.82	20460.96
676.96	20577.99
677.10	20365.00
677.23	20203.50
677.37	20205.84
677.51	20250.32
677.65	20187.12
677.79	20009.24
677.93	19906.26
678.07	20034.99
678.21	19751.78
678.34	19527.09
678.48	19496.66
678.62	19723.69
678.76	19496.66
678.90	19557.52
679.04	19218.14
679.18	19594.96
679.31	19070.68
679.45	19269.63
679.59	19328.14
679.73	19288.35
679.87	18766.42
680.00	19023.87
680.14	18986.43
680.28	18993.45
680.42	19126.86
680.56	18726.63
680.70	18810.89
680.83	18963.02
680.97	18616.62
681.11	19021.53
681.25	18857.70
681.39	18735.99
681.52	18712.58
681.66	18546.40
681.80	18244.48
681.94	18085.32
682.07	18553.43
682.21	18523.00
682.35	18237.45
682.49	18104.04
682.62	17827.86
682.76	18090.00
682.90	18148.51
683.04	17818.50
683.17	17989.36
683.31	17980.00
683.45	17963.61
683.59	17905.10
683.72	17628.92
683.86	17561.04
684.00	17659.34
684.13	17263.79
684.27	17415.93
684.41	17432.31
684.55	17273.15
684.68	16898.67
684.82	17451.03
684.96	17228.68
685.09	17043.78
685.23	17177.19
685.37	17036.76
685.50	17043.78
685.64	17226.34
685.78	17034.42
685.91	17055.48
686.05	17118.68
686.19	17018.04
686.32	17053.14
686.46	16524.18
686.60	16716.11
686.73	16421.20
686.87	16327.58
687.01	16430.56
687.14	16095.86
687.28	16390.77
687.42	16299.49
687.55	16425.88
687.69	16304.17
687.82	16035.01
687.96	16140.33
688.10	15941.39
688.23	16128.63
688.37	15833.72
688.50	15929.69
688.64	15894.58
688.78	15658.18
688.91	15477.96
689.05	15719.04
689.18	15433.49
689.32	15426.47
689.46	15344.55
689.59	15276.68
689.73	15363.28
689.86	15094.11
690.00	15325.83
690.13	15073.05
690.27	15459.24
690.41	15019.22
690.54	15049.64
690.68	14759.42
690.81	15096.46
690.95	14979.43
691.08	15290.72
691.22	15180.71
691.35	14827.29
691.49	14614.30
691.62	14750.06
691.76	14604.94
691.89	14541.75
692.03	14366.21
692.16	14525.36
692.30	14223.44
692.43	14104.07
692.57	13994.06
692.70	14150.88
692.84	14015.13
692.97	13870.01
693.11	14265.57
693.24	14073.64
693.38	14111.09
693.51	13891.08
693.65	13942.57
693.78	13785.76
693.92	13675.75
694.05	13834.91
694.19	13666.39
694.32	13579.79
694.45	13226.37
694.59	13231.05
694.72	13275.52
694.86	13324.67
694.99	13245.09
695.13	13172.54
695.26	13217.01
695.39	12975.93
695.53	13312.97
695.66	13249.77
695.80	13114.02
695.93	13132.75
696.07	13235.73
696.20	13013.38
696.33	13046.15
696.47	12884.65
696.60	12889.33
696.73	12922.10
696.87	12868.27
697.00	12517.18
697.14	12425.90
697.27	12568.68
697.40	12245.68
697.54	12212.92
697.67	12212.92
697.80	12212.92
697.94	11927.37
698.07	12070.14
698.21	11927.37
698.34	12203.55
698.47	12369.73
698.61	12086.53
698.74	11997.59
698.87	11824.39
699.01	11721.40
699.14	11939.07
699.27	11847.79
699.40	11712.04
699.54	11829.07
699.67	11655.87
699.80	11433.52
699.94	11335.21
700.07	11452.24
700.20	11255.64
700.34	11456.92
700.47	11414.79
700.60	11222.87
700.73	11363.30
700.87	11173.72
701.00	11267.34
701.13	11016.90
701.26	11150.31
701.40	11101.16
701.53	11159.67
701.66	11028.60
701.79	10766.46
701.93	10942.00
702.06	11037.97
702.19	10562.84
702.32	10782.85
702.46	10604.97
702.59	10616.67
702.72	10558.16
702.85	10602.63
702.99	10537.09
703.12	10108.77
703.25	10373.25
703.38	10349.85
703.51	10506.66
703.65	10298.36
703.78	10153.24
703.91	10162.61
704.04	10171.97
704.17	10373.25
704.31	9987.07
704.44	9886.42
704.57	9926.21
704.70	9820.89
704.83	9741.31
704.96	9944.94
705.10	9659.39
705.23	9624.28
>>>>>End Processed Spectral Data<<<<<
