SpectraSuite Data File
++++++++++++++++++++++++++++++++++++
Date: Fri Oct 18 13:58:23 GMT-05:00 2013
User: bianchi
Dark Spectrum Present: No
Reference Spectrum Present: No
Number of Sampled Component Spectra: 1
Spectrometers: USB2+H05261
Integration Time (usec): 50000 (USB2+H05261)
Spectra Averaged: 1 (USB2+H05261)
Boxcar Smoothing: 0 (USB2+H05261)
Correct for Electrical Dark: No (USB2+H05261)
Strobe/Lamp Enabled: No (USB2+H05261)
Correct for Detector Non-linearity: No (USB2+H05261)
Correct for Stray Light: No (USB2+H05261)
Number of Pixels in Processed Spectrum: 2048
>>>>>Begin Processed Spectral Data<<<<<
365.73	0.00
365.92	0.00
366.12	0.00
366.32	0.00
366.52	0.00
366.72	0.00
366.91	0.00
367.11	0.00
367.31	0.00
367.51	0.00
367.70	0.00
367.90	0.00
368.10	0.00
368.30	0.00
368.49	0.00
368.69	0.00
368.89	0.00
369.09	0.00
369.28	0.00
369.48	0.00
369.68	0.00
369.87	0.00
370.07	0.00
370.27	0.00
370.47	0.00
370.66	147.45
370.86	107.66
371.06	107.66
371.25	131.07
371.45	56.17
371.65	159.16
371.84	119.37
372.04	145.11
372.24	138.09
372.44	175.54
372.63	175.54
372.83	271.50
373.03	173.20
373.22	196.60
373.42	133.41
373.62	191.92
373.81	156.82
374.01	203.63
374.21	231.71
374.40	212.99
374.60	222.35
374.79	212.99
374.99	271.50
375.19	334.70
375.38	259.80
375.58	227.03
375.78	220.01
375.97	217.67
376.17	376.83
376.37	280.86
376.56	236.39
376.76	229.37
376.95	250.44
377.15	252.78
377.35	224.69
377.54	397.89
377.74	306.61
377.93	198.95
378.13	369.80
378.33	327.68
378.52	252.78
378.72	231.71
378.91	271.50
379.11	285.55
379.31	252.78
379.50	339.38
379.70	334.70
379.89	341.72
380.09	238.73
380.28	285.55
380.48	327.68
380.68	376.83
380.87	334.70
381.07	304.27
381.26	320.65
381.46	334.70
381.65	374.49
381.85	220.01
382.04	362.78
382.24	257.46
382.43	327.68
382.63	278.52
382.83	330.02
383.02	294.91
383.22	411.93
383.41	266.82
383.61	351.08
383.80	369.80
384.00	393.21
384.19	379.17
384.39	362.78
384.58	388.53
384.78	390.87
384.97	418.96
385.17	327.68
385.36	416.62
385.56	416.62
385.75	390.87
385.95	440.02
386.14	423.64
386.34	407.25
386.53	339.38
386.72	299.59
386.92	472.79
387.11	397.89
387.31	400.23
387.50	404.91
387.70	365.12
387.89	440.02
388.09	383.85
388.28	440.02
388.48	390.87
388.67	421.30
388.86	425.98
389.06	407.25
389.25	461.09
389.45	458.74
389.64	414.27
389.84	505.56
390.03	489.17
390.22	407.25
390.42	557.05
390.61	554.71
390.81	554.71
391.00	451.72
391.19	517.26
391.39	475.13
391.58	503.22
391.78	519.60
391.97	564.07
392.16	575.77
392.36	552.37
392.55	559.39
392.75	458.74
392.94	514.92
393.13	484.49
393.33	510.24
393.52	559.39
393.71	479.81
393.91	538.32
394.10	636.63
394.29	566.41
394.49	599.18
394.68	552.37
394.88	571.09
395.07	566.41
395.26	653.01
395.46	629.60
395.65	599.18
395.84	657.69
396.04	683.44
396.23	657.69
396.42	592.16
396.62	755.99
396.81	617.90
397.00	678.76
397.19	629.60
397.39	641.31
397.58	676.41
397.77	734.93
397.97	601.52
398.16	692.80
398.35	702.16
398.55	645.99
398.74	702.16
398.93	765.36
399.12	725.57
399.32	657.69
399.51	709.18
399.70	786.42
399.90	807.48
400.09	669.39
400.28	842.59
400.47	725.57
400.67	683.44
400.86	819.19
401.05	795.78
401.24	725.57
401.44	826.21
401.63	849.61
401.82	807.48
402.01	793.44
402.21	816.85
402.40	788.76
402.59	873.02
402.78	835.57
402.97	873.02
403.17	844.93
403.36	898.77
403.55	837.91
403.74	931.53
403.93	882.38
404.13	795.78
404.32	910.47
404.51	976.00
404.70	929.19
404.89	954.94
405.09	887.06
405.28	1001.75
405.47	961.96
405.66	959.62
405.85	966.64
406.05	1015.79
406.24	1006.43
406.43	978.34
406.62	987.71
406.81	1053.24
407.00	1090.69
407.20	1069.62
407.39	1029.84
407.58	1039.20
407.77	1081.33
407.96	1118.78
408.15	1097.71
408.34	1081.33
408.54	1083.67
408.73	1186.65
408.92	1128.14
409.11	1200.69
409.30	1198.35
409.49	1179.63
409.68	1165.59
409.87	1210.06
410.07	1263.89
410.26	1186.65
410.45	1158.57
410.64	1097.71
410.83	1280.27
411.02	1214.74
411.21	1240.48
411.40	1203.04
411.59	1273.25
411.78	1303.68
411.98	1193.67
412.17	1401.98
412.36	1277.93
412.55	1376.24
412.74	1348.15
412.93	1394.96
413.12	1324.74
413.31	1486.24
413.50	1406.66
413.69	1380.92
413.88	1504.96
414.07	1401.98
414.26	1430.07
414.45	1474.54
414.64	1397.30
414.83	1511.99
415.02	1497.94
415.22	1453.47
415.41	1437.09
415.60	1563.48
415.79	1584.54
415.98	1544.75
416.17	1678.16
416.36	1624.33
416.55	1570.50
416.74	1621.99
416.93	1617.31
417.12	1675.82
417.31	1739.02
417.50	1624.33
417.69	1727.32
417.88	1710.93
418.07	1624.33
418.26	1699.23
418.45	1790.51
418.64	1753.06
418.83	1858.39
419.02	1804.55
419.21	1778.81
419.39	1877.11
419.58	1767.10
419.77	1844.34
419.96	1928.60
420.15	1893.49
420.34	1952.01
420.53	1870.09
420.72	1881.79
420.91	1916.90
421.10	1947.33
421.29	1921.58
421.48	1846.68
421.67	2015.20
421.86	1930.94
422.05	1940.30
422.24	1956.69
422.43	1959.03
422.61	1977.75
422.80	2043.29
422.99	1994.14
423.18	2038.61
423.37	2101.80
423.56	1980.09
423.75	2054.99
423.94	2076.06
424.13	1790.51
424.32	1944.99
424.50	2052.65
424.69	1998.82
424.88	2033.93
425.07	1937.96
425.26	1933.28
425.45	2080.74
425.64	2071.37
425.83	2033.93
426.01	2085.42
426.20	2057.33
426.39	2111.16
426.58	1987.11
426.77	2090.10
426.96	2099.46
427.15	2092.44
427.33	2282.02
427.52	2167.34
427.71	2221.17
427.90	2132.23
428.09	2026.90
428.28	2195.42
428.46	2202.44
428.65	2195.42
428.84	2169.68
429.03	2298.41
429.22	2160.31
429.40	2153.29
429.59	2153.29
429.78	2202.44
429.97	2122.87
430.16	2279.68
430.34	2356.92
430.53	2389.69
430.72	2328.83
430.91	2342.88
431.10	2317.13
431.28	2431.82
431.47	2279.68
431.66	2335.85
431.85	2267.98
432.03	2427.14
432.22	2431.82
432.41	2408.41
432.60	2572.25
432.79	2399.05
432.97	2331.17
433.16	2476.29
433.35	2420.11
433.54	2602.68
433.72	2616.72
433.91	2487.99
434.10	2612.04
434.28	2520.76
434.47	2569.91
434.66	2544.16
434.85	2546.50
435.03	2553.52
435.22	2527.78
435.41	2626.08
435.59	2630.76
435.78	2696.30
435.97	2675.23
436.16	2710.34
436.34	2719.70
436.53	2719.70
436.72	2909.29
436.90	2785.24
437.09	2771.19
437.28	2633.10
437.46	2829.71
437.65	2672.89
437.84	2801.62
438.02	2822.69
438.21	2885.88
438.40	2799.28
438.58	2956.10
438.77	2906.95
438.96	2895.24
439.14	2977.16
439.33	2862.48
439.52	3026.31
439.70	2972.48
439.89	3063.76
440.08	3129.30
440.26	3059.08
440.45	3138.66
440.63	3122.27
440.82	3173.77
441.01	3201.85
441.19	3084.83
441.38	3129.30
441.57	3213.56
441.75	3122.27
441.94	3344.63
442.12	3155.04
442.31	3318.88
442.50	3349.31
442.68	3293.13
442.87	3281.43
443.05	3412.50
443.24	3297.81
443.43	3435.91
443.61	3372.71
443.80	3517.83
443.98	3398.46
444.17	3272.07
444.35	3473.36
444.54	3555.27
444.73	3543.57
444.91	3431.23
445.10	3449.95
445.28	3379.73
445.47	3328.24
445.65	3342.28
445.84	3557.61
446.02	3581.02
446.21	3480.38
446.39	3384.41
446.58	3571.66
446.77	3438.25
446.95	3442.93
447.14	3520.17
447.32	3499.10
447.51	3541.23
447.69	3475.70
447.88	3545.91
448.06	3524.85
448.25	3496.76
448.43	3599.74
448.62	3487.40
448.80	3585.70
448.99	3611.45
449.17	3618.47
449.36	3611.45
449.54	3634.85
449.73	3723.79
449.91	3667.62
450.10	3791.67
450.28	3815.07
450.46	3705.07
450.65	3719.11
450.83	3786.99
451.02	3700.39
451.20	3882.95
451.39	3822.09
451.57	3763.58
451.76	3630.17
451.94	3819.75
452.13	3920.40
452.31	3885.29
452.49	3808.05
452.68	3840.82
452.86	3978.91
453.05	3899.33
453.23	3894.65
453.42	3885.29
453.60	3850.18
453.78	3969.55
453.97	3896.99
454.15	3892.31
454.34	3854.86
454.52	3962.53
454.70	4030.40
454.89	4173.18
455.07	4142.75
455.26	4049.13
455.44	4168.49
455.62	4098.28
455.81	4212.96
455.99	4067.85
456.17	4093.60
456.36	4215.30
456.54	4278.50
456.73	4236.37
456.91	4266.80
457.09	4388.50
457.28	4329.99
457.46	4315.95
457.64	4589.79
457.83	4252.75
458.01	4327.65
458.19	4440.00
458.38	4376.80
458.56	4367.44
458.74	4456.38
458.93	4468.08
459.11	4449.36
459.29	4418.93
459.48	4491.49
459.66	4624.90
459.84	4498.51
460.03	4566.39
460.21	4585.11
460.39	4606.17
460.57	4414.25
460.76	4477.44
460.94	4676.39
461.12	4486.81
461.31	4643.62
461.49	4571.07
461.67	4652.98
461.85	4751.29
462.04	4571.07
462.22	4830.87
462.40	4758.31
462.59	4884.70
462.77	4767.67
462.95	4814.48
463.13	4856.61
463.32	4842.57
463.50	4758.31
463.68	4994.70
463.86	4779.37
464.05	4809.80
464.23	4903.42
464.41	4915.12
464.59	4737.24
464.78	5015.77
464.96	4805.12
465.14	4798.10
465.32	5050.88
465.50	4985.34
465.69	5102.37
465.87	5011.09
466.05	4952.57
466.23	5034.49
466.41	5013.43
466.60	5221.74
466.78	5053.22
466.96	5004.07
467.14	5029.81
467.32	5163.22
467.51	5179.61
467.69	5022.79
467.87	5203.01
468.05	5055.56
468.23	5081.30
468.41	5146.84
468.60	5174.92
468.78	5418.34
468.96	5144.50
469.14	5282.59
469.32	5226.42
469.50	5195.99
469.69	5303.65
469.87	5446.43
470.05	5394.93
470.23	5549.41
470.41	5418.34
470.59	5488.56
470.77	5376.21
470.95	5542.39
471.14	5551.75
471.32	5572.82
471.50	5671.12
471.68	5820.91
471.86	5895.81
472.04	5516.64
472.22	5923.90
472.40	5614.95
472.58	5717.93
472.77	5804.53
472.95	5851.34
473.13	5926.24
473.31	5844.32
473.49	5877.09
473.67	5940.28
473.85	5884.11
474.03	6125.18
474.21	5844.32
474.39	6087.73
474.57	6052.63
474.75	6265.61
474.93	6218.80
475.12	6237.53
475.30	6382.64
475.48	6380.30
475.66	6326.47
475.84	6143.91
476.02	6457.54
476.20	6384.98
476.38	6410.73
476.56	6710.32
476.74	6502.01
476.92	6504.35
477.10	6637.76
477.28	6623.72
477.46	6675.21
477.64	6874.15
477.82	6925.65
478.00	6951.39
478.18	6946.71
478.36	6998.20
478.54	7286.09
478.72	7026.29
478.90	7019.27
479.08	7332.90
479.26	7084.80
479.44	7297.79
479.62	7407.80
479.80	7344.60
479.98	7349.28
480.16	7536.52
480.34	7480.35
480.52	7751.85
480.70	7744.83
480.88	7569.29
481.06	7719.09
481.24	7772.92
481.41	7838.45
481.59	7953.14
481.77	8105.28
481.95	8070.17
482.13	7985.91
482.31	7915.69
482.49	8273.79
482.67	8219.96
482.85	8381.46
483.03	8528.91
483.21	8400.18
483.39	8444.65
483.57	8498.49
483.74	8674.03
483.92	8840.20
484.10	8702.11
484.28	9095.32
484.46	9303.63
484.64	9071.92
484.82	9001.70
485.00	9235.75
485.18	9242.78
485.35	9441.72
485.53	9514.28
485.71	9451.08
485.89	9699.18
486.07	9657.05
486.25	9790.46
486.43	9645.35
486.61	9568.11
486.78	9806.84
486.96	10113.45
487.14	10085.37
487.32	9820.89
487.50	10094.73
487.68	10106.43
487.85	10272.61
488.03	10523.05
488.21	10576.88
488.39	10616.67
488.57	10717.31
488.75	10775.83
488.92	10888.17
489.10	10888.17
489.28	10932.64
489.46	11222.87
489.64	11339.90
489.81	10942.00
489.99	11260.32
490.17	11456.92
490.35	11669.91
490.53	11382.03
490.70	11941.41
490.88	11688.64
491.06	12020.99
491.24	11833.75
491.41	11789.28
491.59	12077.16
491.77	12114.61
491.95	12201.21
492.13	12173.13
492.30	12285.47
492.48	12367.39
492.66	12393.14
492.84	12418.88
493.01	12666.98
493.19	12690.38
493.37	12894.01
493.54	12683.36
493.72	12807.41
493.90	12870.61
494.08	13219.35
494.25	13006.36
494.43	13158.49
494.61	13324.67
494.79	13350.42
494.96	13397.23
495.14	13673.41
495.32	13570.43
495.49	13603.19
495.67	13729.58
495.85	13661.71
496.02	13984.70
496.20	13734.26
496.38	14230.46
496.55	14080.66
496.73	14075.98
496.91	14120.45
497.09	14333.44
497.26	14391.95
497.44	14136.84
497.62	14448.13
497.79	14256.20
497.97	14602.60
498.14	14876.44
498.32	14829.63
498.50	14841.34
498.67	14944.32
498.85	15173.69
499.03	15108.16
499.20	15131.56
499.38	14846.02
499.56	15328.17
499.73	15365.62
499.91	15445.20
500.08	15477.96
500.26	15389.02
500.44	15330.51
500.61	15566.90
500.79	15637.12
500.97	15903.94
501.14	15920.32
501.32	16063.10
501.49	15943.73
501.67	16145.02
501.84	16114.59
502.02	15896.92
502.20	16154.38
502.37	16215.23
502.55	16173.10
502.72	16355.66
502.90	16372.05
503.07	16402.47
503.25	16360.34
503.43	16355.66
503.60	16751.21
503.78	16793.34
503.95	16688.02
504.13	16746.53
504.30	16741.85
504.48	16711.42
504.65	16683.34
504.83	16905.69
505.01	17270.81
505.18	17322.30
505.36	17128.04
505.53	17139.74
505.71	17153.79
505.88	17158.47
506.06	17364.43
506.23	17355.07
506.41	17427.63
506.58	17371.46
506.76	17303.58
506.93	17720.20
507.11	17525.93
507.28	17331.67
507.46	17610.19
507.63	17699.13
507.81	17867.65
507.98	17743.60
508.16	17523.59
508.33	17886.37
508.50	17872.33
508.68	17980.00
508.85	18511.30
509.03	18321.71
509.20	18310.01
509.38	18368.52
509.55	18321.71
509.73	18707.90
509.90	18366.18
510.08	18338.10
510.25	18104.04
510.42	18752.37
510.60	18707.90
510.77	18799.18
510.95	18913.87
511.12	18703.22
511.30	18614.28
511.47	18813.23
511.64	18932.59
511.82	19222.82
511.99	19007.49
512.17	19236.86
512.34	19091.75
512.51	19456.87
512.69	19353.89
512.86	19171.33
513.04	19456.87
513.21	19204.10
513.38	19756.46
513.56	19735.40
513.73	19496.66
513.90	19473.26
514.08	19613.69
514.25	19674.54
514.43	19676.88
514.60	20006.90
514.77	19791.57
514.95	19948.39
515.12	19992.86
515.29	19943.70
515.47	20166.06
515.64	20379.04
515.81	19962.43
515.99	20173.08
516.16	20304.15
516.33	20259.68
516.51	20484.37
516.68	20056.05
516.85	20416.49
517.03	20404.79
517.20	20491.39
517.37	20411.81
517.54	20423.51
517.72	20863.54
517.89	20498.41
518.06	20631.82
518.24	20641.18
518.41	20933.75
518.58	20865.88
518.75	20833.11
518.93	21238.02
519.10	20865.88
519.27	21010.99
519.45	20713.74
519.62	21156.10
519.79	21420.58
519.96	20870.56
520.14	21387.82
520.31	21081.21
520.48	21600.80
520.65	21123.33
520.83	21799.75
521.00	21572.72
521.17	21160.78
521.34	21788.05
521.52	21544.63
521.69	21666.34
521.86	21542.29
522.03	22045.51
522.20	22129.77
522.38	21832.52
522.55	21958.91
522.72	21989.33
522.89	22148.49
523.07	22384.88
523.24	22265.52
523.41	22267.86
523.58	22026.78
523.75	22415.31
523.92	22398.93
524.10	22148.49
524.27	22207.00
524.44	22714.90
524.61	22672.77
524.78	22602.55
524.96	22515.95
525.13	22487.87
525.30	22806.18
525.47	22988.74
525.64	22361.48
525.81	22780.43
525.98	22909.16
526.16	22829.59
526.33	22981.72
526.50	23204.07
526.67	22925.55
526.84	22860.01
527.01	22785.12
527.18	23426.42
527.36	22970.02
527.53	23328.12
527.70	23508.34
527.87	23414.72
528.04	22890.44
528.21	23456.85
528.38	23166.62
528.55	23578.56
528.72	23421.74
528.89	23393.65
529.07	23648.77
529.24	23293.01
529.41	23744.73
529.58	23826.65
529.75	23555.15
529.92	23639.41
530.09	23728.35
530.26	23737.71
530.43	23751.76
530.60	23548.13
530.77	23854.74
530.94	24034.96
531.11	24133.26
531.28	24084.11
531.46	23899.21
531.63	24137.94
531.80	24020.92
531.97	23786.86
532.14	24428.17
532.31	24201.14
532.48	24503.07
532.65	24205.82
532.82	24102.84
532.99	24531.15
533.16	23857.08
533.33	24554.56
533.50	24456.26
533.67	24812.02
533.84	24503.07
534.01	24486.68
534.18	24130.92
534.35	24521.79
534.52	24629.46
534.69	24669.25
534.86	24753.51
535.03	24903.30
535.20	24678.61
535.37	24760.53
535.54	24732.44
535.71	24905.64
535.88	24676.27
536.05	24915.00
536.22	24858.83
536.38	25235.66
536.55	24858.83
536.72	25003.94
536.89	25036.71
537.06	24959.47
537.23	25106.93
537.40	25221.61
537.57	25149.06
537.74	25081.18
537.91	25406.52
538.08	25303.53
538.25	25324.60
538.42	25338.64
538.59	25476.73
538.75	24954.79
538.92	25411.20
539.09	25689.72
539.26	25713.13
539.43	25645.25
539.60	25680.36
539.77	25834.83
539.94	25628.87
540.11	25654.61
540.28	25656.95
540.44	25659.29
540.61	25266.08
540.78	25869.94
540.95	25680.36
541.12	25804.41
541.29	25921.43
541.46	25507.16
541.62	25958.88
541.79	25736.53
541.96	25532.90
542.13	25813.77
542.30	26160.17
542.47	26115.70
542.63	26349.75
542.80	26373.16
542.97	26274.85
543.14	26555.72
543.31	26328.69
543.48	26508.91
543.64	26597.85
543.81	26410.60
543.98	26724.24
544.15	26548.70
544.32	26969.99
544.48	26506.57
544.65	26808.50
544.82	27136.17
544.99	26127.40
545.16	26682.11
545.32	26647.00
545.49	26544.02
545.66	26974.67
545.83	26897.44
546.00	26782.75
546.16	27229.79
546.33	26703.17
546.50	26464.44
546.67	26738.28
546.83	26794.45
547.00	26932.54
547.17	27138.51
547.34	27150.21
547.50	27227.45
547.67	27199.37
547.84	27330.44
548.00	27234.47
548.17	27346.82
548.34	27604.28
548.51	27594.92
548.67	27531.72
548.84	27194.68
549.01	27456.82
549.18	27632.36
549.34	27552.79
549.51	27421.72
549.68	27236.81
549.84	27463.85
550.01	27573.85
550.18	27363.20
550.34	27758.75
550.51	27463.85
550.68	27725.99
550.84	27707.26
551.01	27978.76
551.18	27433.42
551.34	27339.80
551.51	27821.95
551.68	27850.03
551.84	27854.72
552.01	27601.94
552.18	27826.63
552.34	27672.15
552.51	27817.27
552.68	27751.73
552.84	28105.15
553.01	27861.74
553.18	27819.61
553.34	28194.09
553.51	27850.03
553.67	28472.62
553.84	28355.59
554.01	27770.46
554.17	28318.14
554.34	27896.85
554.51	28034.94
554.67	28091.11
554.84	27749.39
555.00	28318.14
555.17	28273.67
555.33	28287.71
555.50	28184.73
555.67	28423.47
555.83	28320.48
556.00	28189.41
556.16	28648.16
556.33	28177.71
556.50	28570.92
556.66	28379.00
556.83	28400.06
556.99	28699.65
557.16	28769.86
557.32	28662.20
557.49	28734.76
557.65	28486.66
557.82	28320.48
557.98	28416.44
558.15	28580.28
558.32	28790.93
558.48	28875.19
558.65	28704.33
558.81	28545.17
558.98	28629.43
559.14	29034.35
559.31	28329.84
559.47	28503.04
559.64	28376.66
559.80	28760.50
559.97	29256.70
560.13	28608.37
560.30	28872.85
560.46	29167.76
560.63	29160.73
560.79	28716.03
560.96	29247.33
561.12	28992.22
561.29	29003.92
561.45	28786.25
561.61	28952.43
561.78	29142.01
561.94	29284.78
562.11	29160.73
562.27	29537.56
562.44	28968.81
562.60	29146.69
562.77	29111.58
562.93	29090.52
563.10	29413.51
563.26	29226.27
563.42	29420.53
563.59	28914.98
563.75	29565.65
563.92	29362.02
564.08	29252.02
564.24	29242.65
564.41	28870.51
564.57	29177.12
564.74	29322.23
564.90	29216.91
565.07	29270.74
565.23	29465.00
565.39	29125.63
565.56	29614.80
565.72	29535.22
565.88	28982.85
566.05	29670.97
566.21	29343.30
566.38	29298.83
566.54	29820.77
566.70	29642.88
566.87	29666.29
567.03	29556.28
567.19	29729.48
567.36	29589.05
567.52	29242.65
567.68	29553.94
567.85	29074.13
568.01	29340.96
568.17	29343.30
568.34	29839.49
568.50	29614.80
568.66	29394.79
568.83	29621.82
568.99	29869.92
569.15	29556.28
569.32	29895.66
569.48	29205.20
569.64	29376.06
569.81	29575.01
569.97	29525.86
570.13	29439.26
570.30	29144.35
570.46	29745.87
570.62	29567.99
570.78	29528.20
570.95	29333.93
571.11	29404.15
571.27	29130.31
571.43	29347.98
571.60	29799.70
571.76	29706.08
571.92	29502.45
572.09	29502.45
572.25	29713.10
572.41	30026.73
572.57	29289.46
572.74	29942.47
572.90	29677.99
573.06	29607.78
573.22	29752.89
573.38	29486.07
573.55	29659.27
573.71	29961.20
573.87	29869.92
574.03	30143.76
574.20	29916.73
574.36	29724.80
574.52	29490.75
574.68	29869.92
574.84	29914.39
575.01	30108.65
575.17	29558.63
575.33	29301.17
575.49	29895.66
575.65	30000.99
575.82	30176.53
575.98	29837.15
576.14	29656.93
576.30	29979.92
576.46	29841.83
576.62	29947.15
576.79	29965.88
576.95	29502.45
577.11	30340.36
577.27	29963.54
577.43	29797.36
577.59	29949.50
577.75	29984.60
577.92	29483.73
578.08	29825.45
578.24	29497.77
578.40	29956.52
578.56	29905.02
578.72	29556.28
578.88	30415.26
579.04	30115.67
579.21	29905.02
579.37	30064.18
579.53	30115.67
579.69	29788.00
579.85	30281.85
580.01	29858.21
580.17	29731.83
580.33	29907.37
580.49	29788.00
580.65	29919.07
580.82	30068.86
580.98	29963.54
581.14	30169.51
581.30	29715.44
581.46	29738.85
581.62	29991.62
581.78	29975.24
581.94	29881.62
582.10	29649.91
582.26	30096.95
582.42	30132.06
582.58	30176.53
582.74	29963.54
582.90	30452.71
583.06	29874.60
583.22	30143.76
583.38	30087.59
583.54	30085.25
583.70	30106.31
583.86	30019.71
584.02	29670.97
584.18	30103.97
584.34	30536.97
584.50	30459.73
584.66	30008.01
584.82	29928.43
584.98	30036.09
585.14	29921.41
585.30	29890.98
585.46	29893.32
585.62	29935.45
585.78	30183.55
585.94	30328.66
586.10	30155.46
586.26	30066.52
586.42	30581.44
586.58	30766.34
586.74	29881.62
586.90	30022.05
587.06	30003.33
587.22	30197.59
587.38	29741.19
587.54	30363.77
587.70	30302.92
587.86	30242.06
588.02	30277.17
588.18	30335.68
588.34	30326.32
588.49	30082.91
588.65	30270.15
588.81	29837.15
588.97	30541.65
589.13	30141.42
589.29	30115.67
589.45	30139.08
589.61	30064.18
589.77	30789.75
589.93	30504.20
590.08	30459.73
590.24	30347.39
590.40	30277.17
590.56	30363.77
590.72	30637.61
590.88	30218.66
591.04	30169.51
591.20	30747.62
591.35	30433.99
591.51	30749.96
591.67	30466.75
591.83	30651.66
591.99	30323.98
592.15	30958.27
592.31	30595.48
592.46	30370.79
592.62	30054.82
592.78	30263.13
592.94	30426.96
593.10	30242.06
593.26	30368.45
593.41	30536.97
593.57	30492.50
593.73	30857.62
593.89	30841.24
594.05	30923.16
594.20	30319.30
594.36	30782.73
594.52	30342.70
594.68	30213.98
594.84	30029.07
594.99	30773.36
595.15	30466.75
595.31	30801.45
595.47	31136.15
595.62	31204.02
595.78	30588.46
595.94	30712.51
596.10	30366.11
596.25	30499.52
596.41	30384.83
596.57	30209.29
596.73	30740.60
596.88	30464.41
597.04	30993.37
597.20	30988.69
597.36	30906.77
597.51	31054.23
597.67	30433.99
597.83	30286.53
597.99	30904.43
598.14	30771.02
598.30	30759.32
598.46	30658.68
598.61	30864.64
598.77	30403.56
598.93	30574.42
599.09	30932.52
599.24	31295.30
599.40	30595.48
599.56	30843.58
599.71	30511.22
599.87	30745.28
600.03	30654.00
600.18	30895.07
600.34	30642.29
600.50	30602.50
600.65	30558.03
600.81	30651.66
600.97	30813.15
601.12	30752.30
601.28	30632.93
601.44	30693.79
601.59	30661.02
601.75	30529.95
601.91	30693.79
602.06	30506.54
602.22	30504.20
602.37	30527.61
602.53	30492.50
602.69	30703.15
602.84	30597.82
603.00	30562.72
603.16	31068.27
603.31	30829.54
603.47	30700.81
603.62	30424.62
603.78	30604.84
603.94	30272.49
604.09	30890.39
604.25	30686.76
604.40	30202.27
604.56	30719.53
604.71	31000.40
604.87	30824.86
605.03	30600.16
605.18	30855.28
605.34	30829.54
605.49	30396.54
605.65	30373.13
605.80	30206.95
605.96	30391.86
606.12	30979.33
606.27	30976.99
606.43	30171.85
606.58	30623.57
606.74	30850.60
606.89	30780.39
607.05	31005.08
607.20	30700.81
607.36	30745.28
607.51	30361.43
607.67	30543.99
607.82	30546.33
607.98	30331.00
608.13	30953.58
608.29	30403.56
608.44	30305.26
608.60	30752.30
608.75	30642.29
608.91	30504.20
609.06	30258.45
609.22	30759.32
609.37	30323.98
609.53	30422.28
609.68	30192.91
609.84	30265.47
609.99	30342.70
610.15	30373.13
610.30	30174.19
610.46	30583.78
610.61	30232.70
610.76	30749.96
610.92	30714.85
611.07	30403.56
611.23	30045.46
611.38	30110.99
611.54	30125.04
611.69	30038.44
611.84	30108.65
612.00	30129.72
612.15	30246.74
612.31	30284.19
612.46	29898.00
612.62	30555.69
612.77	30188.23
612.92	30415.26
613.08	30085.25
613.23	30209.29
613.39	29986.94
613.54	30309.94
613.69	30078.22
613.85	30148.44
614.00	30148.44
614.15	30448.03
614.31	30129.72
614.46	30181.21
614.62	30197.59
614.77	30129.72
614.92	30237.38
615.08	30036.09
615.23	29860.55
615.38	30211.64
615.54	29935.45
615.69	29986.94
615.84	30050.14
616.00	30066.52
616.15	30012.69
616.30	30302.92
616.46	30015.03
616.61	29872.26
616.76	30286.53
616.92	30211.64
617.07	29799.70
617.22	30022.05
617.37	29551.60
617.53	29876.94
617.68	29942.47
617.83	29778.64
617.99	29500.11
618.14	29729.48
618.29	29696.72
618.45	29984.60
618.60	29790.34
618.75	29846.51
618.90	29827.79
619.06	29809.06
619.21	29495.43
619.36	29539.90
619.51	29476.71
619.67	29556.28
619.82	29331.59
619.97	29404.15
620.12	29259.04
620.28	29434.58
620.43	29434.58
620.58	29549.26
620.73	29935.45
620.89	29254.36
621.04	29509.47
621.19	29434.58
621.34	29694.38
621.49	29303.51
621.65	29158.39
621.80	28959.45
621.95	29247.33
622.10	29453.30
622.25	28968.81
622.41	29017.96
622.56	29589.05
622.71	29383.09
622.86	29048.39
623.01	28875.19
623.16	29575.01
623.32	28886.89
623.47	29366.70
623.62	29266.06
623.77	28884.55
623.92	29001.58
624.07	29214.57
624.23	29092.86
624.38	29088.18
624.53	28769.86
624.68	29324.57
624.83	29287.12
624.98	29067.11
625.13	29230.95
625.29	29355.00
625.44	29177.12
625.59	28961.79
625.74	28814.34
625.89	28680.92
626.04	28856.46
626.19	28542.83
626.34	28694.97
626.49	29212.23
626.65	28786.25
626.80	28788.59
626.95	28690.29
627.10	28613.05
627.25	28987.53
627.40	29132.65
627.55	28514.75
627.70	28451.55
627.85	28657.52
628.00	28650.50
628.15	28453.89
628.30	28680.92
628.45	28503.04
628.60	28219.84
628.76	28601.35
628.91	28517.09
629.06	28554.54
629.21	29074.13
629.36	28648.16
629.51	28327.50
629.66	28465.60
629.81	28114.52
629.96	28496.02
630.11	28470.28
630.26	28212.82
630.41	28121.54
630.56	28622.41
630.71	28086.43
630.86	28397.72
631.01	28386.02
631.16	28341.55
631.31	28238.56
631.46	28170.69
631.61	28493.68
631.76	28142.60
631.91	28205.80
632.06	28093.45
632.21	28276.01
632.36	28322.82
632.51	27754.07
632.66	28404.74
632.81	28137.92
632.96	28081.75
633.10	28163.67
633.25	28018.55
633.40	28025.57
633.55	28088.77
633.70	27857.06
633.85	27974.08
634.00	27690.88
634.15	27950.68
634.30	27903.87
634.45	27695.56
634.60	27737.69
634.75	27791.52
634.90	27840.67
635.05	27800.88
635.19	27946.00
635.34	28086.43
635.49	27971.74
635.64	27798.54
635.79	27995.15
635.94	27786.84
636.09	27903.87
636.24	27559.81
636.39	27491.93
636.53	27620.66
636.68	27653.43
636.83	27566.83
636.98	27522.36
637.13	27594.92
637.28	27953.02
637.43	27754.07
637.57	27536.40
637.72	27852.38
637.87	27192.34
638.02	27768.12
638.17	27215.75
638.32	27424.06
638.46	27030.85
638.61	27339.80
638.76	27105.74
638.91	27405.33
639.06	27035.53
639.20	27204.05
639.35	27314.05
639.50	27335.12
639.65	27545.76
639.80	27828.97
639.94	27337.46
640.09	27435.76
640.24	27297.67
640.39	27028.51
640.54	27281.28
640.68	26951.27
640.83	27108.08
640.98	26836.58
641.13	26932.54
641.27	27253.20
641.42	26738.28
641.57	27192.34
641.72	27002.76
641.86	27143.19
642.01	27016.80
642.16	27103.40
642.31	26859.99
642.45	26836.58
642.60	26822.54
642.75	26490.18
642.90	26757.00
643.04	26995.74
643.19	26977.01
643.34	26817.86
643.48	26759.34
643.63	26801.47
643.78	26719.56
643.93	26838.92
644.07	27173.62
644.22	26848.29
644.37	26726.58
644.51	26831.90
644.66	26560.40
644.81	26286.56
644.95	26684.45
645.10	26808.50
645.25	26855.31
645.39	26794.45
645.54	26775.73
645.69	26700.83
645.83	26738.28
645.98	26656.36
646.13	26623.59
646.27	26724.24
646.42	26340.39
646.57	26305.28
646.71	26314.64
646.86	26373.16
647.00	26555.72
647.15	26867.01
647.30	26471.46
647.44	26302.94
647.59	26192.94
647.74	26553.38
647.88	26424.65
648.03	26555.72
648.17	26745.30
648.32	26647.00
648.47	26597.85
648.61	26544.02
648.76	26738.28
648.90	26197.62
649.05	26190.59
649.20	26441.03
649.34	26293.58
649.49	26160.17
649.63	26422.31
649.78	26349.75
649.92	25977.61
650.07	26047.82
650.21	26370.82
650.36	26001.01
650.51	26052.50
650.65	26040.80
650.80	26249.11
650.94	25998.67
651.09	25907.39
651.23	25879.30
651.38	26038.46
651.52	25993.99
651.67	26085.27
651.81	25895.69
651.96	26001.01
652.10	26181.23
652.25	25893.35
652.39	25933.14
652.54	25979.95
652.68	25867.60
652.83	25785.68
652.97	26080.59
653.12	25933.14
653.26	25919.09
653.41	25862.92
653.55	26068.89
653.70	25563.33
653.84	25783.34
653.99	25640.57
654.13	25612.48
654.27	25909.73
654.42	25617.16
654.56	25682.70
654.71	25530.56
654.85	25649.93
655.00	25986.97
655.14	25479.07
655.29	25745.89
655.43	25837.17
655.57	25240.34
655.72	25572.69
655.86	25724.83
656.01	25633.55
656.15	25387.79
656.30	25305.87
656.44	25336.30
656.58	25235.66
656.73	24922.02
656.87	25376.09
657.01	25462.69
657.16	25720.15
657.30	25509.50
657.45	25378.43
657.59	25006.28
657.73	25188.85
657.88	25450.99
658.02	25280.13
658.16	25057.78
658.31	25184.16
658.45	25282.47
658.60	24992.24
658.74	24947.77
658.88	25238.00
659.03	24819.04
659.17	24926.71
659.31	25153.74
659.46	24898.62
659.60	25287.15
659.74	25055.43
659.89	25230.98
660.03	24526.47
660.17	24788.61
660.32	24861.17
660.46	24999.26
660.60	24685.63
660.74	24526.47
660.89	24458.60
661.03	24592.01
661.17	24531.15
661.32	24458.60
661.46	24690.31
661.60	24353.27
661.74	24650.52
661.89	24676.27
662.03	24666.91
662.17	24360.30
662.31	24409.45
662.46	24428.17
662.60	24421.15
662.74	24617.75
662.88	24285.40
663.03	24170.71
663.17	24276.04
663.31	24315.83
663.45	23852.40
663.60	24114.54
663.74	23798.57
663.88	23761.12
664.02	23934.32
664.17	24219.86
664.31	23826.65
664.45	23761.12
664.59	23686.22
664.73	23756.44
664.88	23859.42
665.02	23557.49
665.16	23616.01
665.30	23866.44
665.44	23508.34
665.59	23407.70
665.73	23470.89
665.87	23438.12
666.01	23447.49
666.15	23618.35
666.29	23515.36
666.44	23435.78
666.58	23339.82
666.72	23344.50
666.86	23274.29
667.00	23798.57
667.14	22946.61
667.28	23271.95
667.43	23112.79
667.57	23150.24
667.71	23227.48
667.85	23103.43
667.99	23110.45
668.13	23101.09
668.27	23157.26
668.41	23168.96
668.56	22544.04
668.70	23215.77
668.84	23101.09
668.98	23019.17
669.12	23065.98
669.26	22841.29
669.40	22501.91
669.54	22862.35
669.68	22644.68
669.82	22520.63
669.96	22813.20
670.10	22623.62
670.25	22354.46
670.39	22649.36
670.53	22235.09
670.67	22174.24
670.81	22532.34
670.95	22146.15
671.09	22312.33
671.23	22246.79
671.37	22162.53
671.51	22279.56
671.65	22097.00
671.79	22410.63
671.93	22457.44
672.07	21832.52
672.21	21984.65
672.35	21724.85
672.49	21818.47
672.63	21806.77
672.77	21752.94
672.91	21607.83
673.05	21708.47
673.19	21434.63
673.33	22026.78
673.47	21809.11
673.61	22143.81
673.75	21610.17
673.89	21605.49
674.03	21916.78
674.17	21558.67
674.31	21263.77
674.45	21357.39
674.59	21226.32
674.73	21446.33
674.87	21118.65
675.01	20922.05
675.15	20940.77
675.29	21233.34
675.43	21387.82
675.56	20959.50
675.70	21010.99
675.84	20992.26
675.98	20542.88
676.12	21256.75
676.26	21029.71
676.40	20734.81
676.54	20854.17
676.68	20835.45
676.82	20039.67
676.96	20758.21
677.10	20517.14
677.23	20430.54
677.37	20287.76
677.51	20547.56
677.65	20496.07
677.79	20231.59
677.93	19953.07
678.07	19838.38
678.21	19871.15
678.34	19810.29
678.48	19819.66
678.62	20030.30
678.76	19770.51
678.90	19634.75
679.04	19711.99
679.18	19981.15
679.31	19358.57
679.45	19424.11
679.59	19225.16
679.73	19536.45
679.87	19183.03
680.00	19246.23
680.14	19077.71
680.28	19330.48
680.42	19157.28
680.56	19080.05
680.70	19030.90
680.83	19133.88
680.97	18799.18
681.11	18963.02
681.25	19002.81
681.39	18665.77
681.52	18778.12
681.66	18621.30
681.80	18698.54
681.94	18445.76
682.07	18515.98
682.21	18384.91
682.35	18235.11
682.49	18190.64
682.62	18164.90
682.76	18185.96
682.90	18125.11
683.04	18082.98
683.17	18073.62
683.31	18366.18
683.45	17841.90
683.59	18118.09
683.72	17666.36
683.86	18106.38
684.00	17486.14
684.13	17399.54
684.27	17745.94
684.41	17649.98
684.55	17235.70
684.68	17245.07
684.82	17130.38
684.96	17153.79
685.09	16957.18
685.23	17109.32
685.37	17385.50
685.50	17011.01
685.64	17191.23
685.78	17270.81
685.91	17252.09
686.05	17441.67
686.19	17207.62
686.32	17308.26
686.46	16585.04
686.60	16538.23
686.73	16734.83
686.87	16365.03
687.01	16718.45
687.14	16559.29
687.28	16367.37
687.42	16276.09
687.55	16189.49
687.69	16137.99
687.82	16051.39
687.96	16341.62
688.10	16245.66
688.23	16381.41
688.37	16140.33
688.50	16037.35
688.64	16018.63
688.78	15833.72
688.91	15810.32
689.05	15829.04
689.18	15597.33
689.32	15300.08
689.46	15831.38
689.59	15613.71
689.73	15534.14
689.86	15564.56
690.00	15400.72
690.13	15428.81
690.27	15211.14
690.41	15274.34
690.54	14939.64
690.68	15087.09
690.81	15171.35
690.95	14974.75
691.08	15218.16
691.22	15145.61
691.35	15147.95
691.49	15098.80
691.62	14789.85
691.76	14834.32
691.89	14560.47
692.03	14485.58
692.16	14534.73
692.30	14305.35
692.43	13963.64
692.57	14375.57
692.70	14190.67
692.84	14157.90
692.97	14406.00
693.11	14272.59
693.24	13961.30
693.38	14188.33
693.51	13905.12
693.65	14026.83
693.78	14101.73
693.92	13944.91
694.05	13685.11
694.19	13867.67
694.32	13699.16
694.45	13998.74
694.59	13422.97
694.72	13441.70
694.86	13437.02
694.99	13434.68
695.13	13092.96
695.26	13179.56
695.39	13380.84
695.53	13163.17
695.66	13343.39
695.80	12973.59
695.93	13116.36
696.07	13036.78
696.20	13200.62
696.33	12863.58
696.47	13043.81
696.60	12849.54
696.73	12713.79
696.87	12872.95
697.00	12758.26
697.14	12528.89
697.27	12503.14
697.40	12308.88
697.54	12512.50
697.67	12386.12
697.80	12210.57
697.94	12077.16
698.07	12093.55
698.21	12308.88
698.34	11957.80
698.47	12088.87
698.61	12039.72
698.74	12219.94
698.87	12198.87
699.01	11962.48
699.14	12077.16
699.27	11779.92
699.40	12123.98
699.54	11850.13
699.67	11548.20
699.80	11683.95
699.94	11557.57
700.07	11681.61
700.20	11393.73
700.34	11517.78
700.47	11225.21
700.60	11538.84
700.73	11379.68
700.87	11220.53
701.00	11290.74
701.13	11194.78
701.26	11089.46
701.40	11339.90
701.53	11047.33
701.66	11047.33
701.79	11005.20
701.93	11002.86
702.06	10750.08
702.19	10480.92
702.32	10476.24
702.46	10686.89
702.59	10588.58
702.72	10504.32
702.85	10415.38
702.99	10607.31
703.12	10480.92
703.25	10368.57
703.38	10541.77
703.51	10438.79
703.65	10443.47
703.78	10164.95
703.91	10164.95
704.04	10305.38
704.17	10347.51
704.31	10078.35
704.44	10003.45
704.57	9954.30
704.70	9741.31
704.83	9928.55
704.96	9877.06
705.10	9844.29
705.23	9661.73
>>>>>End Processed Spectral Data<<<<<
