SpectraSuite Data File
++++++++++++++++++++++++++++++++++++
Date: Fri Oct 18 13:58:21 GMT-05:00 2013
User: bianchi
Dark Spectrum Present: No
Reference Spectrum Present: No
Number of Sampled Component Spectra: 1
Spectrometers: USB2+H05261
Integration Time (usec): 50000 (USB2+H05261)
Spectra Averaged: 1 (USB2+H05261)
Boxcar Smoothing: 0 (USB2+H05261)
Correct for Electrical Dark: No (USB2+H05261)
Strobe/Lamp Enabled: No (USB2+H05261)
Correct for Detector Non-linearity: No (USB2+H05261)
Correct for Stray Light: No (USB2+H05261)
Number of Pixels in Processed Spectrum: 2048
>>>>>Begin Processed Spectral Data<<<<<
365.73	0.00
365.92	0.00
366.12	0.00
366.32	0.00
366.52	0.00
366.72	0.00
366.91	0.00
367.11	0.00
367.31	0.00
367.51	0.00
367.70	0.00
367.90	0.00
368.10	0.00
368.30	0.00
368.49	0.00
368.69	0.00
368.89	0.00
369.09	0.00
369.28	0.00
369.48	0.00
369.68	0.00
369.87	0.00
370.07	0.00
370.27	0.00
370.47	0.00
370.66	88.94
370.86	95.96
371.06	128.73
371.25	128.73
371.45	152.13
371.65	117.03
371.84	107.66
372.04	159.16
372.24	159.16
372.44	187.24
372.63	194.26
372.83	184.90
373.03	222.35
373.22	161.50
373.42	191.92
373.62	222.35
373.81	255.12
374.01	198.95
374.21	220.01
374.40	196.60
374.60	283.20
374.79	297.25
374.99	236.39
375.19	189.58
375.38	257.46
375.58	215.33
375.78	269.16
375.97	290.23
376.17	191.92
376.37	264.48
376.56	285.55
376.76	269.16
376.95	203.63
377.15	285.55
377.35	294.91
377.54	248.10
377.74	280.86
377.93	189.58
378.13	248.10
378.33	337.04
378.52	322.99
378.72	245.76
378.91	294.91
379.11	273.84
379.31	210.65
379.50	241.08
379.70	379.17
379.89	292.57
380.09	299.59
380.28	320.65
380.48	241.08
380.68	294.91
380.87	327.68
381.07	320.65
381.26	358.10
381.46	339.38
381.65	320.65
381.85	355.76
382.04	318.31
382.24	327.68
382.43	313.63
382.63	252.78
382.83	393.21
383.02	337.04
383.22	332.36
383.41	337.04
383.61	301.93
383.80	341.72
384.00	360.44
384.19	449.38
384.39	383.85
384.58	435.34
384.78	409.59
384.97	379.17
385.17	365.12
385.36	461.09
385.56	262.14
385.75	395.55
385.95	449.38
386.14	402.57
386.34	383.85
386.53	496.19
386.72	280.86
386.92	449.38
387.11	456.40
387.31	486.83
387.50	320.65
387.70	381.51
387.89	400.23
388.09	400.23
388.28	423.64
388.48	395.55
388.67	430.66
388.86	491.51
389.06	456.40
389.25	521.94
389.45	437.68
389.64	514.92
389.84	468.11
390.03	505.56
390.22	461.09
390.42	454.06
390.61	390.87
390.81	416.62
391.00	458.74
391.19	435.34
391.39	498.53
391.58	482.15
391.78	503.22
391.97	540.66
392.16	589.82
392.36	573.43
392.55	477.47
392.75	561.73
392.94	578.11
393.13	554.71
393.33	458.74
393.52	559.39
393.71	622.58
393.91	594.50
394.10	568.75
394.29	538.32
394.49	552.37
394.68	603.86
394.88	596.84
395.07	566.41
395.26	671.73
395.46	575.77
395.65	688.12
395.84	610.88
396.04	650.67
396.23	601.52
396.42	641.31
396.62	645.99
396.81	725.57
397.00	617.90
397.19	697.48
397.39	653.01
397.58	624.92
397.77	638.97
397.97	690.46
398.16	706.84
398.35	657.69
398.55	645.99
398.74	723.23
398.93	763.01
399.12	758.33
399.32	734.93
399.51	739.61
399.70	760.67
399.90	802.80
400.09	746.63
400.28	760.67
400.47	830.89
400.67	807.48
400.86	798.12
401.05	732.59
401.24	739.61
401.44	814.51
401.63	798.12
401.82	868.34
402.01	903.45
402.21	767.70
402.40	819.19
402.59	847.27
402.78	849.61
402.97	837.91
403.17	837.91
403.36	884.72
403.55	849.61
403.74	889.40
403.93	908.13
404.13	844.93
404.32	919.83
404.51	971.32
404.70	802.80
404.89	858.98
405.09	973.66
405.28	844.93
405.47	922.17
405.66	882.38
405.85	1006.43
406.05	933.87
406.24	952.60
406.43	940.90
406.62	990.05
406.81	1048.56
407.00	1076.65
407.20	985.37
407.39	997.07
407.58	1008.77
407.77	1048.56
407.96	1071.97
408.15	1062.60
408.34	1139.84
408.54	1083.67
408.73	1062.60
408.92	1104.73
409.11	1102.39
409.30	1090.69
409.49	1139.84
409.68	1107.07
409.87	1181.97
410.07	1198.35
410.26	1174.95
410.45	1107.07
410.64	1165.59
410.83	1200.69
411.02	1315.38
411.21	1167.93
411.40	1149.20
411.59	1324.74
411.78	1329.42
411.98	1256.87
412.17	1256.87
412.36	1245.16
412.55	1376.24
412.74	1308.36
412.93	1352.83
413.12	1327.08
413.31	1418.36
413.50	1355.17
413.69	1369.21
413.88	1404.32
414.07	1416.02
414.26	1460.49
414.45	1479.22
414.64	1430.07
414.83	1455.81
415.02	1413.68
415.22	1535.39
415.41	1572.84
415.60	1472.20
415.79	1540.07
415.98	1603.27
416.17	1542.41
416.36	1645.40
416.55	1547.09
416.74	1598.59
416.93	1624.33
417.12	1554.12
417.31	1631.35
417.50	1603.27
417.69	1776.47
417.88	1675.82
418.07	1661.78
418.26	1694.55
418.45	1739.02
418.64	1776.47
418.83	1827.96
419.02	1753.06
419.21	1788.17
419.39	1774.13
419.58	1788.17
419.77	1851.36
419.96	1942.64
420.15	1837.32
420.34	1856.04
420.53	1748.38
420.72	1923.92
420.91	1849.02
421.10	1891.15
421.29	1905.20
421.48	1900.52
421.67	1853.70
421.86	1881.79
422.05	2017.54
422.24	1942.64
422.43	1966.05
422.61	1916.90
422.80	1982.43
422.99	2026.90
423.18	1942.64
423.37	2033.93
423.56	2083.08
423.75	1877.11
423.94	2005.84
424.13	1729.66
424.32	1980.09
424.50	1942.64
424.69	2001.16
424.88	1970.73
425.07	2118.18
425.26	1923.92
425.45	1998.82
425.64	1933.28
425.83	2064.35
426.01	2054.99
426.20	2092.44
426.39	2064.35
426.58	2064.35
426.77	2036.27
426.96	2071.37
427.15	2087.76
427.33	2129.89
427.52	2040.95
427.71	2129.89
427.90	2136.91
428.09	2092.44
428.28	2127.55
428.46	2129.89
428.65	2207.13
428.84	2291.38
429.03	2139.25
429.22	2125.21
429.40	2230.53
429.59	2251.60
429.78	2129.89
429.97	2062.01
430.16	2235.21
430.34	2223.51
430.53	2408.41
430.72	2331.17
430.91	2239.89
431.10	2251.60
431.28	2265.64
431.47	2251.60
431.66	2387.35
431.85	2317.13
432.03	2455.22
432.22	2455.22
432.41	2370.96
432.60	2338.20
432.79	2457.56
432.97	2441.18
433.16	2415.43
433.35	2443.52
433.54	2434.16
433.72	2471.61
433.91	2431.82
434.10	2565.23
434.28	2438.84
434.47	2380.32
434.66	2457.56
434.85	2583.95
435.03	2609.70
435.22	2497.35
435.41	2586.29
435.59	2700.98
435.78	2569.91
435.97	2626.08
436.16	2593.31
436.34	2665.87
436.53	2534.80
436.72	2588.63
436.90	2595.65
437.09	2747.79
437.28	2698.64
437.46	2654.17
437.65	2745.45
437.84	2813.32
438.02	2766.51
438.21	2715.02
438.40	2677.57
438.58	2883.54
438.77	2883.54
438.96	2724.38
439.14	2897.58
439.33	3061.42
439.52	3007.59
439.70	3033.33
439.89	3054.40
440.08	3028.65
440.26	3009.93
440.45	3026.31
440.63	2988.86
440.82	3124.62
441.01	3082.49
441.19	2993.55
441.38	3185.47
441.57	3208.87
441.75	3211.22
441.94	3260.37
442.12	3323.56
442.31	3164.40
442.50	3302.50
442.68	3211.22
442.87	3192.49
443.05	3304.84
443.24	3377.39
443.43	3363.35
443.61	3377.39
443.80	3499.10
443.98	3304.84
444.17	3318.88
444.35	3412.50
444.54	3478.04
444.73	3435.91
444.91	3421.86
445.10	3325.90
445.28	3251.00
445.47	3410.16
445.65	3414.84
445.84	3449.95
446.02	3471.01
446.21	3562.30
446.39	3475.70
446.58	3403.14
446.77	3468.67
446.95	3297.81
447.14	3389.10
447.32	3449.95
447.51	3494.42
447.69	3428.88
447.88	3506.12
448.06	3529.53
448.25	3543.57
448.43	3412.50
448.62	3487.40
448.80	3541.23
448.99	3597.40
449.17	3604.42
449.36	3557.61
449.54	3609.11
449.73	3801.03
449.91	3520.17
450.10	3644.21
450.28	3812.73
450.46	3714.43
450.65	3705.07
450.83	3808.05
451.02	3742.52
451.20	3918.06
451.39	3866.56
451.57	3686.34
451.76	3709.75
451.94	3906.35
452.13	3875.93
452.31	3875.93
452.49	3761.24
452.68	3864.22
452.86	3735.50
453.05	3882.95
453.23	3955.51
453.42	3871.25
453.60	3833.80
453.78	3985.93
453.97	3901.67
454.15	3953.16
454.34	3983.59
454.52	3843.16
454.70	4025.72
454.89	4018.70
455.07	4007.00
455.26	3967.21
455.44	4042.11
455.62	4086.58
455.81	3908.69
455.99	4093.60
456.17	4149.77
456.36	4180.20
456.54	4156.79
456.73	4077.21
456.91	4276.16
457.09	4266.80
457.28	4372.12
457.46	4032.74
457.64	4402.55
457.83	4238.71
458.01	4292.54
458.19	4374.46
458.38	4311.27
458.56	4475.10
458.74	4390.84
458.93	4308.93
459.11	4430.63
459.29	4400.21
459.48	4440.00
459.66	4498.51
459.84	4496.17
460.03	4528.94
460.21	4493.83
460.39	4514.89
460.57	4409.57
460.76	4713.84
460.94	4617.88
461.12	4599.15
461.31	4533.62
461.49	4629.58
461.67	4456.38
461.85	4683.41
462.04	4613.20
462.22	4755.97
462.40	4737.24
462.59	4643.62
462.77	4706.82
462.95	4774.69
463.13	4648.30
463.32	4697.46
463.50	4718.52
463.68	4840.23
463.86	4697.46
464.05	4718.52
464.23	4863.63
464.41	4912.78
464.59	4807.46
464.78	4889.38
464.96	4718.52
465.14	4807.46
465.32	4964.28
465.50	4973.64
465.69	4875.34
465.87	4966.62
466.05	4922.15
466.23	4952.57
466.41	5069.60
466.60	5081.30
466.78	4868.31
466.96	4915.12
467.14	5118.75
467.32	5214.71
467.51	5165.56
467.69	5172.58
467.87	5078.96
468.05	5053.22
468.23	4994.70
468.41	5100.03
468.60	5172.58
468.78	5193.65
468.96	5004.07
469.14	5376.21
469.32	5231.10
469.50	5142.16
469.69	5324.72
469.87	5373.87
470.05	5355.15
470.23	5165.56
470.41	5294.29
470.59	5392.59
470.77	5270.89
470.95	5273.23
471.14	5392.59
471.32	5317.70
471.50	5572.82
471.68	5490.90
471.86	5458.13
472.04	5668.78
472.22	5757.72
472.40	5427.70
472.58	5689.84
472.77	5561.11
472.95	5746.02
473.13	5944.96
473.31	5900.49
473.49	5666.44
473.67	5785.80
473.85	5731.97
474.03	5980.07
474.21	6024.54
474.39	6160.29
474.57	6097.10
474.75	6069.01
474.93	6036.24
475.12	6136.88
475.30	6113.48
475.48	6057.31
475.66	6310.08
475.84	6202.42
476.02	6207.10
476.20	6342.85
476.38	6317.11
476.56	6473.92
476.74	6417.75
476.92	6485.62
477.10	6490.31
477.28	6649.46
477.46	6604.99
477.64	6586.27
477.82	6719.68
478.00	7101.19
478.18	6942.03
478.36	6839.05
478.54	7042.67
478.72	7152.68
478.90	7119.91
479.08	6909.26
479.26	7283.75
479.44	7349.28
479.62	7339.92
479.80	7297.79
479.98	7344.60
480.16	7595.04
480.34	7470.99
480.52	7592.70
480.70	7473.33
480.88	7531.84
481.06	7599.72
481.24	7496.74
481.41	7660.57
481.59	7925.05
481.77	7983.57
481.95	7990.59
482.13	8079.53
482.31	8044.42
482.49	8248.05
482.67	8236.35
482.85	8437.63
483.03	8208.26
483.21	8369.76
483.39	8416.57
483.57	8643.60
483.74	8580.40
483.92	8608.49
484.10	8774.67
484.28	8688.07
484.46	9055.53
484.64	9266.18
484.82	8957.23
485.00	9116.39
485.18	8901.06
485.35	9305.97
485.53	9378.53
485.71	9219.37
485.89	9425.34
486.07	9490.87
486.25	9614.92
486.43	9575.13
486.61	9516.62
486.78	9856.00
486.96	9874.72
487.14	10031.54
487.32	9867.70
487.50	10162.61
487.68	10043.24
487.85	10085.37
488.03	10553.48
488.21	10642.42
488.39	10291.34
488.57	10427.09
488.75	10633.05
488.92	10759.44
489.10	10565.18
489.28	10904.56
489.46	11103.50
489.64	11084.78
489.81	11262.66
489.99	10876.47
490.17	11126.91
490.35	11281.38
490.53	11169.04
490.70	11751.83
490.88	11662.89
491.06	11583.31
491.24	11648.85
491.41	11812.68
491.59	11712.04
491.77	11836.09
491.95	11878.22
492.13	12037.38
492.30	12166.10
492.48	11943.75
492.66	12283.13
492.84	12374.41
493.01	12638.89
493.19	12580.38
493.37	12676.34
493.54	12554.63
493.72	12549.95
493.90	12762.94
494.08	12833.16
494.25	13172.54
494.43	13029.76
494.61	13188.92
494.79	13013.38
494.96	13048.49
495.14	13219.35
495.32	13376.16
495.49	13628.94
495.67	13130.41
495.85	13511.91
496.02	13799.80
496.20	13671.07
496.38	13973.00
496.55	14080.66
496.73	14132.15
496.91	14132.15
497.09	14258.54
497.26	14541.75
497.44	14022.15
497.62	14272.59
497.79	14464.51
497.97	14443.45
498.14	14700.90
498.32	14740.69
498.50	14541.75
498.67	14834.32
498.85	14736.01
499.03	14963.04
499.20	14934.96
499.38	14995.81
499.56	15075.39
499.73	15323.49
499.91	15187.74
500.08	15424.13
500.26	15426.47
500.44	15204.12
500.61	15421.79
500.79	15222.84
500.97	15683.93
501.14	15782.23
501.32	15669.89
501.49	15845.43
501.67	15819.68
501.84	15831.38
502.02	15829.04
502.20	15660.52
502.37	15906.28
502.55	16322.90
502.72	15955.43
502.90	15826.70
503.07	16016.29
503.25	16205.87
503.43	16013.95
503.60	16561.63
503.78	16414.18
503.95	16608.44
504.13	16549.93
504.30	16339.28
504.48	16456.31
504.65	16795.68
504.83	16947.82
505.01	16755.90
505.18	16753.55
505.36	16793.34
505.53	16959.52
505.71	17181.87
505.88	17069.53
506.06	16856.54
506.23	17270.81
506.41	17151.45
506.58	17071.87
506.76	17467.42
506.93	17081.23
507.11	17266.13
507.28	17586.79
507.46	17130.38
507.63	17486.14
507.81	17727.22
507.98	17425.29
508.16	17446.35
508.33	17668.70
508.50	17649.98
508.68	17701.47
508.85	17820.84
509.03	17844.24
509.20	17998.72
509.38	17907.44
509.55	18541.72
509.73	18094.68
509.90	17937.87
510.08	18146.17
510.25	18265.54
510.42	18073.62
510.60	18396.61
510.77	18625.98
510.95	18581.51
511.12	18420.02
511.30	18740.67
511.47	18443.42
511.64	19035.58
511.82	18885.78
511.99	18829.61
512.17	18635.35
512.34	18986.43
512.51	18881.10
512.69	19014.51
512.86	19187.71
513.04	19477.94
513.21	19470.92
513.38	19054.30
513.56	19440.49
513.73	19061.32
513.90	19651.14
514.08	19381.98
514.25	19379.64
514.43	19737.74
514.60	19452.19
514.77	19690.93
514.95	19719.01
515.12	19400.70
515.29	19606.67
515.47	19864.13
515.64	20161.37
515.81	19868.81
515.99	20322.87
516.16	20002.22
516.33	20159.03
516.51	20177.76
516.68	20142.65
516.85	19983.49
517.03	20255.00
517.20	20570.97
517.37	20482.03
517.54	20664.59
517.72	20182.44
517.89	20421.17
518.06	20444.58
518.24	20229.25
518.41	20573.31
518.58	20360.32
518.75	20718.42
518.93	20933.75
519.10	20755.87
519.27	20814.38
519.45	20678.63
519.62	20861.19
519.79	20496.07
519.96	20842.47
520.14	21247.38
520.31	21275.47
520.48	21179.51
520.65	20996.95
520.83	21055.46
521.00	21139.72
521.17	21322.28
521.34	21418.24
521.52	21699.11
521.69	21521.23
521.86	21118.65
522.03	21289.51
522.20	21516.54
522.38	21703.79
522.55	21558.67
522.72	21722.51
522.89	21699.11
523.07	22097.00
523.24	22010.40
523.41	22075.93
523.58	21881.67
523.75	22057.21
523.92	21905.07
524.10	21947.20
524.27	22015.08
524.44	22087.64
524.61	22295.94
524.78	22211.68
524.96	22136.79
525.13	22373.18
525.30	22410.63
525.47	22436.38
525.64	22223.39
525.81	22209.34
525.98	22560.42
526.16	22838.95
526.33	22972.36
526.50	22684.47
526.67	22588.51
526.84	22551.06
527.01	22806.18
527.18	22469.14
527.36	22960.66
527.53	22958.31
527.70	23164.28
527.87	23028.53
528.04	22923.21
528.21	22970.02
528.38	23183.01
528.55	22925.55
528.72	23269.61
528.89	23000.44
529.07	23337.48
529.24	22986.40
529.41	23154.92
529.58	23307.05
529.75	23147.90
529.92	23243.86
530.09	23285.99
530.26	23250.88
530.43	23775.16
530.60	23302.37
530.77	23475.57
530.94	23644.09
531.11	23756.44
531.28	23367.91
531.46	23618.35
531.63	23669.84
531.80	23838.36
531.97	23978.79
532.14	24049.00
532.31	23814.95
532.48	24041.98
532.65	24079.43
532.82	23866.44
532.99	23658.14
533.16	23723.67
533.33	24016.24
533.50	24201.14
533.67	24444.56
533.84	23892.19
534.01	24243.27
534.18	23861.76
534.35	24465.62
534.52	24222.20
534.69	24315.83
534.86	24517.11
535.03	24496.05
535.20	24189.44
535.37	24292.42
535.54	24423.49
535.71	24203.48
535.88	24463.28
536.05	24526.47
536.22	24900.96
536.38	24622.44
536.55	24919.68
536.72	24912.66
536.89	24404.77
537.06	24444.56
537.23	24746.48
537.40	24353.27
537.57	24940.75
537.74	24774.57
537.91	25198.21
538.08	24964.15
538.25	24629.46
538.42	25050.75
538.59	25366.73
538.75	24788.61
538.92	24875.21
539.09	25057.78
539.26	25233.32
539.43	25055.43
539.60	25476.73
539.77	25280.13
539.94	25539.93
540.11	25476.73
540.28	25214.59
540.44	25474.39
540.61	25404.17
540.78	25357.36
540.95	25626.53
541.12	25502.48
541.29	25404.17
541.46	25621.84
541.62	25635.89
541.79	25228.63
541.96	25413.54
542.13	25523.54
542.30	25933.14
542.47	25752.91
542.63	25926.11
542.80	25708.44
542.97	26302.94
543.14	25776.32
543.31	26136.76
543.48	25958.88
543.64	26321.66
543.81	26108.68
543.98	26522.95
544.15	26225.70
544.32	26160.17
544.48	26471.46
544.65	26384.86
544.82	26228.04
544.99	25888.67
545.16	26164.85
545.32	26045.48
545.49	26668.06
545.66	26864.67
545.83	26813.18
546.00	26628.27
546.16	26597.85
546.33	26361.45
546.50	26183.57
546.67	26464.44
546.83	26244.43
547.00	26780.41
547.17	26637.64
547.34	26574.44
547.50	26904.46
547.67	26757.00
547.84	27054.25
548.00	26742.96
548.17	27047.23
548.34	26895.10
548.51	27105.74
548.67	27115.11
548.84	27178.30
549.01	26951.27
549.18	27215.75
549.34	27056.59
549.51	26579.12
549.68	26998.08
549.84	26728.92
550.01	26885.73
550.18	27054.25
550.34	27056.59
550.51	27438.10
550.68	27452.14
550.84	27309.37
551.01	27330.44
551.18	27459.16
551.34	26836.58
551.51	27108.08
551.68	27690.88
551.84	27627.68
552.01	27545.76
552.18	27314.05
552.34	27618.32
552.51	27580.87
552.68	27356.18
552.84	27639.39
553.01	27550.45
553.18	27344.48
553.34	27693.22
553.51	27632.36
553.67	27931.95
553.84	27697.90
554.01	27611.30
554.17	27765.78
554.34	28039.62
554.51	27899.19
554.67	27831.31
554.84	27821.95
555.00	27901.53
555.17	27707.26
555.33	27859.40
555.50	27941.32
555.67	28070.04
555.83	27838.33
556.00	27927.27
556.16	27960.04
556.33	27772.80
556.50	27740.03
556.66	28250.27
556.83	27887.48
556.99	28322.82
557.16	28210.48
557.32	28151.96
557.49	28158.99
557.65	27896.85
557.82	27983.44
557.98	27995.15
558.15	28065.36
558.32	28477.30
558.48	28184.73
558.65	28325.16
558.81	27950.68
558.98	28238.56
559.14	28198.77
559.31	27988.13
559.47	28369.63
559.64	28297.08
559.80	28198.77
559.97	28236.22
560.13	28229.20
560.30	28254.95
560.46	28353.25
560.63	28414.10
560.79	28374.31
560.96	28500.70
561.12	28732.42
561.29	28191.75
561.45	28503.04
561.61	28533.47
561.78	28594.32
561.94	28531.13
562.11	28716.03
562.27	28671.56
562.44	28397.72
562.60	28533.47
562.77	28830.72
562.93	28416.44
563.10	28849.44
563.26	28767.52
563.42	29053.07
563.59	28755.82
563.75	28790.93
563.92	29020.30
564.08	28865.83
564.24	28561.56
564.41	28877.53
564.57	28175.37
564.74	28460.91
564.90	28856.46
565.07	28718.37
565.23	29123.29
565.39	28907.96
565.56	28762.84
565.72	28716.03
565.88	28830.72
566.05	28952.43
566.21	28863.49
566.38	28596.67
566.54	28879.87
566.70	29111.58
566.87	28994.56
567.03	29134.99
567.19	29085.84
567.36	28844.76
567.52	28987.53
567.68	29237.97
567.85	29062.43
568.01	29205.20
568.17	28840.08
568.34	29235.63
568.50	29172.44
568.66	29317.55
568.83	29181.80
568.99	28961.79
569.15	28804.97
569.32	29174.78
569.48	28716.03
569.64	29326.91
569.81	29294.14
569.97	29184.14
570.13	29537.56
570.30	29244.99
570.46	29422.87
570.62	29165.42
570.78	28994.56
570.95	28889.23
571.11	29219.25
571.27	29216.91
571.43	29036.69
571.60	29317.55
571.76	29266.06
571.92	29233.29
572.09	29214.57
572.25	29326.91
572.41	29495.43
572.57	29507.13
572.74	29502.45
572.90	29165.42
573.06	29181.80
573.22	29223.93
573.38	29481.39
573.55	29500.11
573.71	29635.86
573.87	29670.97
574.03	29092.86
574.20	29200.52
574.36	29036.69
574.52	29331.59
574.68	29359.68
574.84	29259.04
575.01	29326.91
575.17	29605.44
575.33	29333.93
575.49	29432.24
575.65	29013.28
575.82	29551.60
575.98	29303.51
576.14	29724.80
576.30	29560.97
576.46	29347.98
576.62	29357.34
576.79	29303.51
576.95	29369.04
577.11	29663.95
577.27	29722.46
577.43	29741.19
577.59	29490.75
577.75	29495.43
577.92	29289.46
578.08	29104.56
578.24	29729.48
578.40	29425.22
578.56	29560.97
578.72	29556.28
578.88	29420.53
579.04	29696.72
579.21	29584.37
579.37	29549.26
579.53	29207.55
579.69	29446.28
579.85	29237.97
580.01	29399.47
580.17	29497.77
580.33	29516.50
580.49	29673.31
580.65	29397.13
580.82	29504.79
580.98	29408.83
581.14	29301.17
581.30	29518.84
581.46	29266.06
581.62	29319.89
581.78	29230.95
581.94	29560.97
582.10	29308.19
582.26	29603.10
582.42	29294.14
582.58	29694.38
582.74	29631.18
582.90	29930.77
583.06	29490.75
583.22	29511.81
583.38	29481.39
583.54	29575.01
583.70	29406.49
583.86	29591.39
584.02	29600.76
584.18	29282.44
584.34	29769.27
584.50	29603.10
584.66	29523.52
584.82	29745.87
584.98	29427.56
585.14	29399.47
585.30	29659.27
585.46	29614.80
585.62	29600.76
585.78	29589.05
585.94	29247.33
586.10	29670.97
586.26	29692.04
586.42	29450.96
586.58	29783.32
586.74	29296.49
586.90	29537.56
587.06	29369.04
587.22	29453.30
587.38	29275.42
587.54	29647.57
587.70	29848.85
587.86	29708.42
588.02	29776.30
588.18	29780.98
588.34	29933.11
588.49	29734.17
588.65	29816.08
588.81	29443.94
588.97	29575.01
589.13	29392.45
589.29	29752.89
589.45	29780.98
589.61	29689.70
589.77	29546.92
589.93	29921.41
590.08	30363.77
590.24	29977.58
590.40	30221.00
590.56	30155.46
590.72	29811.40
590.88	29710.76
591.04	29736.51
591.20	30015.03
591.35	30300.58
591.51	30426.96
591.67	30354.41
591.83	30216.32
591.99	30094.61
592.15	30314.62
592.31	30129.72
592.46	30094.61
592.62	29851.19
592.78	29961.20
592.94	29717.78
593.10	29699.06
593.26	29919.07
593.41	30129.72
593.57	30263.13
593.73	30333.34
593.89	30228.02
594.05	30118.01
594.20	29605.44
594.36	29813.74
594.52	30080.56
594.68	30228.02
594.84	30089.93
594.99	29717.78
595.15	30066.52
595.31	30410.58
595.47	29942.47
595.62	30071.20
595.78	30108.65
595.94	30235.04
596.10	30206.95
596.25	29811.40
596.41	29923.75
596.57	29771.61
596.73	30232.70
596.88	29898.00
597.04	30263.13
597.20	30134.40
597.36	30118.01
597.51	30267.81
597.67	30302.92
597.83	29699.06
597.99	30520.59
598.14	30052.48
598.30	29752.89
598.46	30274.83
598.61	30223.34
598.77	30352.07
598.93	30185.89
599.09	30314.62
599.24	30401.22
599.40	30043.12
599.56	30019.71
599.71	30188.23
599.87	30541.65
600.03	30314.62
600.18	30134.40
600.34	30000.99
600.50	30085.25
600.65	30188.23
600.81	30118.01
600.97	30469.09
601.12	30646.97
601.28	30403.56
601.44	30614.21
601.59	30125.04
601.75	30235.04
601.91	30314.62
602.06	30012.69
602.22	29734.17
602.37	29949.50
602.53	30281.85
602.69	30110.99
602.84	30181.21
603.00	30216.32
603.16	30183.55
603.31	30431.65
603.47	30258.45
603.62	30171.85
603.78	30340.36
603.94	30054.82
604.09	29989.28
604.25	29825.45
604.40	30373.13
604.56	30164.82
604.71	30319.30
604.87	30228.02
605.03	30508.88
605.18	30249.08
605.34	30101.63
605.49	30382.49
605.65	30415.26
605.80	30017.37
605.96	30323.98
606.12	29996.31
606.27	30216.32
606.43	29865.24
606.58	30314.62
606.74	30110.99
606.89	30134.40
607.05	30302.92
607.20	30319.30
607.36	30534.63
607.51	30352.07
607.67	30057.16
607.82	29788.00
607.98	30047.80
608.13	29928.43
608.29	30005.67
608.44	30274.83
608.60	29663.95
608.75	30361.43
608.91	30153.12
609.06	29802.04
609.22	30384.83
609.37	30258.45
609.53	29783.32
609.68	29979.92
609.84	29572.67
609.99	29762.25
610.15	29434.58
610.30	30040.78
610.46	29886.30
610.61	29982.26
610.76	30309.94
610.92	29865.24
611.07	29788.00
611.23	29823.11
611.38	29799.70
611.54	29984.60
611.69	29701.40
611.84	29383.09
612.00	29895.66
612.15	29806.72
612.31	29638.20
612.46	29497.77
612.62	29876.94
612.77	29666.29
612.92	29799.70
613.08	29881.62
613.23	29701.40
613.39	29670.97
613.54	29254.36
613.69	29748.21
613.85	29727.14
614.00	29656.93
614.15	29912.05
614.31	29469.69
614.46	29642.88
614.62	29755.23
614.77	29668.63
614.92	29612.46
615.08	29397.13
615.23	29301.17
615.38	29457.98
615.54	29193.50
615.69	29467.34
615.84	29624.16
616.00	29413.51
616.15	29256.70
616.30	29479.05
616.46	29645.23
616.61	29249.67
616.76	29586.71
616.92	29261.38
617.07	29511.81
617.22	29336.27
617.37	29338.62
617.53	29392.45
617.68	29394.79
617.83	29195.84
617.99	29214.57
618.14	29284.78
618.29	29345.64
618.45	29142.01
618.60	29521.18
618.75	29151.37
618.90	29277.76
619.06	29476.71
619.21	28978.17
619.36	29223.93
619.51	28938.38
619.67	28804.97
619.82	28893.91
619.97	28861.15
620.12	29186.48
620.28	28835.40
620.43	29074.13
620.58	29177.12
620.73	29209.89
620.89	28926.68
621.04	29247.33
621.19	29050.73
621.34	28730.08
621.49	28545.17
621.65	28718.37
621.80	28779.23
621.95	28816.68
622.10	28830.72
622.25	28891.57
622.41	28676.24
622.56	28914.98
622.71	29090.52
622.86	28903.28
623.01	28975.83
623.16	28561.56
623.32	28451.55
623.47	28706.67
623.62	28797.95
623.77	28386.02
623.92	28870.51
624.07	28563.90
624.23	28737.10
624.38	28659.86
624.53	28849.44
624.68	28662.20
624.83	29043.71
624.98	28381.34
625.13	28390.70
625.29	28727.74
625.44	28804.97
625.59	28023.23
625.74	28292.40
625.89	28606.03
626.04	28219.84
626.19	28404.74
626.34	28116.86
626.49	28170.69
626.65	27861.74
626.80	28868.17
626.95	28297.08
627.10	28299.42
627.25	28198.77
627.40	28297.08
627.55	28332.18
627.70	27931.95
627.85	28187.07
628.00	28004.51
628.15	28318.14
628.30	27831.31
628.45	28217.50
628.60	27896.85
628.76	28175.37
628.91	28037.28
629.06	27896.85
629.21	28009.19
629.36	27768.12
629.51	28184.73
629.66	27978.76
629.81	27707.26
629.96	27927.27
630.11	27873.44
630.26	27772.80
630.41	27833.65
630.56	27814.93
630.71	27623.00
630.86	27852.38
631.01	28158.99
631.16	27882.80
631.31	28149.62
631.46	27700.24
631.61	27894.50
631.76	27683.86
631.91	27634.71
632.06	27400.65
632.21	27557.47
632.36	27718.96
632.51	27449.80
632.66	27782.16
632.81	27660.45
632.96	27665.13
633.10	27611.30
633.25	27793.86
633.40	27700.24
633.55	27693.22
633.70	27182.98
633.85	27302.35
634.00	27316.39
634.15	27599.60
634.30	27187.66
634.45	27084.68
634.60	27253.20
634.75	27054.25
634.90	27084.68
635.05	27594.92
635.19	27463.85
635.34	27751.73
635.49	27407.67
635.64	27571.51
635.79	27620.66
635.94	27449.80
636.09	27402.99
636.24	27222.77
636.39	26932.54
636.53	27178.30
636.68	27063.61
636.83	27101.06
636.98	27108.08
637.13	27199.37
637.28	27445.12
637.43	27246.18
637.57	27164.26
637.72	26953.61
637.87	26925.52
638.02	26867.01
638.17	27089.36
638.32	27072.98
638.46	26855.31
638.61	26951.27
638.76	26487.84
638.91	26742.96
639.06	26841.26
639.20	26927.86
639.35	27239.15
639.50	26892.76
639.65	26668.06
639.80	26895.10
639.94	26745.30
640.09	26927.86
640.24	26927.86
640.39	26567.42
640.54	26735.94
640.68	26654.02
640.83	26764.03
640.98	26497.20
641.13	26658.70
641.27	26934.88
641.42	26855.31
641.57	26424.65
641.72	26728.92
641.86	26225.70
642.01	26349.75
642.16	26703.17
642.31	26291.24
642.45	26441.03
642.60	26155.49
642.75	26202.30
642.90	26267.83
643.04	26501.89
643.19	26682.11
643.34	26291.24
643.48	26249.11
643.63	26209.32
643.78	26242.09
643.93	26359.11
644.07	26316.98
644.22	26536.99
644.37	26054.84
644.51	26441.03
644.66	26321.66
644.81	26143.78
644.95	26164.85
645.10	25940.16
645.25	25916.75
645.39	26544.02
645.54	26164.85
645.69	25940.16
645.83	25937.82
645.98	26146.12
646.13	26504.23
646.27	26064.21
646.42	26221.02
646.57	25731.85
646.71	26192.94
646.86	26111.02
647.00	26223.36
647.15	26043.14
647.30	25776.32
647.44	25965.90
647.59	25893.35
647.74	26066.55
647.88	25689.72
648.03	25860.58
648.17	25956.54
648.32	26010.37
648.47	26122.72
648.61	25638.23
648.76	26099.31
648.90	25916.75
649.05	26031.44
649.20	25717.81
649.34	25626.53
649.49	25572.69
649.63	25757.60
649.78	25507.16
649.92	25322.26
650.07	25708.44
650.21	25202.89
650.36	25479.07
650.51	25766.96
650.65	25788.02
650.80	25558.65
650.94	25668.66
651.09	25319.92
651.23	25516.52
651.38	25678.02
651.52	25647.59
651.67	25710.78
651.81	25633.55
651.96	25413.54
652.10	25383.11
652.25	25696.74
652.39	25645.25
652.54	25696.74
652.68	25493.12
652.83	25628.87
652.97	25560.99
653.12	25336.30
653.26	25322.26
653.41	25263.74
653.55	25631.21
653.70	25088.20
653.84	25294.17
653.99	24947.77
654.13	25270.76
654.27	25125.65
654.42	25525.88
654.56	25048.41
654.71	25308.21
654.85	25233.32
655.00	25373.75
655.14	25289.49
655.29	25081.18
655.43	25001.60
655.57	24989.90
655.72	24694.99
655.86	25085.86
656.01	25055.43
656.15	24650.52
656.30	25249.70
656.44	25097.56
656.58	24304.12
656.73	24620.10
656.87	24875.21
657.01	24709.04
657.16	24720.74
657.30	25017.99
657.45	24849.47
657.59	25074.16
657.73	24884.58
657.88	24575.62
658.02	24636.48
658.16	24568.60
658.31	24133.26
658.45	24772.23
658.60	24402.43
658.74	24643.50
658.88	24606.05
659.03	24577.97
659.17	24460.94
659.31	24608.39
659.46	24793.29
659.60	24720.74
659.74	24407.11
659.89	24233.91
660.03	24060.71
660.17	24407.11
660.32	24177.73
660.46	23983.47
660.60	23786.86
660.74	23985.81
660.89	24400.08
661.03	23953.04
661.17	24102.84
661.32	24077.09
661.46	24177.73
661.60	24051.34
661.74	24182.42
661.89	24191.78
662.03	24049.00
662.17	24222.20
662.31	23878.15
662.46	24130.92
662.60	24009.22
662.74	23941.34
662.88	23812.61
663.03	23377.27
663.17	23737.71
663.31	23531.75
663.45	23681.54
663.60	23674.52
663.74	23566.85
663.88	23672.18
664.02	23686.22
664.17	23798.57
664.31	23234.50
664.45	23414.72
664.59	23498.98
664.73	23515.36
664.88	23274.29
665.02	23367.91
665.16	23253.22
665.30	23194.71
665.44	23318.76
665.59	23058.96
665.73	23073.00
665.87	23197.05
666.01	23175.98
666.15	23035.55
666.29	22937.25
666.44	23124.49
666.58	22916.19
666.72	23054.28
666.86	22913.84
667.00	22780.43
667.14	22834.27
667.28	22970.02
667.43	22841.29
667.57	22647.02
667.71	22773.41
667.85	22878.74
667.99	22483.19
668.13	22434.03
668.27	22712.56
668.41	22604.89
668.56	22270.20
668.70	22614.26
668.84	22335.73
668.98	22717.24
669.12	22773.41
669.26	22097.00
669.40	22656.39
669.54	22604.89
669.68	22546.38
669.82	22228.07
669.96	22232.75
670.10	22305.31
670.25	22167.21
670.39	22068.91
670.53	21902.73
670.67	22113.38
670.81	21956.57
670.95	21837.20
671.09	21975.29
671.23	22068.91
671.37	21830.18
671.51	22169.55
671.65	22305.31
671.79	21649.96
671.93	21493.14
672.07	21837.20
672.21	21860.60
672.35	21593.78
672.49	21603.14
672.63	21816.13
672.77	21418.24
672.91	21392.50
673.05	21195.89
673.19	21184.19
673.33	21530.59
673.47	21399.52
673.61	21291.85
673.75	20996.95
673.89	21095.25
674.03	21294.19
674.17	21165.46
674.31	21015.67
674.45	21158.44
674.59	20835.45
674.73	20985.24
674.87	20950.14
675.01	20898.64
675.15	20821.41
675.29	20727.78
675.43	20882.26
675.56	20847.15
675.70	20463.30
675.84	20535.86
675.98	20252.66
676.12	20692.68
676.26	20718.42
676.40	20306.49
676.54	20407.13
676.68	20582.67
676.82	20095.84
676.96	20346.28
677.10	20027.96
677.23	19917.96
677.37	19873.49
677.51	20126.27
677.65	20290.10
677.79	19576.24
677.93	19559.86
678.07	19559.86
678.21	19517.73
678.34	19510.71
678.48	19695.61
678.62	19648.80
678.76	19412.40
678.90	19173.67
679.04	19183.03
679.18	19103.45
679.31	19087.07
679.45	18948.98
679.59	19286.01
679.73	18881.10
679.87	18970.04
680.00	18963.02
680.14	18766.42
680.28	18876.42
680.42	18621.30
680.56	19019.19
680.70	18633.00
680.83	18675.13
680.97	18679.82
681.11	18850.67
681.25	18485.55
681.39	18291.29
681.52	18408.31
681.66	18326.39
681.80	18331.08
681.94	18244.48
682.07	18178.94
682.21	18134.47
682.35	17687.43
682.49	18001.06
682.62	17860.63
682.76	17895.74
682.90	17839.56
683.04	17563.38
683.17	17605.51
683.31	17792.75
683.45	17893.40
683.59	17397.20
683.72	17334.01
683.86	17472.10
684.00	17493.16
684.13	17511.89
684.27	17301.24
684.41	16915.05
684.55	17319.96
684.68	16901.01
684.82	16886.97
684.96	17158.47
685.09	16870.58
685.23	16795.68
685.37	16769.94
685.50	17013.35
685.64	17020.38
685.78	16959.52
685.91	16996.97
686.05	16769.94
686.19	16451.63
686.32	16453.97
686.46	16219.91
686.60	16175.44
686.73	16402.47
686.87	16175.44
687.01	16177.78
687.14	15892.24
687.28	15939.05
687.42	15971.82
687.55	15976.50
687.69	16126.29
687.82	15854.79
687.96	15896.92
688.10	15655.84
688.23	15751.81
688.37	15836.06
688.50	15697.97
688.64	15555.20
688.78	15580.95
688.91	15391.36
689.05	15562.22
689.18	15419.45
689.32	15166.67
689.46	15126.88
689.59	15033.26
689.73	15187.74
689.86	15220.50
690.00	15281.36
690.13	14958.36
690.27	14815.59
690.41	15014.54
690.54	15051.99
690.68	14904.53
690.81	14895.17
690.95	14747.72
691.08	14813.25
691.22	14658.78
691.35	14408.34
691.49	14761.76
691.62	14579.20
691.76	14527.71
691.89	14380.25
692.03	14118.11
692.16	14012.79
692.30	14066.62
692.43	14139.18
692.57	14033.85
692.70	13984.70
692.84	13778.73
692.97	13900.44
693.11	14059.60
693.24	14209.39
693.38	13607.87
693.51	13862.99
693.65	13750.65
693.78	13577.45
693.92	13790.44
694.05	13462.76
694.19	13607.87
694.32	13259.13
694.45	13589.15
694.59	13198.28
694.72	13217.01
694.86	13004.02
694.99	13057.85
695.13	13170.19
695.26	13055.51
695.39	12947.84
695.53	13062.53
695.66	13144.45
695.80	13097.64
695.93	13067.21
696.07	13020.40
696.20	13158.49
696.33	12816.77
696.47	12407.18
696.60	12688.04
696.73	12505.48
696.87	12587.40
697.00	12456.33
697.14	12121.63
697.27	12210.57
697.40	12198.87
697.54	12259.73
697.67	12011.63
697.80	12002.27
697.94	12056.10
698.07	12020.99
698.21	11660.55
698.34	11971.84
698.47	12025.67
698.61	12039.72
698.74	11955.46
698.87	11915.67
699.01	11758.85
699.14	11817.36
699.27	11690.98
699.40	11506.07
699.54	11501.39
699.67	11510.75
699.80	11335.21
699.94	11360.96
700.07	11410.11
700.20	11194.78
700.34	11211.17
700.47	10918.60
700.60	11098.82
700.73	11035.63
700.87	10960.73
701.00	11070.73
701.13	11070.73
701.26	10909.24
701.40	11026.26
701.53	11040.31
701.66	10930.30
701.79	10768.80
701.93	10757.10
702.06	10637.73
702.19	10717.31
702.32	10408.36
702.46	10504.32
702.59	10122.82
702.72	10223.46
702.85	10171.97
702.99	10162.61
703.12	10303.04
703.25	10176.65
703.38	10338.15
703.51	10132.18
703.65	10064.30
703.78	9940.26
703.91	9944.94
704.04	10001.11
704.17	10017.49
704.31	9963.66
704.44	9975.36
704.57	9818.55
704.70	9701.52
704.83	9490.87
704.96	9500.23
705.10	9476.83
705.23	9455.76
>>>>>End Processed Spectral Data<<<<<
