SpectraSuite Data File
++++++++++++++++++++++++++++++++++++
Date: Fri Oct 18 13:58:12 GMT-05:00 2013
User: bianchi
Dark Spectrum Present: No
Reference Spectrum Present: No
Number of Sampled Component Spectra: 1
Spectrometers: USB2+H05261
Integration Time (usec): 50000 (USB2+H05261)
Spectra Averaged: 1 (USB2+H05261)
Boxcar Smoothing: 0 (USB2+H05261)
Correct for Electrical Dark: No (USB2+H05261)
Strobe/Lamp Enabled: No (USB2+H05261)
Correct for Detector Non-linearity: No (USB2+H05261)
Correct for Stray Light: No (USB2+H05261)
Number of Pixels in Processed Spectrum: 2048
>>>>>Begin Processed Spectral Data<<<<<
365.73	0.00
365.92	0.00
366.12	0.00
366.32	0.00
366.52	0.00
366.72	0.00
366.91	0.00
367.11	0.00
367.31	0.00
367.51	0.00
367.70	0.00
367.90	0.00
368.10	0.00
368.30	0.00
368.49	0.00
368.69	0.00
368.89	0.00
369.09	0.00
369.28	0.00
369.48	0.00
369.68	0.00
369.87	0.00
370.07	0.00
370.27	0.00
370.47	0.00
370.66	117.03
370.86	180.22
371.06	147.45
371.25	147.45
371.45	112.35
371.65	194.26
371.84	177.88
372.04	180.22
372.24	170.86
372.44	243.42
372.63	189.58
372.83	182.56
373.03	175.54
373.22	196.60
373.42	208.31
373.62	198.95
373.81	205.97
374.01	269.16
374.21	248.10
374.40	212.99
374.60	252.78
374.79	238.73
374.99	292.57
375.19	203.63
375.38	229.37
375.58	187.24
375.78	245.76
375.97	285.55
376.17	297.25
376.37	262.14
376.56	208.31
376.76	236.39
376.95	243.42
377.15	238.73
377.35	283.20
377.54	327.68
377.74	257.46
377.93	308.95
378.13	229.37
378.33	262.14
378.52	297.25
378.72	287.89
378.91	308.95
379.11	304.27
379.31	304.27
379.50	280.86
379.70	280.86
379.89	273.84
380.09	411.93
380.28	330.02
380.48	304.27
380.68	358.10
380.87	297.25
381.07	276.18
381.26	297.25
381.46	339.38
381.65	346.40
381.85	374.49
382.04	367.46
382.24	414.27
382.43	306.61
382.63	348.74
382.83	360.44
383.02	358.10
383.22	327.68
383.41	381.51
383.61	381.51
383.80	362.78
384.00	339.38
384.19	416.62
384.39	365.12
384.58	379.17
384.78	386.19
384.97	369.80
385.17	416.62
385.36	447.04
385.56	437.68
385.75	369.80
385.95	327.68
386.14	346.40
386.34	409.59
386.53	470.45
386.72	503.22
386.92	409.59
387.11	372.15
387.31	397.89
387.50	388.53
387.70	440.02
387.89	472.79
388.09	390.87
388.28	444.70
388.48	463.43
388.67	454.06
388.86	409.59
389.06	395.55
389.25	472.79
389.45	451.72
389.64	463.43
389.84	550.03
390.03	512.58
390.22	587.47
390.42	533.64
390.61	482.15
390.81	468.11
391.00	512.58
391.19	550.03
391.39	571.09
391.58	514.92
391.78	571.09
391.97	589.82
392.16	535.98
392.36	589.82
392.55	603.86
392.75	503.22
392.94	561.73
393.13	552.37
393.33	564.07
393.52	547.69
393.71	545.34
393.91	685.78
394.10	585.13
394.29	561.73
394.49	622.58
394.68	634.29
394.88	578.11
395.07	643.65
395.26	594.50
395.46	578.11
395.65	676.41
395.84	634.29
396.04	601.52
396.23	695.14
396.42	697.48
396.62	617.90
396.81	631.94
397.00	634.29
397.19	636.63
397.39	671.73
397.58	645.99
397.77	699.82
397.97	711.52
398.16	699.82
398.35	777.06
398.55	653.01
398.74	737.27
398.93	772.38
399.12	718.54
399.32	688.12
399.51	779.40
399.70	732.59
399.90	730.25
400.09	873.02
400.28	905.79
400.47	664.71
400.67	861.32
400.86	758.33
401.05	849.61
401.24	840.25
401.44	802.80
401.63	826.21
401.82	830.89
402.01	791.10
402.21	774.72
402.40	835.57
402.59	844.93
402.78	870.68
402.97	819.19
403.17	898.77
403.36	821.53
403.55	833.23
403.74	1020.47
403.93	1015.79
404.13	973.66
404.32	1022.81
404.51	922.17
404.70	947.92
404.89	889.40
405.09	992.39
405.28	1015.79
405.47	978.34
405.66	1022.81
405.85	929.19
406.05	1039.20
406.24	964.30
406.43	1053.24
406.62	1043.88
406.81	1004.09
407.00	1006.43
407.20	1018.13
407.39	1076.65
407.58	1102.39
407.77	1153.88
407.96	1160.91
408.15	1111.75
408.34	1013.45
408.54	1027.50
408.73	1158.57
408.92	1128.14
409.11	1179.63
409.30	1275.59
409.49	1203.04
409.68	1149.20
409.87	1149.20
410.07	1219.42
410.26	1116.44
410.45	1233.46
410.64	1240.48
410.83	1224.10
411.02	1306.02
411.21	1266.23
411.40	1268.57
411.59	1287.29
411.78	1284.95
411.98	1401.98
412.17	1392.62
412.36	1317.72
412.55	1364.53
412.74	1315.38
412.93	1336.45
413.12	1327.08
413.31	1399.64
413.50	1357.51
413.69	1495.60
413.88	1444.11
414.07	1451.13
414.26	1430.07
414.45	1533.05
414.64	1586.88
414.83	1692.21
415.02	1561.14
415.22	1650.08
415.41	1629.01
415.60	1547.09
415.79	1619.65
415.98	1516.67
416.17	1633.69
416.36	1678.16
416.55	1703.91
416.74	1706.25
416.93	1694.55
417.12	1717.95
417.31	1781.15
417.50	1680.50
417.69	1734.34
417.88	1769.44
418.07	1834.98
418.26	1804.55
418.45	1727.32
418.64	1806.89
418.83	1827.96
419.02	1797.53
419.21	1900.52
419.39	1849.02
419.58	1776.47
419.77	1776.47
419.96	1963.71
420.15	1849.02
420.34	1851.36
420.53	1898.17
420.72	1961.37
420.91	1933.28
421.10	1942.64
421.29	2115.84
421.48	1994.14
421.67	1966.05
421.86	1944.99
422.05	1980.09
422.24	2057.33
422.43	2076.06
422.61	2092.44
422.80	2125.21
422.99	2165.00
423.18	2019.88
423.37	1933.28
423.56	2150.95
423.75	2047.97
423.94	2045.63
424.13	1907.54
424.32	1984.77
424.50	2083.08
424.69	2090.10
424.88	2211.81
425.07	2017.54
425.26	2008.18
425.45	2188.40
425.64	2174.36
425.83	2087.76
426.01	2167.34
426.20	2064.35
426.39	2052.65
426.58	2108.82
426.77	2099.46
426.96	2122.87
427.15	1996.48
427.33	2122.87
427.52	2146.27
427.71	2155.63
427.90	2106.48
428.09	2169.68
428.28	2291.38
428.46	2286.70
428.65	2253.94
428.84	2312.45
429.03	2331.17
429.22	2314.79
429.40	2319.47
429.59	2345.22
429.78	2258.62
429.97	2169.68
430.16	2359.26
430.34	2349.90
430.53	2408.41
430.72	2363.94
430.91	2260.96
431.10	2296.07
431.28	2413.09
431.47	2406.07
431.66	2464.58
431.85	2471.61
432.03	2424.80
432.22	2441.18
432.41	2506.71
432.60	2473.95
432.79	2640.12
432.97	2464.58
433.16	2581.61
433.35	2607.36
433.54	2597.99
433.72	2644.81
433.91	2569.91
434.10	2644.81
434.28	2579.27
434.47	2520.76
434.66	2693.96
434.85	2708.00
435.03	2670.55
435.22	2619.06
435.41	2696.30
435.59	2696.30
435.78	2715.02
435.97	2740.77
436.16	2761.83
436.34	2637.78
436.53	2708.00
436.72	2944.39
436.90	2665.87
437.09	2841.41
437.28	2848.43
437.46	2768.85
437.65	2792.26
437.84	2808.64
438.02	2733.75
438.21	2836.73
438.40	2806.30
438.58	2815.66
438.77	2967.80
438.96	3002.91
439.14	2988.86
439.33	3143.34
439.52	2998.23
439.70	3054.40
439.89	3014.61
440.08	3103.55
440.26	3194.83
440.45	3148.02
440.63	3108.23
440.82	3101.21
441.01	3213.56
441.19	3208.87
441.38	3232.28
441.57	3297.81
441.75	3213.56
441.94	3351.65
442.12	3370.37
442.31	3372.71
442.50	3335.26
442.68	3501.44
442.87	3487.40
443.05	3412.50
443.24	3503.78
443.43	3468.67
443.61	3496.76
443.80	3641.87
443.98	3372.71
444.17	3286.11
444.35	3452.29
444.54	3557.61
444.73	3576.34
444.91	3541.23
445.10	3412.50
445.28	3449.95
445.47	3400.80
445.65	3424.20
445.84	3604.42
446.02	3562.30
446.21	3606.77
446.39	3669.96
446.58	3581.02
446.77	3534.21
446.95	3592.72
447.14	3698.05
447.32	3606.77
447.51	3599.74
447.69	3510.80
447.88	3665.28
448.06	3733.15
448.25	3557.61
448.43	3574.00
448.62	3662.94
448.80	3501.44
448.99	3604.42
449.17	3698.05
449.36	3684.00
449.54	3674.64
449.73	3784.65
449.91	3789.33
450.10	3726.13
450.28	3955.51
450.46	3833.80
450.65	3733.15
450.83	3810.39
451.02	3918.06
451.20	3765.92
451.39	3932.10
451.57	3875.93
451.76	3833.80
451.94	3702.73
452.13	3885.29
452.31	3859.54
452.49	3822.09
452.68	3904.01
452.86	3988.27
453.05	3946.14
453.23	4119.34
453.42	3967.21
453.60	3882.95
453.78	3960.19
453.97	3946.14
454.15	3822.09
454.34	4037.42
454.52	4245.73
454.70	4098.28
454.89	4117.00
455.07	4170.83
455.26	4189.56
455.44	4257.43
455.62	4152.11
455.81	4112.32
455.99	4107.64
456.17	4194.24
456.36	4271.48
456.54	4306.59
456.73	4217.65
456.91	4479.79
457.09	4308.93
457.28	4397.87
457.46	4252.75
457.64	4386.16
457.83	4517.23
458.01	4407.23
458.19	4348.72
458.38	4407.23
458.56	4622.56
458.74	4545.32
458.93	4500.85
459.11	4573.41
459.29	4550.00
459.48	4514.89
459.66	4617.88
459.84	4585.11
460.03	4627.24
460.21	4629.58
460.39	4624.90
460.57	4688.09
460.76	4695.11
460.94	4697.46
461.12	4720.86
461.31	4772.35
461.49	4667.03
461.67	4720.86
461.85	4814.48
462.04	4924.49
462.22	4938.53
462.40	4840.23
462.59	4812.14
462.77	4858.95
462.95	4849.59
463.13	5074.28
463.32	4884.70
463.50	4947.89
463.68	5004.07
463.86	4741.93
464.05	4973.64
464.23	4917.47
464.41	5128.11
464.59	4940.87
464.78	5153.86
464.96	4950.23
465.14	5029.81
465.32	4952.57
465.50	5128.11
465.69	5093.01
465.87	5085.98
466.05	5268.55
466.23	5149.18
466.41	5163.22
466.60	5296.63
466.78	5121.09
466.96	5214.71
467.14	5217.05
467.32	5289.61
467.51	5343.44
467.69	5123.43
467.87	5270.89
468.05	5233.44
468.23	5212.37
468.41	5317.70
468.60	5259.18
468.78	5397.28
468.96	5334.08
469.14	5385.57
469.32	5493.24
469.50	5289.61
469.69	5369.19
469.87	5481.53
470.05	5530.69
470.23	5474.51
470.41	5544.73
470.59	5474.51
470.77	5495.58
470.95	5699.20
471.14	5750.70
471.32	5621.97
471.50	5820.91
471.68	5657.07
471.86	5757.72
472.04	5741.33
472.22	5905.17
472.40	5837.30
472.58	5942.62
472.77	5722.61
472.95	5994.11
473.13	6164.97
473.31	5886.45
473.49	6099.44
473.67	5898.15
473.85	6061.99
474.03	6132.20
474.21	6064.33
474.39	5963.68
474.57	6228.17
474.75	6277.32
474.93	6258.59
475.12	6373.28
475.30	6162.63
475.48	6246.89
475.66	6525.41
475.84	6464.56
476.02	6455.20
476.20	6485.62
476.38	6586.27
476.56	6780.53
476.74	6583.93
476.92	6747.76
477.10	6736.06
477.28	6930.33
477.46	6848.41
477.64	6918.62
477.82	7087.14
478.00	7115.23
478.18	7061.40
478.36	7169.06
478.54	7148.00
478.72	7318.86
478.90	7478.01
479.08	7325.88
479.26	7517.80
479.44	7489.71
479.62	7405.46
479.80	7597.38
479.98	7627.81
480.16	7609.08
480.34	7775.26
480.52	7918.03
480.70	7808.03
480.88	7850.16
481.06	7929.74
481.24	7866.54
481.41	8051.44
481.59	8147.40
481.77	8273.79
481.95	8280.82
482.13	8498.49
482.31	8086.55
482.49	8365.07
482.67	8400.18
482.85	8634.24
483.03	8835.52
483.21	8662.32
483.39	8713.81
483.57	8786.37
483.74	8758.28
483.92	8833.18
484.10	8943.19
484.28	9006.38
484.46	9238.09
484.64	9371.50
484.82	9273.20
485.00	9390.23
485.18	9198.31
485.35	9738.97
485.53	9458.10
485.71	9694.50
485.89	9898.13
486.07	9769.40
486.25	9914.51
486.43	9771.74
486.61	10019.83
486.78	10127.50
486.96	10066.64
487.14	10366.23
487.32	10284.31
487.50	10387.30
487.68	10429.43
487.85	10431.77
488.03	10850.72
488.21	10869.45
488.39	10710.29
488.57	10934.98
488.75	10626.03
488.92	11255.64
489.10	11248.61
489.28	11421.81
489.46	11314.15
489.64	11084.78
489.81	11520.12
489.99	11716.72
490.17	11644.17
490.35	11901.62
490.53	11885.24
490.70	11990.56
490.88	12020.99
491.06	12128.66
491.24	11833.75
491.41	12060.78
491.59	12308.88
491.77	12414.20
491.95	12535.91
492.13	12545.27
492.30	12524.21
492.48	12578.04
492.66	12580.38
492.84	12662.30
493.01	12685.70
493.19	13050.83
493.37	13034.44
493.54	13074.23
493.72	13366.80
493.90	13186.58
494.08	13284.88
494.25	13493.19
494.43	13364.46
494.61	13633.62
494.79	13612.56
494.96	13804.48
495.14	13846.61
495.32	13940.23
495.49	14012.79
495.67	13982.36
495.85	13724.90
496.02	14200.03
496.20	14148.54
496.38	14281.95
496.55	14373.23
496.73	14541.75
496.91	14490.26
497.09	14595.58
497.26	14672.82
497.44	14616.65
497.62	14970.07
497.79	14546.43
497.97	15087.09
498.14	14965.39
498.32	15557.54
498.50	15269.66
498.67	15293.06
498.85	15438.17
499.03	15424.13
499.20	15297.74
499.38	15316.47
499.56	15620.74
499.73	15733.08
499.91	15704.99
500.08	16042.03
500.26	15456.90
500.44	15903.94
500.61	16049.05
500.79	16027.99
500.97	16072.46
501.14	16395.45
501.32	16374.39
501.49	16407.16
501.67	15988.20
501.84	16147.36
502.02	16400.13
502.20	16554.61
502.37	16578.01
502.55	16449.28
502.72	16643.55
502.90	16695.04
503.07	16713.77
503.25	16746.53
503.43	16585.04
503.60	16624.83
503.78	17334.01
503.95	17018.04
504.13	16812.07
504.30	17055.48
504.48	16910.37
504.65	16837.81
504.83	17404.22
505.01	17628.92
505.18	17446.35
505.36	17802.11
505.53	17446.35
505.71	17734.24
505.88	17603.17
506.06	17326.99
506.23	17893.40
506.41	17813.82
506.58	17935.53
506.76	17869.99
506.93	18302.99
507.11	17767.01
507.28	18108.72
507.46	18258.52
507.63	18008.08
507.81	18310.01
507.98	18214.05
508.16	17994.04
508.33	18415.34
508.50	18251.50
508.68	18740.67
508.85	18785.14
509.03	18635.35
509.20	18415.34
509.38	18754.71
509.55	18445.76
509.73	18614.28
509.90	18738.33
510.08	18871.74
510.25	18881.10
510.42	18855.36
510.60	19133.88
510.77	19068.34
510.95	19342.19
511.12	19180.69
511.30	19250.91
511.47	19257.93
511.64	19180.69
511.82	19775.19
511.99	19374.95
512.17	19583.26
512.34	19435.81
512.51	19957.75
512.69	19878.17
512.86	19758.80
513.04	19850.08
513.21	19934.34
513.38	20018.60
513.56	19807.95
513.73	19873.49
513.90	20112.22
514.08	19957.75
514.25	20058.39
514.43	20463.30
514.60	20379.04
514.77	20556.93
514.95	20830.77
515.12	20472.67
515.29	20624.80
515.47	20390.75
515.64	20372.02
515.81	20566.29
515.99	20751.19
516.16	21280.15
516.33	20954.82
516.51	20758.21
516.68	20755.87
516.85	21006.31
517.03	20816.72
517.20	20816.72
517.37	21282.49
517.54	21301.22
517.72	21474.42
517.89	20858.85
518.06	21013.33
518.24	21167.80
518.41	21280.15
518.58	21502.50
518.75	21525.91
518.93	21415.90
519.10	21282.49
519.27	21656.98
519.45	21591.44
519.62	21757.62
519.79	21661.66
519.96	21619.53
520.14	21757.62
520.31	21722.51
520.48	21874.65
520.65	21984.65
520.83	21846.56
521.00	21958.91
521.17	21474.42
521.34	21860.60
521.52	21956.57
521.69	22120.40
521.86	22319.35
522.03	22546.38
522.20	22080.61
522.38	22588.51
522.55	22415.31
522.72	22419.99
522.89	22733.62
523.07	22450.42
523.24	22815.54
523.41	23098.75
523.58	22616.60
523.75	22958.31
523.92	22768.73
524.10	23096.41
524.27	22906.82
524.44	23211.09
524.61	23250.88
524.78	22981.72
524.96	23325.78
525.13	23300.03
525.30	23276.63
525.47	22860.01
525.64	23243.86
525.81	23681.54
525.98	23510.68
526.16	23246.20
526.33	23339.82
526.50	23761.12
526.67	23112.79
526.84	23498.98
527.01	23260.24
527.18	23885.17
527.36	23969.43
527.53	23681.54
527.70	24009.22
527.87	24027.94
528.04	23927.30
528.21	23779.84
528.38	23779.84
528.55	23838.36
528.72	23889.85
528.89	23995.17
529.07	24170.71
529.24	24025.60
529.41	24313.48
529.58	24500.73
529.75	24077.09
529.92	24067.73
530.09	24041.98
530.26	24503.07
530.43	24292.42
530.60	24189.44
530.77	24484.34
530.94	24676.27
531.11	24402.43
531.28	24486.68
531.46	24554.56
531.63	25032.03
531.80	24465.62
531.97	25003.94
532.14	24666.91
532.31	24652.86
532.48	24936.07
532.65	24837.76
532.82	24858.83
532.99	24898.62
533.16	24851.81
533.33	25174.80
533.50	25476.73
533.67	25254.38
533.84	25008.62
534.01	25085.86
534.18	25118.63
534.35	25090.54
534.52	25074.16
534.69	25385.45
534.86	25144.38
535.03	25600.78
535.20	25617.16
535.37	25411.20
535.54	25205.23
535.71	25593.76
535.88	25371.41
536.05	25296.51
536.22	25546.95
536.38	25488.43
536.55	25528.22
536.72	25687.38
536.89	25415.88
537.06	25778.66
537.23	26017.40
537.40	25811.43
537.57	25984.63
537.74	25593.76
537.91	26064.21
538.08	26017.40
538.25	25752.91
538.42	25818.45
538.59	26572.10
538.75	25656.95
538.92	26040.80
539.09	26101.65
539.26	26003.35
539.43	26380.18
539.60	26300.60
539.77	26309.96
539.94	26525.29
540.11	26244.43
540.28	26202.30
540.44	26333.37
540.61	26260.81
540.78	26609.55
540.95	26412.95
541.12	26628.27
541.29	26347.41
541.46	26434.01
541.62	26270.17
541.79	26380.18
541.96	26309.96
542.13	26665.72
542.30	26735.94
542.47	26843.60
542.63	26705.51
542.80	26984.04
542.97	26960.63
543.14	27087.02
543.31	27269.58
543.48	27023.83
543.64	27454.48
543.81	27321.07
543.98	27201.71
544.15	27721.30
544.32	27424.06
544.48	27447.46
544.65	27171.28
544.82	27218.09
544.99	26965.31
545.16	27365.54
545.32	27260.22
545.49	27583.21
545.66	27798.54
545.83	27374.91
546.00	27978.76
546.16	27524.70
546.33	27463.85
546.50	27676.83
546.67	27798.54
546.83	27536.40
547.00	27817.27
547.17	27477.89
547.34	27775.14
547.50	27765.78
547.67	28072.39
547.84	27718.96
548.00	27831.31
548.17	27721.30
548.34	28060.68
548.51	27852.38
548.67	28301.76
548.84	28147.28
549.01	28182.39
549.18	28048.98
549.34	28208.14
549.51	28065.36
549.68	28142.60
549.84	28203.46
550.01	28109.83
550.18	27969.40
550.34	28149.62
550.51	28409.42
550.68	28467.94
550.84	28606.03
551.01	28142.60
551.18	28690.29
551.34	27756.41
551.51	28371.97
551.68	28414.10
551.84	28496.02
552.01	28685.61
552.18	28535.81
552.34	28819.02
552.51	28741.78
552.68	28481.98
552.84	28718.37
553.01	28900.94
553.18	28650.50
553.34	28699.65
553.51	29088.18
553.67	28652.84
553.84	29041.37
554.01	28861.15
554.17	28769.86
554.34	29053.07
554.51	28926.68
554.67	28514.75
554.84	28748.80
555.00	29046.05
555.17	28486.66
555.33	28645.82
555.50	28992.22
555.67	28872.85
555.83	29221.59
556.00	29142.01
556.16	29303.51
556.33	29413.51
556.50	28926.68
556.66	29312.87
556.83	29378.40
556.99	29273.08
557.16	29343.30
557.32	29312.87
557.49	29425.22
557.65	29132.65
557.82	29193.50
557.98	29116.26
558.15	29575.01
558.32	29710.76
558.48	29436.92
558.65	29830.13
558.81	29427.56
558.98	29500.11
559.14	29546.92
559.31	29322.23
559.47	29376.06
559.64	29521.18
559.80	29757.57
559.97	29668.63
560.13	29472.03
560.30	29357.34
560.46	29546.92
560.63	29773.95
560.79	29893.32
560.96	29589.05
561.12	30017.37
561.29	29612.46
561.45	29392.45
561.61	29673.31
561.78	29715.44
561.94	29848.85
562.11	29401.81
562.27	30225.68
562.44	30092.27
562.60	29799.70
562.77	29692.04
562.93	29659.27
563.10	30160.14
563.26	30045.46
563.42	30211.64
563.59	30068.86
563.75	30323.98
563.92	30169.51
564.08	29986.94
564.24	29855.87
564.41	29944.81
564.57	29806.72
564.74	29914.39
564.90	30169.51
565.07	30216.32
565.23	29940.13
565.39	30396.54
565.56	30169.51
565.72	30125.04
565.88	30052.48
566.05	29708.42
566.21	30115.67
566.38	29853.53
566.54	30295.89
566.70	30384.83
566.87	30242.06
567.03	30132.06
567.19	30527.61
567.36	30560.37
567.52	30064.18
567.68	30003.33
567.85	30293.55
568.01	30127.38
568.17	30092.27
568.34	30382.49
568.50	30312.28
568.66	30387.18
568.83	30363.77
568.99	30466.75
569.15	30419.94
569.32	30628.25
569.48	30120.35
569.64	30164.82
569.81	30429.30
569.97	30452.71
570.13	30462.07
570.30	30089.93
570.46	30352.07
570.62	30384.83
570.78	30061.84
570.95	30305.26
571.11	30909.11
571.27	29799.70
571.43	30450.37
571.60	30623.57
571.76	30415.26
571.92	30195.25
572.09	30740.60
572.25	30728.89
572.41	30338.02
572.57	30579.10
572.74	30581.44
572.90	30441.01
573.06	30415.26
573.22	30665.70
573.38	30450.37
573.55	30698.47
573.71	30679.74
573.87	30890.39
574.03	30553.35
574.20	30703.15
574.36	30459.73
574.52	30871.67
574.68	30426.96
574.84	30768.68
575.01	30583.78
575.17	30661.02
575.33	30728.89
575.49	30572.08
575.65	30759.32
575.82	30628.25
575.98	30656.34
576.14	31012.10
576.30	30824.86
576.46	30632.93
576.62	30483.14
576.79	30815.49
576.95	30682.08
577.11	30778.04
577.27	30677.40
577.43	30756.98
577.59	31194.66
577.75	30604.84
577.92	30485.48
578.08	30614.21
578.24	30710.17
578.40	30525.27
578.56	30632.93
578.72	30803.79
578.88	31145.51
579.04	30979.33
579.21	30794.43
579.37	30668.04
579.53	30543.99
579.69	30892.73
579.85	30576.76
580.01	30661.02
580.17	31023.80
580.33	30824.86
580.49	30600.16
580.65	31012.10
580.82	30632.93
580.98	30801.45
581.14	31005.08
581.30	30761.66
581.46	30441.01
581.62	30684.42
581.78	30476.12
581.94	30883.37
582.10	30637.61
582.26	30602.50
582.42	30937.20
582.58	30939.54
582.74	30607.19
582.90	30710.17
583.06	30967.63
583.22	31292.96
583.38	30445.69
583.54	30941.88
583.70	30941.88
583.86	31044.87
584.02	30972.31
584.18	30808.47
584.34	30749.96
584.50	31075.29
584.66	31122.10
584.82	30969.97
584.98	30820.17
585.14	30864.64
585.30	30731.23
585.46	30656.34
585.62	30689.10
585.78	31044.87
585.94	30572.08
586.10	31077.63
586.26	30778.04
586.42	30866.98
586.58	31225.09
586.74	30841.24
586.90	31049.55
587.06	31061.25
587.22	31075.29
587.38	31218.07
587.54	30923.16
587.70	31365.52
587.86	31051.89
588.02	31208.70
588.18	31211.04
588.34	31342.11
588.49	31037.84
588.65	30745.28
588.81	31075.29
588.97	31101.04
589.13	31035.50
589.29	30820.17
589.45	31285.94
589.61	31342.11
589.77	31562.12
589.93	31276.58
590.08	31555.10
590.24	31239.13
590.40	31246.15
590.56	31307.01
590.72	31344.45
590.88	30759.32
591.04	31072.95
591.20	31866.39
591.35	31894.48
591.51	31735.32
591.67	31295.30
591.83	31969.38
591.99	31356.16
592.15	31414.67
592.31	31400.63
592.46	30967.63
592.62	31267.22
592.78	31227.43
592.94	31220.41
593.10	30944.22
593.26	31559.78
593.41	31798.52
593.57	31161.89
593.73	30981.67
593.89	31655.75
594.05	31225.09
594.20	31187.64
594.36	31000.40
594.52	31407.65
594.68	31304.67
594.84	31269.56
594.99	31622.98
595.15	31515.31
595.31	31541.06
595.47	31089.34
595.62	31660.43
595.78	31445.10
595.94	31386.58
596.10	31370.20
596.25	31243.81
596.41	31358.50
596.57	31056.57
596.73	31241.47
596.88	31325.73
597.04	31716.60
597.20	31737.66
597.36	31445.10
597.51	31864.05
597.67	31260.20
597.83	31622.98
597.99	32114.49
598.14	31421.69
598.30	31725.96
598.46	31281.26
598.61	31400.63
598.77	31475.52
598.93	31456.80
599.09	31527.02
599.24	31936.61
599.40	31777.45
599.56	31782.13
599.71	31491.91
599.87	31571.49
600.03	31503.61
600.18	31456.80
600.34	31510.63
600.50	31384.24
600.65	31433.39
600.81	31536.38
600.97	31674.47
601.12	31728.30
601.28	32006.83
601.44	31683.83
601.59	32058.32
601.75	31482.55
601.91	31955.33
602.06	31419.35
602.22	31414.67
602.37	31566.81
602.53	31529.36
602.69	31763.41
602.84	31683.83
603.00	32137.90
603.16	31697.88
603.31	31428.71
603.47	31763.41
603.62	31494.25
603.78	31632.34
603.94	31346.79
604.09	31332.75
604.25	31274.24
604.40	31501.27
604.56	31571.49
604.71	31840.65
604.87	31683.83
605.03	31997.46
605.18	31747.03
605.34	31639.36
605.49	31321.05
605.65	31395.95
605.80	31154.87
605.96	31218.07
606.12	31475.52
606.27	31662.77
606.43	31454.46
606.58	31447.44
606.74	31517.65
606.89	31594.89
607.05	31587.87
607.20	31807.88
607.36	31807.88
607.51	31714.26
607.67	31194.66
607.82	31337.43
607.98	31241.47
608.13	31468.50
608.29	31122.10
608.44	31747.03
608.60	31246.15
608.75	31405.31
608.91	31414.67
609.06	31395.95
609.22	31407.65
609.37	31042.53
609.53	31192.32
609.68	31234.45
609.84	31295.30
609.99	31384.24
610.15	30951.24
610.30	31419.35
610.46	31419.35
610.61	31236.79
610.76	31388.92
610.92	30841.24
611.07	31346.79
611.23	30944.22
611.38	31110.40
611.54	31096.36
611.69	30646.97
611.84	30965.29
612.00	30955.93
612.15	30834.22
612.31	31325.73
612.46	31112.74
612.62	31559.78
612.77	31056.57
612.92	31147.85
613.08	31119.76
613.23	31119.76
613.39	31035.50
613.54	31253.17
613.69	30932.52
613.85	30920.82
614.00	30794.43
614.15	30899.75
614.31	31058.91
614.46	31192.32
614.62	31208.70
614.77	30969.97
614.92	30590.80
615.08	30951.24
615.23	31337.43
615.38	30932.52
615.54	30829.54
615.69	30810.81
615.84	30855.28
616.00	31005.08
616.15	31145.51
616.30	30700.81
616.46	30464.41
616.61	30717.19
616.76	30857.62
616.92	31098.70
617.07	31161.89
617.22	30682.08
617.37	30883.37
617.53	31098.70
617.68	30780.39
617.83	30497.18
617.99	30710.17
618.14	30661.02
618.29	30857.62
618.45	30579.10
618.60	30644.63
618.75	30576.76
618.90	30766.34
619.06	30787.41
619.21	30429.30
619.36	30841.24
619.51	30536.97
619.67	30593.14
619.82	30302.92
619.97	30546.33
620.12	30066.52
620.28	30511.22
620.43	30806.13
620.58	30714.85
620.73	30464.41
620.89	30553.35
621.04	30272.49
621.19	30609.53
621.34	30108.65
621.49	30178.87
621.65	30445.69
621.80	30300.58
621.95	29958.86
622.10	30625.91
622.25	29762.25
622.41	29984.60
622.56	30120.35
622.71	30113.33
622.86	30321.64
623.01	29839.49
623.16	30242.06
623.32	29783.32
623.47	30473.78
623.62	30307.60
623.77	29958.86
623.92	30136.74
624.07	30174.19
624.23	30085.25
624.38	30054.82
624.53	29509.47
624.68	29907.37
624.83	29986.94
624.98	30195.25
625.13	29575.01
625.29	29769.27
625.44	30251.42
625.59	29813.74
625.74	29607.78
625.89	29848.85
626.04	29743.53
626.19	29551.60
626.34	29413.51
626.49	29635.86
626.65	29724.80
626.80	29773.95
626.95	30120.35
627.10	29790.34
627.25	29553.94
627.40	29467.34
627.55	29443.94
627.70	29160.73
627.85	29081.16
628.00	29439.26
628.15	29261.38
628.30	29200.52
628.45	29357.34
628.60	29528.20
628.76	29708.42
628.91	29362.02
629.06	29741.19
629.21	29558.63
629.36	29448.62
629.51	29703.74
629.66	29240.31
629.81	28891.57
629.96	29319.89
630.11	29076.48
630.26	29088.18
630.41	29284.78
630.56	29446.28
630.71	29518.84
630.86	29116.26
631.01	28961.79
631.16	29350.32
631.31	29179.46
631.46	29149.03
631.61	29376.06
631.76	29015.62
631.91	29090.52
632.06	29116.26
632.21	28650.50
632.36	28793.27
632.51	28819.02
632.66	29134.99
632.81	28854.12
632.96	28947.75
633.10	29235.63
633.25	28879.87
633.40	28826.04
633.55	29032.00
633.70	28746.46
633.85	28741.78
634.00	28603.69
634.15	28758.16
634.30	28435.17
634.45	28582.62
634.60	28563.90
634.75	28788.59
634.90	28905.62
635.05	28694.97
635.19	28517.09
635.34	28922.00
635.49	28943.06
635.64	28751.14
635.79	28685.61
635.94	28549.85
636.09	28673.90
636.24	28252.61
636.39	28271.33
636.53	28800.29
636.68	28332.18
636.83	28161.33
636.98	28240.90
637.13	28772.21
637.28	28318.14
637.43	28381.34
637.57	28339.21
637.72	28329.84
637.87	28301.76
638.02	28472.62
638.17	28301.76
638.32	28489.00
638.46	28325.16
638.61	28287.71
638.76	27953.02
638.91	28320.48
639.06	28065.36
639.20	28205.80
639.35	28648.16
639.50	28437.51
639.65	28355.59
639.80	28301.76
639.94	28261.97
640.09	28376.66
640.24	28285.37
640.39	28023.23
640.54	27810.25
640.68	27756.41
640.83	27843.01
640.98	28034.94
641.13	27854.72
641.27	27899.19
641.42	27693.22
641.57	27906.21
641.72	28142.60
641.86	27857.06
642.01	27384.27
642.16	27864.08
642.31	27477.89
642.45	27735.35
642.60	27344.48
642.75	27414.69
642.90	27435.76
643.04	27304.69
643.19	27704.92
643.34	27634.71
643.48	27510.66
643.63	27463.85
643.78	27821.95
643.93	27690.88
644.07	27798.54
644.22	27962.38
644.37	27669.81
644.51	27772.80
644.66	27798.54
644.81	27611.30
644.95	27136.17
645.10	27644.07
645.25	27365.54
645.39	27775.14
645.54	27566.83
645.69	27321.07
645.83	27625.34
645.98	27491.93
646.13	27351.50
646.27	27344.48
646.42	27225.11
646.57	27374.91
646.71	27433.42
646.86	27323.41
647.00	27075.32
647.15	27543.42
647.30	27161.92
647.44	27583.21
647.59	27330.44
647.74	27194.68
647.88	27496.61
648.03	27129.15
648.17	26897.44
648.32	27194.68
648.47	27449.80
648.61	27012.12
648.76	27496.61
648.90	27248.52
649.05	27044.89
649.20	26944.25
649.34	27103.40
649.49	26871.69
649.63	26757.00
649.78	27070.64
649.92	26878.71
650.07	27157.24
650.21	26827.22
650.36	27014.46
650.51	27119.79
650.65	26885.73
650.80	26916.16
650.94	26986.38
651.09	26951.27
651.23	26651.68
651.38	26869.35
651.52	26836.58
651.67	26881.05
651.81	26794.45
651.96	26679.77
652.10	26424.65
652.25	26852.97
652.39	26808.50
652.54	26696.15
652.68	26714.87
652.83	26967.65
652.97	26778.07
653.12	26441.03
653.26	27072.98
653.41	26705.51
653.55	26668.06
653.70	26345.07
653.84	26555.72
653.99	26757.00
654.13	26448.05
654.27	26415.29
654.42	26143.78
654.56	26324.01
654.71	26663.38
654.85	26363.79
655.00	26733.60
655.14	26508.91
655.29	26588.49
655.43	26525.29
655.57	26270.17
655.72	26192.94
655.86	26614.23
656.01	26340.39
656.15	26293.58
656.30	26272.51
656.44	26202.30
656.58	25900.37
656.73	26052.50
656.87	26230.38
657.01	26202.30
657.16	26221.02
657.30	26040.80
657.45	26422.31
657.59	26160.17
657.73	26071.23
657.88	25769.30
658.02	25975.27
658.16	25729.51
658.31	25614.82
658.45	25825.47
658.60	25696.74
658.74	25666.31
658.88	25734.19
659.03	25855.90
659.17	25907.39
659.31	25865.26
659.46	26024.42
659.60	25741.21
659.74	25663.97
659.89	25544.61
660.03	25722.49
660.17	25869.94
660.32	25633.55
660.46	25247.36
660.60	25326.94
660.74	25467.37
660.89	25305.87
661.03	25041.39
661.17	25488.43
661.32	25268.42
661.46	25413.54
661.60	25404.17
661.74	25392.47
661.89	25247.36
662.03	25460.35
662.17	25673.34
662.31	25291.83
662.46	25163.10
662.60	25149.06
662.74	25310.55
662.88	25027.35
663.03	24905.64
663.17	24809.68
663.31	24662.22
663.45	24758.19
663.60	24886.92
663.74	24423.49
663.88	24879.89
664.02	24821.38
664.17	24779.25
664.31	24545.20
664.45	24652.86
664.59	24886.92
664.73	24620.10
664.88	24648.18
665.02	24517.11
665.16	24498.39
665.30	24673.93
665.44	24458.60
665.59	23939.00
665.73	24123.90
665.87	24269.01
666.01	24332.21
666.15	24503.07
666.29	24563.92
666.44	24156.67
666.58	24126.24
666.72	23709.63
666.86	24243.27
667.00	24240.93
667.14	24009.22
667.28	23885.17
667.43	24039.64
667.57	23798.57
667.71	24013.90
667.85	23943.68
667.99	23896.87
668.13	23836.02
668.27	23747.08
668.41	23927.30
668.56	23449.83
668.70	23585.58
668.84	23950.70
668.98	23613.66
669.12	23817.29
669.26	23714.31
669.40	23569.19
669.54	23456.85
669.68	23477.91
669.82	23377.27
669.96	23243.86
670.10	23534.09
670.25	23445.15
670.39	23360.89
670.53	23005.13
670.67	23168.96
670.81	23131.51
670.95	22829.59
671.09	23297.69
671.23	23026.19
671.37	23065.98
671.51	23571.54
671.65	23311.74
671.79	22616.60
671.93	22794.48
672.07	22684.47
672.21	22539.36
672.35	22272.54
672.49	22263.18
672.63	22799.16
672.77	22256.15
672.91	22522.98
673.05	22270.20
673.19	22569.79
673.33	22672.77
673.47	22490.21
673.61	22670.43
673.75	22609.58
673.89	22363.82
674.03	22106.36
674.17	22258.49
674.31	22309.99
674.45	21984.65
674.59	21947.20
674.73	21701.45
674.87	21963.59
675.01	21743.58
675.15	21607.83
675.29	21687.40
675.43	21806.77
675.56	21991.67
675.70	22005.72
675.84	21448.67
675.98	20858.85
676.12	21685.06
676.26	21664.00
676.40	21603.14
676.54	21656.98
676.68	21502.50
676.82	21223.98
676.96	21298.88
677.10	21118.65
677.23	21167.80
677.37	20769.91
677.51	20814.38
677.65	20741.83
677.79	20919.71
677.93	20854.17
678.07	20472.67
678.21	20479.69
678.34	20470.33
678.48	20603.74
678.62	20549.90
678.76	20446.92
678.90	20472.67
679.04	20393.09
679.18	20304.15
679.31	20100.52
679.45	19889.87
679.59	19878.17
679.73	19910.94
679.87	19920.30
680.00	20037.33
680.14	19906.26
680.28	19669.86
680.42	19864.13
680.56	19786.89
680.70	19702.63
680.83	19569.22
680.97	19520.07
681.11	19674.54
681.25	19468.58
681.39	19206.44
681.52	19389.00
681.66	19168.99
681.80	19349.21
681.94	19023.87
682.07	19150.26
682.21	19005.15
682.35	18817.91
682.49	18927.91
682.62	18696.20
682.76	18717.26
682.90	18635.35
683.04	18485.55
683.17	18902.17
683.31	18848.33
683.45	18499.59
683.59	18525.34
683.72	18684.50
683.86	18551.09
684.00	18249.16
684.13	18417.68
684.27	18120.43
684.41	17996.38
684.55	17928.50
684.68	17717.86
684.82	17827.86
684.96	17778.71
685.09	17678.07
685.23	17439.33
685.37	17844.24
685.50	17767.01
685.64	17586.79
685.78	17584.44
685.91	17994.04
686.05	17694.45
686.19	17289.54
686.32	17617.21
686.46	17383.16
686.60	17603.17
686.73	17420.61
686.87	17074.21
687.01	16947.82
687.14	17055.48
687.28	16922.07
687.42	16664.61
687.55	16875.26
687.69	16767.60
687.82	16769.94
687.96	16755.90
688.10	16652.91
688.23	16849.52
688.37	16624.83
688.50	16634.19
688.64	16664.61
688.78	16203.53
688.91	16266.72
689.05	16013.95
689.18	16255.02
689.32	15943.73
689.46	15950.75
689.59	16189.49
689.73	15985.86
689.86	15796.28
690.00	15854.79
690.13	15784.57
690.27	15630.10
690.41	15983.52
690.54	15625.42
690.68	15697.97
690.81	15833.72
690.95	15936.71
691.08	15349.23
691.22	15414.77
691.35	15496.69
691.49	15543.50
691.62	15360.94
691.76	15337.53
691.89	15382.00
692.03	15119.86
692.16	15030.92
692.30	14743.03
692.43	14663.46
692.57	14740.69
692.70	14839.00
692.84	14883.47
692.97	14721.97
693.11	14555.79
693.24	14541.75
693.38	14679.84
693.51	14452.81
693.65	14354.51
693.78	14398.98
693.92	14368.55
694.05	14288.97
694.19	14036.19
694.32	14277.27
694.45	14090.02
694.59	14047.90
694.72	13760.01
694.86	14001.08
694.99	13713.20
695.13	13596.17
695.26	13776.39
695.39	13671.07
695.53	13537.66
695.66	13834.91
695.80	13678.09
695.93	13528.30
696.07	13441.70
696.20	13561.06
696.33	13418.29
696.47	13334.03
696.60	13467.44
696.73	13437.02
696.87	12959.55
697.00	13004.02
697.14	12968.91
697.27	12746.56
697.40	12982.95
697.54	12978.27
697.67	12697.41
697.80	12655.28
697.94	12741.88
698.07	12545.27
698.21	12685.70
698.34	12580.38
698.47	12634.21
698.61	12587.40
698.74	12411.86
698.87	12355.69
699.01	12102.91
699.14	12226.96
699.27	12245.68
699.40	12170.79
699.54	12196.53
699.67	12049.08
699.80	12086.53
699.94	11789.28
700.07	11866.52
700.20	11648.85
700.34	11843.11
700.47	11651.19
700.60	11723.74
700.73	11702.68
700.87	11775.24
701.00	11824.39
701.13	11674.59
701.26	11503.73
701.40	11705.02
701.53	11552.88
701.66	11592.67
701.79	11412.45
701.93	11211.17
702.06	11082.44
702.19	11056.69
702.32	11232.23
702.46	11070.73
702.59	11110.52
702.72	10691.57
702.85	10902.22
702.99	10841.36
703.12	10490.28
703.25	10712.63
703.38	10839.02
703.51	10616.67
703.65	10562.84
703.78	10691.57
703.91	10509.01
704.04	10623.69
704.17	10607.31
704.31	10611.99
704.44	10562.84
704.57	10214.10
704.70	10303.04
704.83	10167.29
704.96	9975.36
705.10	10174.31
705.23	9839.61
>>>>>End Processed Spectral Data<<<<<
