SpectraSuite Data File
++++++++++++++++++++++++++++++++++++
Date: Fri Oct 18 13:58:06 GMT-05:00 2013
User: bianchi
Dark Spectrum Present: No
Reference Spectrum Present: No
Number of Sampled Component Spectra: 1
Spectrometers: USB2+H05261
Integration Time (usec): 50000 (USB2+H05261)
Spectra Averaged: 1 (USB2+H05261)
Boxcar Smoothing: 0 (USB2+H05261)
Correct for Electrical Dark: No (USB2+H05261)
Strobe/Lamp Enabled: No (USB2+H05261)
Correct for Detector Non-linearity: No (USB2+H05261)
Correct for Stray Light: No (USB2+H05261)
Number of Pixels in Processed Spectrum: 2048
>>>>>Begin Processed Spectral Data<<<<<
365.73	0.00
365.92	0.00
366.12	0.00
366.32	0.00
366.52	0.00
366.72	0.00
366.91	0.00
367.11	0.00
367.31	0.00
367.51	0.00
367.70	0.00
367.90	0.00
368.10	0.00
368.30	0.00
368.49	0.00
368.69	0.00
368.89	0.00
369.09	0.00
369.28	0.00
369.48	0.00
369.68	0.00
369.87	0.00
370.07	0.00
370.27	0.00
370.47	0.00
370.66	30.43
370.86	86.60
371.06	161.50
371.25	135.75
371.45	173.20
371.65	159.16
371.84	114.69
372.04	243.42
372.24	159.16
372.44	182.56
372.63	208.31
372.83	184.90
373.03	196.60
373.22	203.63
373.42	133.41
373.62	205.97
373.81	231.71
374.01	187.24
374.21	250.44
374.40	320.65
374.60	292.57
374.79	227.03
374.99	220.01
375.19	285.55
375.38	203.63
375.58	266.82
375.78	327.68
375.97	170.86
376.17	287.89
376.37	210.65
376.56	262.14
376.76	283.20
376.95	292.57
377.15	273.84
377.35	248.10
377.54	238.73
377.74	285.55
377.93	304.27
378.13	301.93
378.33	351.08
378.52	318.31
378.72	376.83
378.91	414.27
379.11	245.76
379.31	280.86
379.50	327.68
379.70	322.99
379.89	339.38
380.09	276.18
380.28	360.44
380.48	313.63
380.68	285.55
380.87	362.78
381.07	313.63
381.26	332.36
381.46	264.48
381.65	381.51
381.85	332.36
382.04	308.95
382.24	318.31
382.43	283.20
382.63	383.85
382.83	390.87
383.02	383.85
383.22	301.93
383.41	304.27
383.61	390.87
383.80	465.77
384.00	362.78
384.19	369.80
384.39	348.74
384.58	337.04
384.78	423.64
384.97	337.04
385.17	383.85
385.36	411.93
385.56	332.36
385.75	390.87
385.95	414.27
386.14	367.46
386.34	393.21
386.53	418.96
386.72	442.36
386.92	498.53
387.11	411.93
387.31	500.87
387.50	397.89
387.70	440.02
387.89	519.60
388.09	475.13
388.28	486.83
388.48	484.49
388.67	454.06
388.86	390.87
389.06	428.32
389.25	550.03
389.45	393.21
389.64	482.15
389.84	535.98
390.03	470.45
390.22	465.77
390.42	444.70
390.61	491.51
390.81	521.94
391.00	510.24
391.19	491.51
391.39	468.11
391.58	552.37
391.78	566.41
391.97	540.66
392.16	557.05
392.36	571.09
392.55	552.37
392.75	592.16
392.94	535.98
393.13	561.73
393.33	543.00
393.52	645.99
393.71	575.77
393.91	606.20
394.10	589.82
394.29	603.86
394.49	620.24
394.68	641.31
394.88	702.16
395.07	734.93
395.26	557.05
395.46	552.37
395.65	608.54
395.84	695.14
396.04	636.63
396.23	741.95
396.42	631.94
396.62	613.22
396.81	627.26
397.00	674.07
397.19	674.07
397.39	730.25
397.58	627.26
397.77	660.03
397.97	704.50
398.16	732.59
398.35	730.25
398.55	674.07
398.74	725.57
398.93	807.48
399.12	720.88
399.32	704.50
399.51	774.72
399.70	833.23
399.90	739.61
400.09	760.67
400.28	748.97
400.47	826.21
400.67	866.00
400.86	737.27
401.05	772.38
401.24	837.91
401.44	802.80
401.63	842.59
401.82	835.57
402.01	898.77
402.21	844.93
402.40	898.77
402.59	819.19
402.78	926.85
402.97	837.91
403.17	798.12
403.36	866.00
403.55	835.57
403.74	866.00
403.93	917.49
404.13	985.37
404.32	866.00
404.51	903.45
404.70	910.47
404.89	924.51
405.09	1032.18
405.28	1088.35
405.47	1046.22
405.66	983.02
405.85	894.08
406.05	943.24
406.24	973.66
406.43	1088.35
406.62	1125.80
406.81	1001.75
407.00	1036.86
407.20	1076.65
407.39	1137.50
407.58	1074.31
407.77	1156.22
407.96	1048.56
408.15	1111.75
408.34	1118.78
408.54	1102.39
408.73	1081.33
408.92	1128.14
409.11	1207.72
409.30	1212.40
409.49	1137.50
409.68	1210.06
409.87	1186.65
410.07	1341.13
410.26	1184.31
410.45	1210.06
410.64	1203.04
410.83	1308.36
411.02	1205.38
411.21	1210.06
411.40	1277.93
411.59	1224.10
411.78	1308.36
411.98	1334.11
412.17	1371.55
412.36	1291.98
412.55	1378.58
412.74	1401.98
412.93	1369.21
413.12	1345.81
413.31	1420.71
413.50	1277.93
413.69	1355.17
413.88	1483.90
414.07	1373.89
414.26	1526.03
414.45	1554.12
414.64	1502.62
414.83	1439.43
415.02	1469.86
415.22	1554.12
415.41	1526.03
415.60	1519.01
415.79	1561.14
415.98	1666.46
416.17	1703.91
416.36	1643.06
416.55	1563.48
416.74	1654.76
416.93	1710.93
417.12	1785.83
417.31	1715.61
417.50	1661.78
417.69	1827.96
417.88	1746.04
418.07	1806.89
418.26	1708.59
418.45	1706.25
418.64	1909.88
418.83	1874.77
419.02	1694.55
419.21	1893.49
419.39	1947.33
419.58	1853.70
419.77	1820.94
419.96	1879.45
420.15	1802.21
420.34	1907.54
420.53	1886.47
420.72	2120.53
420.91	1919.24
421.10	1874.77
421.29	1975.41
421.48	1977.75
421.67	2017.54
421.86	1952.01
422.05	2066.69
422.24	1994.14
422.43	2010.52
422.61	2038.61
422.80	2101.80
422.99	2132.23
423.18	2097.12
423.37	2148.61
423.56	1980.09
423.75	2017.54
423.94	2087.76
424.13	1930.94
424.32	1959.03
424.50	2054.99
424.69	2106.48
424.88	2181.38
425.07	2232.87
425.26	2094.78
425.45	2092.44
425.64	2097.12
425.83	2054.99
426.01	2059.67
426.20	2097.12
426.39	2148.61
426.58	2139.25
426.77	2165.00
426.96	2242.23
427.15	2143.93
427.33	2150.95
427.52	2209.47
427.71	2193.08
427.90	2150.95
428.09	2195.42
428.28	2204.78
428.46	2275.00
428.65	2207.13
428.84	2246.91
429.03	2314.79
429.22	2385.01
429.40	2296.07
429.59	2321.81
429.78	2157.97
429.97	2172.02
430.16	2235.21
430.34	2338.20
430.53	2317.13
430.72	2487.99
430.91	2370.96
431.10	2375.64
431.28	2347.56
431.47	2530.12
431.66	2462.24
431.85	2473.95
432.03	2464.58
432.22	2525.44
432.41	2499.69
432.60	2605.02
432.79	2523.10
432.97	2558.21
433.16	2499.69
433.35	2363.94
433.54	2614.38
433.72	2640.12
433.91	2558.21
434.10	2670.55
434.28	2499.69
434.47	2600.34
434.66	2588.63
434.85	2705.66
435.03	2597.99
435.22	2672.89
435.41	2740.77
435.59	2640.12
435.78	2555.86
435.97	2679.91
436.16	2703.32
436.34	2588.63
436.53	2862.48
436.72	2818.00
436.90	2684.59
437.09	2743.11
437.28	2696.30
437.46	2883.54
437.65	2827.37
437.84	2794.60
438.02	2810.98
438.21	2822.69
438.40	2820.35
438.58	2988.86
438.77	2892.90
438.96	2827.37
439.14	3042.70
439.33	3049.72
439.52	3035.67
439.70	3042.70
439.89	3073.12
440.08	3136.32
440.26	3117.59
440.45	3105.89
440.63	3112.91
440.82	3098.87
441.01	3133.98
441.19	3241.64
441.38	3272.07
441.57	3201.85
441.75	3382.07
441.94	3265.05
442.12	3265.05
442.31	3487.40
442.50	3344.63
442.68	3344.63
442.87	3405.48
443.05	3339.94
443.24	3459.31
443.43	3478.04
443.61	3499.10
443.80	3574.00
443.98	3398.46
444.17	3398.46
444.35	3403.14
444.54	3513.14
444.73	3496.76
444.91	3613.79
445.10	3545.91
445.28	3447.61
445.47	3536.55
445.65	3356.33
445.84	3538.89
446.02	3616.13
446.21	3569.32
446.39	3393.78
446.58	3552.93
446.77	3592.72
446.95	3405.48
447.14	3574.00
447.32	3637.19
447.51	3501.44
447.69	3492.08
447.88	3545.91
448.06	3634.85
448.25	3510.80
448.43	3698.05
448.62	3454.63
448.80	3536.55
448.99	3627.83
449.17	3620.81
449.36	3709.75
449.54	3709.75
449.73	3719.11
449.91	3805.71
450.10	3929.76
450.28	3819.75
450.46	3847.84
450.65	3784.65
450.83	3894.65
451.02	3796.35
451.20	3840.82
451.39	3967.21
451.57	3875.93
451.76	3894.65
451.94	3796.35
452.13	3918.06
452.31	3934.44
452.49	3911.04
452.68	3995.29
452.86	3948.48
453.05	4114.66
453.23	4004.66
453.42	3997.64
453.60	3971.89
453.78	3971.89
453.97	3955.51
454.15	4002.32
454.34	3995.29
454.52	3985.93
454.70	4114.66
454.89	4177.86
455.07	3997.64
455.26	4067.85
455.44	4154.45
455.62	4131.05
455.81	4138.07
455.99	4154.45
456.17	4264.46
456.36	4306.59
456.54	4402.55
456.73	4315.95
456.91	4393.19
457.09	4383.82
457.28	4552.34
457.46	4440.00
457.64	4486.81
457.83	4517.23
458.01	4285.52
458.19	4535.96
458.38	4484.47
458.56	4603.83
458.74	4461.06
458.93	4461.06
459.11	4550.00
459.29	4484.47
459.48	4669.37
459.66	4652.98
459.84	4458.72
460.03	4678.73
460.21	4641.28
460.39	4568.73
460.57	4526.60
460.76	4596.81
460.94	4725.54
461.12	4517.23
461.31	4620.22
461.49	4596.81
461.67	4800.44
461.85	4819.16
462.04	4713.84
462.22	4940.87
462.40	4713.84
462.59	4933.85
462.77	4732.56
462.95	4947.89
463.13	4821.50
463.32	4961.94
463.50	4894.06
463.68	4926.83
463.86	5013.43
464.05	4887.04
464.23	5022.79
464.41	5053.22
464.59	4961.94
464.78	4971.30
464.96	5008.75
465.14	5041.51
465.32	5034.49
465.50	5060.24
465.69	5039.17
465.87	4980.66
466.05	5123.43
466.23	5118.75
466.41	5004.07
466.60	5188.97
466.78	5057.90
466.96	5107.05
467.14	5179.61
467.32	5247.48
467.51	5343.44
467.69	5093.01
467.87	5245.14
468.05	5336.42
468.23	5231.10
468.41	5198.33
468.60	5203.01
468.78	5275.57
468.96	5399.62
469.14	5345.78
469.32	5467.49
469.50	5397.28
469.69	5472.17
469.87	5633.67
470.05	5554.09
470.23	5371.53
470.41	5577.50
470.59	5516.64
470.77	5612.60
470.95	5495.58
471.14	5582.18
471.32	5488.56
471.50	5666.44
471.68	5687.50
471.86	5792.83
472.04	5879.43
472.22	5900.49
472.40	5736.65
472.58	5853.68
472.77	6015.18
472.95	5909.85
473.13	6031.56
473.31	5989.43
473.49	5774.10
473.67	6005.81
473.85	6078.37
474.03	6085.39
474.21	6106.46
474.39	6118.16
474.57	6258.59
474.75	6263.27
474.93	6216.46
475.12	6340.51
475.30	6289.02
475.48	6317.11
475.66	6230.51
475.84	6483.28
476.02	6506.69
476.20	6544.14
476.38	6604.99
476.56	6773.51
476.74	6740.74
476.92	6649.46
477.10	6799.26
477.28	6768.83
477.46	6668.19
477.64	7019.27
477.82	6930.33
478.00	7192.47
478.18	7049.69
478.36	7281.41
478.54	7108.21
478.72	7452.27
478.90	7192.47
479.08	7117.57
479.26	7466.31
479.44	7419.50
479.62	7290.77
479.80	7566.95
479.98	7613.76
480.16	7700.36
480.34	7686.32
480.52	7866.54
480.70	7815.05
480.88	7779.94
481.06	8013.99
481.24	7719.09
481.41	7969.52
481.59	8079.53
481.77	8187.19
481.95	8262.09
482.13	8315.92
482.31	8252.73
482.49	8517.21
482.67	8631.90
482.85	8575.72
483.03	8662.32
483.21	8842.54
483.39	8856.59
483.57	9032.13
483.74	8678.71
483.92	8774.67
484.10	8739.56
484.28	9256.82
484.46	9224.05
484.64	9308.31
484.82	9252.14
485.00	9312.99
485.18	9549.39
485.35	9551.73
485.53	9535.34
485.71	9823.23
485.89	10038.56
486.07	9942.60
486.25	9804.50
486.43	10005.79
486.61	9942.60
486.78	10022.17
486.96	10059.62
487.14	10429.43
487.32	10298.36
487.50	10431.77
487.68	10391.98
487.85	10611.99
488.03	10766.46
488.21	10555.82
488.39	10881.15
488.57	10808.59
488.75	10965.41
488.92	10878.81
489.10	11070.73
489.28	11162.01
489.46	11279.04
489.64	11372.66
489.81	11442.88
489.99	11571.61
490.17	11796.30
490.35	11758.85
490.53	11728.42
490.70	11906.31
490.88	11969.50
491.06	12203.55
491.24	11812.68
491.41	12091.21
491.59	12395.48
491.77	12343.99
491.95	12353.35
492.13	12599.10
492.30	12659.96
492.48	12400.16
492.66	12774.64
492.84	12889.33
493.01	13069.55
493.19	12875.29
493.37	12999.34
493.54	13406.59
493.72	13015.72
493.90	13193.60
494.08	13214.66
494.25	13570.43
494.43	13331.69
494.61	13472.12
494.79	13603.19
494.96	13666.39
495.14	13813.84
495.32	13841.93
495.49	14026.83
495.67	13902.78
495.85	14019.81
496.02	14197.69
496.20	14310.04
496.38	14174.28
496.55	14389.61
496.73	14537.07
496.91	14441.11
497.09	14843.68
497.26	14513.66
497.44	15016.88
497.62	14743.03
497.79	14979.43
497.97	15133.90
498.14	14988.79
498.32	15094.11
498.50	14923.26
498.67	15204.12
498.85	15520.09
499.03	15522.43
499.20	15286.04
499.38	15295.40
499.56	15925.00
499.73	15824.36
499.91	15901.60
500.08	15803.30
500.26	15637.12
500.44	15520.09
500.61	15943.73
500.79	15810.32
500.97	16269.06
501.14	16624.83
501.32	16156.72
501.49	16147.36
501.67	16388.43
501.84	16292.47
502.02	16074.80
502.20	16582.70
502.37	16877.60
502.55	16568.65
502.72	16741.85
502.90	16676.32
503.07	16573.33
503.25	16475.03
503.43	16610.78
503.60	16966.54
503.78	16999.31
503.95	16985.27
504.13	17053.14
504.30	17207.62
504.48	16961.86
504.65	17160.81
504.83	17329.33
505.01	17570.40
505.18	17469.76
505.36	17554.02
505.53	17472.10
505.71	17181.87
505.88	17547.00
506.06	17460.40
506.23	17675.73
506.41	17750.62
506.58	18036.17
506.76	17701.47
506.93	18045.53
507.11	17671.04
507.28	17724.88
507.46	17640.62
507.63	18054.89
507.81	18478.53
507.98	18302.99
508.16	18340.44
508.33	18228.09
508.50	18349.80
508.68	18293.63
508.85	18515.98
509.03	18469.17
509.20	18684.50
509.38	18883.44
509.55	19030.90
509.73	18787.48
509.90	18799.18
510.08	18824.93
510.25	18956.00
510.42	18974.72
510.60	19051.96
510.77	19208.78
510.95	19330.48
511.12	19166.65
511.30	19147.92
511.47	19393.68
511.64	19728.38
511.82	19260.27
511.99	19360.91
512.17	19545.81
512.34	19763.48
512.51	19667.52
512.69	19744.76
512.86	19768.16
513.04	20049.03
513.21	19847.74
513.38	19880.51
513.56	20009.24
513.73	19894.55
513.90	19899.23
514.08	19920.30
514.25	20091.16
514.43	20166.06
514.60	20353.30
514.77	20449.26
514.95	20301.81
515.12	20379.04
515.29	20357.98
515.47	20421.17
515.64	20706.72
515.81	20776.94
515.99	20430.54
516.16	20919.71
516.33	20624.80
516.51	20945.45
516.68	20624.80
516.85	20580.33
517.03	20922.05
517.20	21179.51
517.37	20994.61
517.54	21022.69
517.72	21418.24
517.89	21160.78
518.06	20678.63
518.24	21088.23
518.41	21282.49
518.58	21319.94
518.75	21341.00
518.93	21406.54
519.10	21570.38
519.27	21390.16
519.45	21259.09
519.62	21600.80
519.79	21568.04
519.96	21561.02
520.14	21621.87
520.31	21898.05
520.48	21937.84
520.65	21891.03
520.83	21956.57
521.00	21905.07
521.17	21867.63
521.34	21977.63
521.52	22047.85
521.69	22387.22
521.86	22108.70
522.03	22345.09
522.20	22483.19
522.38	22567.45
522.55	22398.93
522.72	22387.22
522.89	22710.22
523.07	22888.10
523.24	22693.83
523.41	22735.96
523.58	22899.80
523.75	22672.77
523.92	22766.39
524.10	22909.16
524.27	22637.66
524.44	23168.96
524.61	23159.60
524.78	23316.42
524.96	23197.05
525.13	23157.26
525.30	22904.48
525.47	23248.54
525.64	23164.28
525.81	23274.29
525.98	23447.49
526.16	23517.70
526.33	23491.96
526.50	23845.38
526.67	23613.66
526.84	23566.85
527.01	23288.33
527.18	23367.91
527.36	23702.61
527.53	23754.10
527.70	23873.46
527.87	24084.11
528.04	24020.92
528.21	23913.25
528.38	23431.10
528.55	23838.36
528.72	24261.99
528.89	23843.04
529.07	24070.07
529.24	24065.39
529.41	24381.36
529.58	24025.60
529.75	23971.77
529.92	24315.83
530.09	23974.11
530.26	23988.15
530.43	24343.91
530.60	24329.87
530.77	24156.67
530.94	24325.19
531.11	24514.77
531.28	24395.40
531.46	24573.28
531.63	24678.61
531.80	25090.54
531.97	24584.99
532.14	24680.95
532.31	24470.30
532.48	25027.35
532.65	24631.80
532.82	24601.37
532.99	25181.82
533.16	24514.77
533.33	25308.21
533.50	25324.60
533.67	25113.95
533.84	25020.33
534.01	24896.28
534.18	25242.68
534.35	25458.01
534.52	25135.01
534.69	25315.23
534.86	25626.53
535.03	25390.13
535.20	25319.92
535.37	25537.59
535.54	25553.97
535.71	25219.27
535.88	25544.61
536.05	25322.26
536.22	25572.69
536.38	25989.31
536.55	25727.17
536.72	25752.91
536.89	25619.50
537.06	25727.17
537.23	25673.34
537.40	25923.77
537.57	25916.75
537.74	25785.68
537.91	25610.14
538.08	25853.56
538.25	25855.90
538.42	26174.21
538.59	25811.43
538.75	25710.78
538.92	26209.32
539.09	25914.41
539.26	25963.56
539.43	26129.74
539.60	26398.90
539.77	26492.52
539.94	26082.93
540.11	26127.40
540.28	25982.29
540.44	26504.23
540.61	26375.50
540.78	26698.49
540.95	26316.98
541.12	26558.06
541.29	26363.79
541.46	26412.95
541.62	26541.68
541.79	26930.20
541.96	26412.95
542.13	26150.81
542.30	26712.53
542.47	26717.22
542.63	26955.95
542.80	26775.73
542.97	27152.55
543.14	27143.19
543.31	26986.38
543.48	26850.63
543.64	27274.26
543.81	27058.93
543.98	27292.99
544.15	27447.46
544.32	27580.87
544.48	27241.50
544.65	27417.04
544.82	27438.10
544.99	26881.05
545.16	27386.61
545.32	27585.55
545.49	27234.47
545.66	27166.60
545.83	27578.53
546.00	27323.41
546.16	27505.98
546.33	27522.36
546.50	27033.19
546.67	27728.33
546.83	27234.47
547.00	27335.12
547.17	27562.15
547.34	27459.16
547.50	27927.27
547.67	28376.66
547.84	27751.73
548.00	27683.86
548.17	28154.30
548.34	27978.76
548.51	28247.93
548.67	28577.94
548.84	28180.05
549.01	27946.00
549.18	27950.68
549.34	27740.03
549.51	27793.86
549.68	28095.79
549.84	27861.74
550.01	28156.64
550.18	28006.85
550.34	28332.18
550.51	28088.77
550.68	28407.08
550.84	28278.35
551.01	28484.32
551.18	27843.01
551.34	28453.89
551.51	28276.01
551.68	28243.24
551.84	28395.38
552.01	28060.68
552.18	28620.07
552.34	28596.67
552.51	28624.75
552.68	28582.62
552.84	28217.50
553.01	28760.50
553.18	28690.29
553.34	28767.52
553.51	28690.29
553.67	29081.16
553.84	29158.39
554.01	29139.67
554.17	28570.92
554.34	29053.07
554.51	28617.73
554.67	28737.10
554.84	28519.43
555.00	28706.67
555.17	28776.89
555.33	28788.59
555.50	28517.09
555.67	28666.88
555.83	29006.26
556.00	29085.84
556.16	29291.80
556.33	28739.44
556.50	29296.49
556.66	29457.98
556.83	29151.37
556.99	29392.45
557.16	29418.19
557.32	29439.26
557.49	29273.08
557.65	29020.30
557.82	29338.62
557.98	28746.46
558.15	29355.00
558.32	29542.24
558.48	29247.33
558.65	29385.43
558.81	29858.21
558.98	29415.85
559.14	29806.72
559.31	29642.88
559.47	29355.00
559.64	29474.37
559.80	29996.31
559.97	29956.52
560.13	29584.37
560.30	29539.90
560.46	29848.85
560.63	29687.36
560.79	29993.97
560.96	29369.04
561.12	29460.32
561.29	29460.32
561.45	29720.12
561.61	30000.99
561.78	30005.67
561.94	30260.79
562.11	29656.93
562.27	29656.93
562.44	29495.43
562.60	29879.28
562.77	29528.20
562.93	29743.53
563.10	29968.22
563.26	29738.85
563.42	30096.95
563.59	30003.33
563.75	29708.42
563.92	30387.18
564.08	29956.52
564.24	30183.55
564.41	29347.98
564.57	29649.91
564.74	29989.28
564.90	29991.62
565.07	30300.58
565.23	30029.07
565.39	29865.24
565.56	30225.68
565.72	30047.80
565.88	29954.18
566.05	29846.51
566.21	29949.50
566.38	30218.66
566.54	30202.27
566.70	30536.97
566.87	30096.95
567.03	30387.18
567.19	30841.24
567.36	30431.65
567.52	30246.74
567.68	30333.34
567.85	30333.34
568.01	30410.58
568.17	30256.11
568.34	30263.13
568.50	30611.87
568.66	30333.34
568.83	30291.21
568.99	30473.78
569.15	30003.33
569.32	30244.40
569.48	30291.21
569.64	30295.89
569.81	30312.28
569.97	30600.16
570.13	30445.69
570.30	30504.20
570.46	30141.42
570.62	30284.19
570.78	29879.28
570.95	29949.50
571.11	30047.80
571.27	30211.64
571.43	30270.15
571.60	30436.33
571.76	30328.66
571.92	30789.75
572.09	30693.79
572.25	30436.33
572.41	30590.80
572.57	30455.05
572.74	30675.06
572.90	30478.46
573.06	30288.87
573.22	30323.98
573.38	30675.06
573.55	30476.12
573.71	30976.99
573.87	31175.94
574.03	30352.07
574.20	30672.72
574.36	30125.04
574.52	30609.53
574.68	30672.72
574.84	30850.60
575.01	30553.35
575.17	30433.99
575.33	30387.18
575.49	30504.20
575.65	30497.18
575.82	30866.98
575.98	30656.34
576.14	30518.25
576.30	30258.45
576.46	30260.79
576.62	30651.66
576.79	30448.03
576.95	30813.15
577.11	30153.12
577.27	30710.17
577.43	30689.10
577.59	31147.85
577.75	30787.41
577.92	30471.43
578.08	30565.06
578.24	30724.21
578.40	30775.70
578.56	30522.93
578.72	30759.32
578.88	30714.85
579.04	31098.70
579.21	30946.56
579.37	30937.20
579.53	31000.40
579.69	30565.06
579.85	30799.11
580.01	30752.30
580.17	30597.82
580.33	30707.83
580.49	30766.34
580.65	30822.51
580.82	30778.04
580.98	30890.39
581.14	31023.80
581.30	30948.90
581.46	30864.64
581.62	30817.83
581.78	30639.95
581.94	30597.82
582.10	30565.06
582.26	30518.25
582.42	30625.91
582.58	31072.95
582.74	30618.89
582.90	31365.52
583.06	30764.00
583.22	30410.58
583.38	30637.61
583.54	30668.04
583.70	30735.92
583.86	31002.74
584.02	30792.09
584.18	30820.17
584.34	30932.52
584.50	31117.42
584.66	31077.63
584.82	30890.39
584.98	30960.61
585.14	30689.10
585.30	30415.26
585.46	30541.65
585.62	30731.23
585.78	31339.77
585.94	30752.30
586.10	31042.53
586.26	30810.81
586.42	31505.95
586.58	31461.48
586.74	31101.04
586.90	30782.73
587.06	30815.49
587.22	31033.16
587.38	30696.13
587.54	30909.11
587.70	31180.62
587.86	31295.30
588.02	31166.57
588.18	31115.08
588.34	31197.00
588.49	31115.08
588.65	30876.35
588.81	31009.76
588.97	30979.33
589.13	30794.43
589.29	30932.52
589.45	31161.89
589.61	30649.32
589.77	31796.18
589.93	31491.91
590.08	31119.76
590.24	31232.11
590.40	31632.34
590.56	31264.88
590.72	31197.00
590.88	31101.04
591.04	31377.22
591.20	31491.91
591.35	31391.26
591.51	31749.37
591.67	31360.84
591.83	31454.46
591.99	31534.04
592.15	31379.56
592.31	31543.40
592.46	31225.09
592.62	31054.23
592.78	31178.28
592.94	31159.55
593.10	31421.69
593.26	31468.50
593.41	31569.15
593.57	31267.22
593.73	31136.15
593.89	31512.97
594.05	31243.81
594.20	31089.34
594.36	31152.53
594.52	31122.10
594.68	31232.11
594.84	31232.11
594.99	31318.71
595.15	31349.14
595.31	31798.52
595.47	31576.17
595.62	31817.24
595.78	31428.71
595.94	31353.82
596.10	31400.63
596.25	31765.75
596.41	31391.26
596.57	31391.26
596.73	31484.89
596.88	31358.50
597.04	31742.35
597.20	31449.78
597.36	31496.59
597.51	31786.82
597.67	31491.91
597.83	31386.58
597.99	31704.90
598.14	31381.90
598.30	31285.94
598.46	32023.21
598.61	31644.04
598.77	31606.59
598.93	31353.82
599.09	31477.86
599.24	31803.20
599.40	31473.18
599.56	31828.95
599.71	31686.17
599.87	31585.53
600.03	31260.20
600.18	31873.42
600.34	31555.10
600.50	31353.82
600.65	31667.45
600.81	31725.96
600.97	31817.24
601.12	31545.74
601.28	31569.15
601.44	31882.78
601.59	31983.42
601.75	31718.94
601.91	31908.52
602.06	31250.83
602.22	31632.34
602.37	31484.89
602.53	31644.04
602.69	32002.14
602.84	31562.12
603.00	31552.76
603.16	32006.83
603.31	31901.50
603.47	31983.42
603.62	31470.84
603.78	31402.97
603.94	31695.53
604.09	31615.96
604.25	31557.44
604.40	31367.86
604.56	31412.33
604.71	31747.03
604.87	31440.42
605.03	31658.09
605.18	31562.12
605.34	31388.92
605.49	31599.57
605.65	31754.05
605.80	31377.22
605.96	31264.88
606.12	31426.37
606.27	31740.00
606.43	31063.59
606.58	31833.63
606.74	31634.68
606.89	31218.07
607.05	31627.66
607.20	31756.39
607.36	31384.24
607.51	31613.62
607.67	31367.86
607.82	31393.61
607.98	31606.59
608.13	31206.36
608.29	31573.83
608.44	31751.71
608.60	31349.14
608.75	31662.77
608.91	31260.20
609.06	30965.29
609.22	31908.52
609.37	31007.42
609.53	31433.39
609.68	30897.41
609.84	31204.02
609.99	31496.59
610.15	31168.91
610.30	31213.38
610.46	31264.88
610.61	31323.39
610.76	31388.92
610.92	31089.34
611.07	30906.77
611.23	30998.06
611.38	31253.17
611.54	30838.90
611.69	31297.64
611.84	30962.95
612.00	31089.34
612.15	30986.35
612.31	31133.81
612.46	31337.43
612.62	31211.04
612.77	31218.07
612.92	31360.84
613.08	31391.26
613.23	31225.09
613.39	30918.48
613.54	30810.81
613.69	30859.96
613.85	31124.44
614.00	31299.98
614.15	31349.14
614.31	31028.48
614.46	31220.41
614.62	30941.88
614.77	31133.81
614.92	31009.76
615.08	30698.47
615.23	31119.76
615.38	30902.09
615.54	31051.89
615.69	30869.33
615.84	30764.00
616.00	30494.84
616.15	30857.62
616.30	30866.98
616.46	30637.61
616.61	30927.84
616.76	30913.80
616.92	31335.09
617.07	30930.18
617.22	30785.07
617.37	30363.77
617.53	31171.25
617.68	30581.44
617.83	30714.85
617.99	30621.23
618.14	30389.52
618.29	30895.07
618.45	30824.86
618.60	30745.28
618.75	30455.05
618.90	30906.77
619.06	30485.48
619.21	30740.60
619.36	30817.83
619.51	30721.87
619.67	30178.87
619.82	30192.91
619.97	30408.24
620.12	30169.51
620.28	30288.87
620.43	30548.67
620.58	30675.06
620.73	30593.14
620.89	30448.03
621.04	30499.52
621.19	30281.85
621.34	30080.56
621.49	30096.95
621.65	29916.73
621.80	30438.67
621.95	30174.19
622.10	30082.91
622.25	30256.11
622.41	30125.04
622.56	30089.93
622.71	30675.06
622.86	30368.45
623.01	29895.66
623.16	30118.01
623.32	30052.48
623.47	30206.95
623.62	30000.99
623.77	29914.39
623.92	29867.58
624.07	30258.45
624.23	29930.77
624.38	30033.75
624.53	30000.99
624.68	29752.89
624.83	30492.50
624.98	30094.61
625.13	30019.71
625.29	29832.47
625.44	30211.64
625.59	29158.39
625.74	29867.58
625.89	29771.61
626.04	29696.72
626.19	29488.41
626.34	29755.23
626.49	29795.02
626.65	29649.91
626.80	30000.99
626.95	29869.92
627.10	29682.67
627.25	29736.51
627.40	29804.38
627.55	29378.40
627.70	29310.53
627.85	29617.14
628.00	29504.79
628.15	29219.25
628.30	29436.92
628.45	29509.47
628.60	29317.55
628.76	29722.46
628.91	29401.81
629.06	29532.88
629.21	29317.55
629.36	29326.91
629.51	29352.66
629.66	29376.06
629.81	28879.87
629.96	29418.19
630.11	29195.84
630.26	29130.31
630.41	29003.92
630.56	29092.86
630.71	29305.85
630.86	29219.25
631.01	29273.08
631.16	29401.81
631.31	29343.30
631.46	29249.67
631.61	29357.34
631.76	29230.95
631.91	28900.94
632.06	28559.22
632.21	29010.94
632.36	29010.94
632.51	28816.68
632.66	28802.63
632.81	28844.76
632.96	29364.36
633.10	29090.52
633.25	28819.02
633.40	29404.15
633.55	28980.51
633.70	28224.52
633.85	28795.61
634.00	28463.25
634.15	28563.90
634.30	28858.81
634.45	28507.72
634.60	28786.25
634.75	28861.15
634.90	28966.47
635.05	28961.79
635.19	28662.20
635.34	28779.23
635.49	28994.56
635.64	28893.91
635.79	28542.83
635.94	28400.06
636.09	28718.37
636.24	28423.47
636.39	28510.07
636.53	28687.95
636.68	28528.79
636.83	28402.40
636.98	28713.69
637.13	28341.55
637.28	28694.97
637.43	28709.01
637.57	28503.04
637.72	28533.47
637.87	28360.27
638.02	28591.98
638.17	28552.20
638.32	28409.42
638.46	28500.70
638.61	28130.90
638.76	28336.87
638.91	28252.61
639.06	28051.32
639.20	28175.37
639.35	28662.20
639.50	28503.04
639.65	28500.70
639.80	28500.70
639.94	28519.43
640.09	28315.80
640.24	27950.68
640.39	27779.82
640.54	28041.96
640.68	27948.34
640.83	28004.51
640.98	27889.82
641.13	27941.32
641.27	28084.09
641.42	27946.00
641.57	28084.09
641.72	28271.33
641.86	28093.45
642.01	27604.28
642.16	27765.78
642.31	27707.26
642.45	27718.96
642.60	27828.97
642.75	27480.23
642.90	27800.88
643.04	27646.41
643.19	27964.72
643.34	27749.39
643.48	27452.14
643.63	27545.76
643.78	27725.99
643.93	27583.21
644.07	27887.48
644.22	27871.10
644.37	27782.16
644.51	28044.30
644.66	27655.77
644.81	27704.92
644.95	27477.89
645.10	27257.88
645.25	27264.90
645.39	27798.54
645.54	27611.30
645.69	27009.78
645.83	27601.94
645.98	27096.38
646.13	27480.23
646.27	27594.92
646.42	27915.57
646.57	27665.13
646.71	27503.64
646.86	27346.82
647.00	27524.70
647.15	26998.08
647.30	27391.29
647.44	27063.61
647.59	26972.33
647.74	27213.41
647.88	26967.65
648.03	27267.24
648.17	27445.12
648.32	27445.12
648.47	27225.11
648.61	27489.59
648.76	27253.20
648.90	26925.52
649.05	27119.79
649.20	27140.85
649.34	27206.39
649.49	26492.52
649.63	26700.83
649.78	27136.17
649.92	26806.16
650.07	27077.66
650.21	26883.39
650.36	26890.41
650.51	26579.12
650.65	27208.73
650.80	27037.87
650.94	27222.77
651.09	26754.66
651.23	26822.54
651.38	26735.94
651.52	27007.44
651.67	26913.82
651.81	26965.31
651.96	26677.43
652.10	26789.77
652.25	27033.19
652.39	26843.60
652.54	27005.10
652.68	26955.95
652.83	26820.20
652.97	26597.85
653.12	26892.76
653.26	26836.58
653.41	26890.41
653.55	26342.73
653.70	26712.53
653.84	26562.74
653.99	26478.48
654.13	26326.35
654.27	26412.95
654.42	26745.30
654.56	26480.82
654.71	26548.70
654.85	26611.89
655.00	26464.44
655.14	26387.20
655.29	26305.28
655.43	26565.08
655.57	26696.15
655.72	26387.20
655.86	26419.97
656.01	26150.81
656.15	26291.24
656.30	26134.42
656.44	25991.65
656.58	26113.36
656.73	26089.95
656.87	25968.24
657.01	26080.59
657.16	26171.87
657.30	26277.19
657.45	26214.00
657.59	26295.92
657.73	26103.99
657.88	25989.31
658.02	25940.16
658.16	25926.11
658.31	25813.77
658.45	25975.27
658.60	25649.93
658.74	25928.45
658.88	26024.42
659.03	25916.75
659.17	25687.38
659.31	25626.53
659.46	25626.53
659.60	25811.43
659.74	25497.80
659.89	25502.48
660.03	25549.29
660.17	25427.58
660.32	25420.56
660.46	25715.47
660.60	25579.71
660.74	25692.06
660.89	25633.55
661.03	25177.14
661.17	25376.09
661.32	25053.09
661.46	25443.96
661.60	25404.17
661.74	25738.87
661.89	25516.52
662.03	25135.01
662.17	25200.55
662.31	25025.01
662.46	25369.07
662.60	24767.55
662.74	24786.27
662.88	24896.28
663.03	24826.06
663.17	24968.84
663.31	24776.91
663.45	24844.79
663.60	24912.66
663.74	24844.79
663.88	24711.38
664.02	24774.57
664.17	25067.14
664.31	24678.61
664.45	24758.19
664.59	24601.37
664.73	24786.27
664.88	24353.27
665.02	24690.31
665.16	24034.96
665.30	24137.94
665.44	24617.75
665.59	24264.33
665.73	24552.22
665.87	24159.01
666.01	24341.57
666.15	24446.90
666.29	24264.33
666.44	24210.50
666.58	24074.75
666.72	24404.77
666.86	24287.74
667.00	24727.76
667.14	24084.11
667.28	24182.42
667.43	23667.50
667.57	24304.12
667.71	24292.42
667.85	23803.25
667.99	23618.35
668.13	23747.08
668.27	23854.74
668.41	23793.89
668.56	23906.23
668.70	23442.81
668.84	23758.78
668.98	23812.61
669.12	23733.03
669.26	23812.61
669.40	23716.65
669.54	23833.68
669.68	23587.92
669.82	23655.79
669.96	23538.77
670.10	23208.75
670.25	23452.17
670.39	23391.31
670.53	23049.60
670.67	23278.97
670.81	23349.18
670.95	23239.18
671.09	22953.63
671.23	23454.51
671.37	22754.69
671.51	23145.56
671.65	23040.23
671.79	23028.53
671.93	22773.41
672.07	22883.42
672.21	22614.26
672.35	22466.80
672.49	22288.92
672.63	22419.99
672.77	22277.22
672.91	22586.17
673.05	22445.74
673.19	22562.76
673.33	22286.58
673.47	22586.17
673.61	22377.86
673.75	22405.95
673.89	22532.34
674.03	22328.71
674.17	21940.18
674.31	22469.14
674.45	22279.56
674.59	22040.82
674.73	21867.63
674.87	22038.48
675.01	21921.46
675.15	21869.97
675.29	21659.32
675.43	22122.74
675.56	21755.28
675.70	21675.70
675.84	21785.71
675.98	21193.55
676.12	21886.35
676.26	21729.53
676.40	21708.47
676.54	21535.27
676.68	21240.36
676.82	21041.42
676.96	20968.86
677.10	21453.35
677.23	21095.25
677.37	21003.97
677.51	20882.26
677.65	21036.74
677.79	20573.31
677.93	20734.81
678.07	20631.82
678.21	20711.40
678.34	20566.29
678.48	20664.59
678.62	20177.76
678.76	20573.31
678.90	20182.44
679.04	20271.38
679.18	20372.02
679.31	19791.57
679.45	20123.93
679.59	19971.79
679.73	19688.59
679.87	19716.67
680.00	19910.94
680.14	19545.81
680.28	19831.36
680.42	19541.13
680.56	19969.45
680.70	19438.15
680.83	19810.29
680.97	19665.18
681.11	19440.49
681.25	19524.75
681.39	19594.96
681.52	19442.83
681.66	19403.04
681.80	19136.22
681.94	19143.24
682.07	19344.53
682.21	18911.53
682.35	18808.54
682.49	18836.63
682.62	18693.86
682.76	18817.91
682.90	18824.93
683.04	18562.79
683.17	18724.29
683.31	18780.46
683.45	18806.20
683.59	18740.67
683.72	18483.21
683.86	18466.83
684.00	18427.04
684.13	18148.51
684.27	18094.68
684.41	18174.26
684.55	17940.21
684.68	18059.57
684.82	17982.34
684.96	18047.87
685.09	17788.07
685.23	17682.75
685.37	17598.49
685.50	17867.65
685.64	17884.03
685.78	17664.02
685.91	17881.69
686.05	17659.34
686.19	17490.82
686.32	17568.06
686.46	17348.05
686.60	17128.04
686.73	17474.44
686.87	17202.94
687.01	16868.24
687.14	16919.73
687.28	17132.72
687.42	16753.55
687.55	16959.52
687.69	16945.48
687.82	16943.14
687.96	16884.62
688.10	17006.33
688.23	16636.53
688.37	16439.92
688.50	16404.81
688.64	16563.97
688.78	16608.44
688.91	16383.75
689.05	16425.88
689.18	16407.16
689.32	16084.16
689.46	15805.64
689.59	15988.20
689.73	15929.69
689.86	16166.08
690.00	15789.25
690.13	15875.85
690.27	15747.12
690.41	15939.05
690.54	15630.10
690.68	15789.25
690.81	15709.68
690.95	15697.97
691.08	15740.10
691.22	15403.07
691.35	15566.90
691.49	15770.53
691.62	15620.74
691.76	15243.91
691.89	14925.60
692.03	14958.36
692.16	14801.55
692.30	14799.21
692.43	14890.49
692.57	14761.76
692.70	14773.46
692.84	14766.44
692.97	14864.74
693.11	14684.52
693.24	14572.18
693.38	14565.15
693.51	14516.00
693.65	14420.04
693.78	14366.21
693.92	14490.26
694.05	14310.04
694.19	14291.31
694.32	14169.60
694.45	14111.09
694.59	14047.90
694.72	13769.37
694.86	13862.99
694.99	13830.23
695.13	13853.63
695.26	13900.44
695.39	13551.70
695.53	13923.85
695.66	13720.22
695.80	13540.00
695.93	13923.85
696.07	13439.36
696.20	13565.74
696.33	13523.62
696.47	13462.76
696.60	13240.41
696.73	13280.20
696.87	13158.49
697.00	13174.88
697.14	13099.98
697.27	12718.47
697.40	12912.74
697.54	12826.14
697.67	13013.38
697.80	12706.77
697.94	12676.34
698.07	12629.53
698.21	12430.59
698.34	12652.94
698.47	12479.74
698.61	12709.11
698.74	12503.14
698.87	12524.21
699.01	12475.06
699.14	12306.54
699.27	12280.79
699.40	12564.00
699.54	12037.38
699.67	12135.68
699.80	12152.06
699.94	12138.02
700.07	12154.40
700.20	11529.48
700.34	11597.35
700.47	11967.16
700.60	11695.66
700.73	11655.87
700.87	11571.61
701.00	11702.68
701.13	11641.82
701.26	11440.54
701.40	11524.80
701.53	11595.01
701.66	11531.82
701.79	11592.67
701.93	11377.34
702.06	11101.16
702.19	11063.71
702.32	11005.20
702.46	11066.05
702.59	11007.54
702.72	10841.36
702.85	10848.38
702.99	10768.80
703.12	10869.45
703.25	10883.49
703.38	10677.52
703.51	10736.04
703.65	10876.47
703.78	10532.41
703.91	10623.69
704.04	10532.41
704.17	10609.65
704.31	10375.59
704.44	10345.17
704.57	10513.69
704.70	10272.61
704.83	10232.82
704.96	9994.09
705.10	10061.96
705.23	10059.62
>>>>>End Processed Spectral Data<<<<<
