SpectraSuite Data File
++++++++++++++++++++++++++++++++++++
Date: Fri Oct 18 13:58:09 GMT-05:00 2013
User: bianchi
Dark Spectrum Present: No
Reference Spectrum Present: No
Number of Sampled Component Spectra: 1
Spectrometers: USB2+H05261
Integration Time (usec): 50000 (USB2+H05261)
Spectra Averaged: 1 (USB2+H05261)
Boxcar Smoothing: 0 (USB2+H05261)
Correct for Electrical Dark: No (USB2+H05261)
Strobe/Lamp Enabled: No (USB2+H05261)
Correct for Detector Non-linearity: No (USB2+H05261)
Correct for Stray Light: No (USB2+H05261)
Number of Pixels in Processed Spectrum: 2048
>>>>>Begin Processed Spectral Data<<<<<
365.73	0.00
365.92	0.00
366.12	0.00
366.32	0.00
366.52	0.00
366.72	0.00
366.91	0.00
367.11	0.00
367.31	0.00
367.51	0.00
367.70	0.00
367.90	0.00
368.10	0.00
368.30	0.00
368.49	0.00
368.69	0.00
368.89	0.00
369.09	0.00
369.28	0.00
369.48	0.00
369.68	0.00
369.87	0.00
370.07	0.00
370.27	0.00
370.47	0.00
370.66	107.66
370.86	63.19
371.06	88.94
371.25	105.32
371.45	177.88
371.65	173.20
371.84	189.58
372.04	175.54
372.24	163.84
372.44	149.79
372.63	189.58
372.83	245.76
373.03	278.52
373.22	163.84
373.42	173.20
373.62	227.03
373.81	184.90
374.01	273.84
374.21	217.67
374.40	191.92
374.60	203.63
374.79	210.65
374.99	215.33
375.19	304.27
375.38	271.50
375.58	285.55
375.78	292.57
375.97	322.99
376.17	285.55
376.37	299.59
376.56	238.73
376.76	255.12
376.95	276.18
377.15	234.05
377.35	339.38
377.54	311.29
377.74	283.20
377.93	304.27
378.13	344.06
378.33	301.93
378.52	330.02
378.72	320.65
378.91	283.20
379.11	330.02
379.31	365.12
379.50	337.04
379.70	379.17
379.89	369.80
380.09	269.16
380.28	273.84
380.48	334.70
380.68	325.33
380.87	273.84
381.07	320.65
381.26	341.72
381.46	383.85
381.65	386.19
381.85	332.36
382.04	299.59
382.24	297.25
382.43	351.08
382.63	273.84
382.83	341.72
383.02	229.37
383.22	287.89
383.41	330.02
383.61	353.42
383.80	395.55
384.00	358.10
384.19	341.72
384.39	334.70
384.58	395.55
384.78	348.74
384.97	386.19
385.17	411.93
385.36	367.46
385.56	400.23
385.75	390.87
385.95	414.27
386.14	407.25
386.34	435.34
386.53	421.30
386.72	369.80
386.92	395.55
387.11	440.02
387.31	416.62
387.50	435.34
387.70	482.15
387.89	374.49
388.09	404.91
388.28	491.51
388.48	465.77
388.67	482.15
388.86	477.47
389.06	388.53
389.25	430.66
389.45	463.43
389.64	465.77
389.84	472.79
390.03	505.56
390.22	524.28
390.42	437.68
390.61	428.32
390.81	484.49
391.00	519.60
391.19	552.37
391.39	505.56
391.58	493.85
391.78	528.96
391.97	624.92
392.16	573.43
392.36	641.31
392.55	596.84
392.75	526.62
392.94	641.31
393.13	566.41
393.33	528.96
393.52	543.00
393.71	606.20
393.91	610.88
394.10	608.54
394.29	606.20
394.49	550.03
394.68	610.88
394.88	580.45
395.07	571.09
395.26	531.30
395.46	667.05
395.65	692.80
395.84	643.65
396.04	716.20
396.23	636.63
396.42	746.63
396.62	664.71
396.81	709.18
397.00	631.94
397.19	711.52
397.39	723.23
397.58	697.48
397.77	704.50
397.97	727.91
398.16	704.50
398.35	653.01
398.55	734.93
398.74	781.74
398.93	784.08
399.12	746.63
399.32	763.01
399.51	758.33
399.70	727.91
399.90	746.63
400.09	751.31
400.28	812.17
400.47	753.65
400.67	837.91
400.86	755.99
401.05	748.97
401.24	786.42
401.44	833.23
401.63	828.55
401.82	781.74
402.01	856.64
402.21	807.48
402.40	802.80
402.59	772.38
402.78	856.64
402.97	812.17
403.17	908.13
403.36	973.66
403.55	898.77
403.74	926.85
403.93	959.62
404.13	924.51
404.32	959.62
404.51	905.79
404.70	929.19
404.89	922.17
405.09	1050.90
405.28	861.32
405.47	987.71
405.66	1020.47
405.85	966.64
406.05	987.71
406.24	1001.75
406.43	992.39
406.62	901.11
406.81	1093.03
407.00	1029.84
407.20	1057.92
407.39	1062.60
407.58	1062.60
407.77	1001.75
407.96	1118.78
408.15	1081.33
408.34	1142.18
408.54	1167.93
408.73	1076.65
408.92	1022.81
409.11	1102.39
409.30	1217.08
409.49	1196.01
409.68	1149.20
409.87	1210.06
410.07	1217.08
410.26	1238.14
410.45	1151.54
410.64	1181.97
410.83	1193.67
411.02	1160.91
411.21	1308.36
411.40	1233.46
411.59	1240.48
411.78	1301.34
411.98	1275.59
412.17	1366.87
412.36	1315.38
412.55	1331.76
412.74	1359.85
412.93	1399.64
413.12	1343.47
413.31	1376.24
413.50	1343.47
413.69	1460.49
413.88	1437.09
414.07	1423.05
414.26	1439.43
414.45	1406.66
414.64	1488.58
414.83	1584.54
415.02	1423.05
415.22	1542.41
415.41	1664.12
415.60	1598.59
415.79	1598.59
415.98	1605.61
416.17	1666.46
416.36	1607.95
416.55	1612.63
416.74	1671.14
416.93	1650.08
417.12	1633.69
417.31	1837.32
417.50	1736.68
417.69	1816.26
417.88	1799.87
418.07	1795.19
418.26	1755.40
418.45	1827.96
418.64	1834.98
418.83	1860.73
419.02	1820.94
419.21	1792.85
419.39	1804.55
419.58	1825.62
419.77	1844.34
419.96	1839.66
420.15	1998.82
420.34	1916.90
420.53	1949.67
420.72	2012.86
420.91	1912.22
421.10	1977.75
421.29	2005.84
421.48	1963.71
421.67	2076.06
421.86	2010.52
422.05	2052.65
422.24	1909.88
422.43	1991.80
422.61	1949.67
422.80	1994.14
422.99	2076.06
423.18	2155.63
423.37	2221.17
423.56	2115.84
423.75	1963.71
423.94	1937.96
424.13	1970.73
424.32	1980.09
424.50	2118.18
424.69	2165.00
424.88	2106.48
425.07	2019.88
425.26	2134.57
425.45	2062.01
425.64	2097.12
425.83	2054.99
426.01	2064.35
426.20	2054.99
426.39	2099.46
426.58	1977.75
426.77	2015.20
426.96	2141.59
427.15	2143.93
427.33	2162.66
427.52	2141.59
427.71	2246.91
427.90	2129.89
428.09	2195.42
428.28	2239.89
428.46	2181.38
428.65	2265.64
428.84	2263.30
429.03	2251.60
429.22	2260.96
429.40	2403.73
429.59	2387.35
429.78	2127.55
429.97	2167.34
430.16	2235.21
430.34	2293.72
430.53	2420.11
430.72	2385.01
430.91	2253.94
431.10	2228.19
431.28	2459.90
431.47	2445.86
431.66	2455.22
431.85	2413.09
432.03	2490.33
432.22	2499.69
432.41	2441.18
432.60	2506.71
432.79	2485.65
432.97	2675.23
433.16	2551.18
433.35	2394.37
433.54	2443.52
433.72	2605.02
433.91	2499.69
434.10	2619.06
434.28	2665.87
434.47	2672.89
434.66	2719.70
434.85	2595.65
435.03	2626.08
435.22	2656.51
435.41	2740.77
435.59	2651.83
435.78	2602.68
435.97	2731.41
436.16	2693.96
436.34	2743.11
436.53	2712.68
436.72	2691.62
436.90	2654.17
437.09	2808.64
437.28	2761.83
437.46	2743.11
437.65	2768.85
437.84	2890.56
438.02	2810.98
438.21	2785.24
438.40	2677.57
438.58	2885.88
438.77	2911.63
438.96	3000.57
439.14	2974.82
439.33	2991.20
439.52	2818.00
439.70	2951.42
439.89	3173.77
440.08	3145.68
440.26	3164.40
440.45	3042.70
440.63	3012.27
440.82	3258.03
441.01	3080.14
441.19	3155.04
441.38	3218.24
441.57	3274.41
441.75	3286.11
441.94	3351.65
442.12	3342.28
442.31	3428.88
442.50	3466.33
442.68	3501.44
442.87	3421.86
443.05	3393.78
443.24	3510.80
443.43	3426.54
443.61	3454.63
443.80	3581.02
443.98	3330.58
444.17	3232.28
444.35	3569.32
444.54	3641.87
444.73	3314.20
444.91	3440.59
445.10	3531.87
445.28	3548.25
445.47	3405.48
445.65	3562.30
445.84	3496.76
446.02	3606.77
446.21	3529.53
446.39	3496.76
446.58	3639.53
446.77	3499.10
446.95	3445.27
447.14	3564.64
447.32	3583.36
447.51	3517.83
447.69	3531.87
447.88	3559.95
448.06	3534.21
448.25	3468.67
448.43	3693.37
448.62	3475.70
448.80	3620.81
448.99	3646.55
449.17	3662.94
449.36	3653.58
449.54	3880.61
449.73	3735.50
449.91	3751.88
450.10	3648.90
450.28	3925.08
450.46	3808.05
450.65	3761.24
450.83	3698.05
451.02	3929.76
451.20	3815.07
451.39	3784.65
451.57	3873.59
451.76	3815.07
451.94	3894.65
452.13	3904.01
452.31	4004.66
452.49	3812.73
452.68	3904.01
452.86	3915.72
453.05	4025.72
453.23	4053.81
453.42	3861.88
453.60	3836.14
453.78	3946.14
453.97	3943.80
454.15	4037.42
454.34	4079.55
454.52	4091.26
454.70	4011.68
454.89	4152.11
455.07	4018.70
455.26	4091.26
455.44	4142.75
455.62	4156.79
455.81	4257.43
455.99	4297.22
456.17	4145.09
456.36	4156.79
456.54	4262.12
456.73	4245.73
456.91	4311.27
457.09	4374.46
457.28	4477.44
457.46	4395.53
457.64	4432.97
457.83	4465.74
458.01	4329.99
458.19	4531.28
458.38	4407.23
458.56	4636.60
458.74	4526.60
458.93	4379.14
459.11	4472.76
459.29	4456.38
459.48	4390.84
459.66	4610.86
459.84	4676.39
460.03	4713.84
460.21	4772.35
460.39	4610.86
460.57	4475.10
460.76	4608.51
460.94	4688.09
461.12	4704.48
461.31	4643.62
461.49	4589.79
461.67	4674.05
461.85	4777.03
462.04	4926.83
462.22	5034.49
462.40	4805.12
462.59	4840.23
462.77	4800.44
462.95	4880.02
463.13	4964.28
463.32	4856.61
463.50	4959.60
463.68	5156.20
463.86	4880.02
464.05	4980.66
464.23	4685.75
464.41	4947.89
464.59	4762.99
464.78	4980.66
464.96	4983.00
465.14	4896.40
465.32	5097.69
465.50	5153.86
465.69	5144.50
465.87	4980.66
466.05	5093.01
466.23	5107.05
466.41	5193.65
466.60	5107.05
466.78	5095.35
466.96	5057.90
467.14	5184.29
467.32	5224.08
467.51	5291.95
467.69	5095.35
467.87	5170.24
468.05	5394.93
468.23	5254.50
468.41	5160.88
468.60	5296.63
468.78	5369.19
468.96	5322.38
469.14	5348.12
469.32	5348.12
469.50	5242.80
469.69	5425.36
469.87	5392.59
470.05	5474.51
470.23	5453.45
470.41	5507.28
470.59	5425.36
470.77	5437.06
470.95	5493.24
471.14	5750.70
471.32	5542.39
471.50	5692.18
471.68	5720.27
471.86	5760.06
472.04	5636.01
472.22	5799.85
472.40	5696.86
472.58	5865.38
472.77	6022.20
472.95	5951.98
473.13	6150.93
473.31	5947.30
473.49	6157.95
473.67	5982.41
473.85	6003.47
474.03	6169.65
474.21	6122.84
474.39	6279.66
474.57	6207.10
474.75	6209.44
474.93	6270.30
475.12	6141.57
475.30	6221.14
475.48	6359.24
475.66	6380.30
475.84	6408.39
476.02	6450.52
476.20	6448.18
476.38	6649.46
476.56	6513.71
476.74	6750.10
476.92	6597.97
477.10	6808.62
477.28	6806.28
477.46	6754.79
477.64	6677.55
477.82	6876.49
478.00	7129.27
478.18	7077.78
478.36	7248.64
478.54	7201.83
478.72	7286.09
478.90	7234.60
479.08	7396.09
479.26	7531.84
479.44	7356.30
479.62	7405.46
479.80	7466.31
479.98	7503.76
480.16	7707.38
480.34	7606.74
480.52	7728.45
480.70	7943.78
480.88	7721.43
481.06	7779.94
481.24	7822.07
481.41	7810.37
481.59	8095.91
481.77	8313.58
481.95	8395.50
482.13	8173.15
482.31	8311.24
482.49	8416.57
482.67	8369.76
482.85	8437.63
483.03	8531.25
483.21	8692.75
483.39	8711.47
483.57	8889.35
483.74	8933.82
483.92	8975.95
484.10	8849.57
484.28	9149.15
484.46	9149.15
484.64	9401.93
484.82	9249.80
485.00	9242.78
485.18	9551.73
485.35	9434.70
485.53	9427.68
485.71	9561.09
485.89	9905.15
486.07	9928.55
486.25	9727.27
486.43	9895.78
486.61	9865.36
486.78	10015.15
486.96	10010.47
487.14	10403.68
487.32	10310.06
487.50	10272.61
487.68	10649.44
487.85	10523.05
488.03	10700.93
488.21	10796.89
488.39	10782.85
488.57	10670.50
488.75	10745.40
488.92	10984.13
489.10	11220.53
489.28	11117.54
489.46	11384.37
489.64	11147.97
489.81	11534.16
489.99	11808.00
490.17	11700.34
490.35	11449.90
490.53	11800.98
490.70	11653.53
490.88	11630.12
491.06	11922.69
491.24	11892.26
491.41	11978.86
491.59	12098.23
491.77	11880.56
491.95	12224.62
492.13	12554.63
492.30	12542.93
492.48	12767.62
492.66	12512.50
492.84	12657.62
493.01	12812.09
493.19	12814.43
493.37	13121.04
493.54	13088.28
493.72	13041.46
493.90	13128.06
494.08	13315.31
494.25	13371.48
494.43	13355.10
494.61	13591.49
494.79	13671.07
494.96	13872.36
495.14	13507.23
495.32	13675.75
495.49	14047.90
495.67	13907.46
495.85	13736.60
496.02	13930.87
496.20	14155.56
496.38	14295.99
496.55	14293.65
496.73	14586.22
496.91	14693.88
497.09	14464.51
497.26	14815.59
497.44	14567.49
497.62	14714.95
497.79	14862.40
497.97	14766.44
498.14	15215.82
498.32	15124.54
498.50	15035.60
498.67	15587.97
498.85	15431.15
499.03	15323.49
499.20	15169.01
499.38	15473.28
499.56	15585.63
499.73	15594.99
499.91	15807.98
500.08	15824.36
500.26	15744.78
500.44	15749.46
500.61	15929.69
500.79	15985.86
500.97	16020.97
501.14	16285.45
501.32	16418.86
501.49	16156.72
501.67	16259.70
501.84	16297.15
502.02	16425.88
502.20	16458.65
502.37	16617.80
502.55	16634.19
502.72	16725.47
502.90	16468.01
503.07	16666.95
503.25	16449.28
503.43	16559.29
503.60	16861.22
503.78	17275.49
503.95	16758.24
504.13	16985.27
504.30	17163.15
504.48	17092.93
504.65	17231.02
504.83	17305.92
505.01	17392.52
505.18	17455.72
505.36	17366.78
505.53	17240.39
505.71	17521.25
505.88	17558.70
506.06	17516.57
506.23	17872.33
506.41	17696.79
506.58	17825.52
506.76	17671.04
506.93	17893.40
507.11	17802.11
507.28	17862.97
507.46	17762.33
507.63	18029.15
507.81	18377.89
507.98	18272.56
508.16	18092.34
508.33	18312.35
508.50	18164.90
508.68	18223.41
508.85	18457.46
509.03	18623.64
509.20	18572.15
509.38	18663.43
509.55	18979.40
509.73	18899.83
509.90	18871.74
510.08	18883.44
510.25	18693.86
510.42	18970.04
510.60	18874.08
510.77	19225.16
510.95	19094.09
511.12	19248.57
511.30	18745.35
511.47	19311.76
511.64	19218.14
511.82	19501.34
511.99	19412.40
512.17	19613.69
512.34	19899.23
512.51	19604.33
512.69	19484.96
512.86	19484.96
513.04	19807.95
513.21	19646.46
513.38	20063.07
513.56	20201.16
513.73	20023.28
513.90	19768.16
514.08	19985.83
514.25	19763.48
514.43	20231.59
514.60	20144.99
514.77	20226.91
514.95	20519.48
515.12	20297.13
515.29	20346.28
515.47	20599.05
515.64	20776.94
515.81	20198.82
515.99	20706.72
516.16	20587.35
516.33	20648.21
516.51	20475.01
516.68	20858.85
516.85	20943.11
517.03	20961.84
517.20	20826.09
517.37	21050.78
517.54	20940.77
517.72	20893.96
517.89	20905.66
518.06	21013.33
518.24	20961.84
518.41	21188.87
518.58	21249.72
518.75	21401.86
518.93	21521.23
519.10	21668.68
519.27	21612.51
519.45	21453.35
519.62	21708.47
519.79	21436.97
519.96	21717.83
520.14	22017.42
520.31	21898.05
520.48	22040.82
520.65	21891.03
520.83	22008.06
521.00	21984.65
521.17	21734.21
521.34	21790.39
521.52	21989.33
521.69	22040.82
521.86	22469.14
522.03	22089.98
522.20	22403.61
522.38	22251.47
522.55	22270.20
522.72	22164.87
522.89	22347.44
523.07	22462.12
523.24	22464.46
523.41	22511.27
523.58	22625.96
523.75	22745.33
523.92	22452.76
524.10	22530.00
524.27	22953.63
524.44	22993.42
524.61	23328.12
524.78	22934.91
524.96	23185.35
525.13	23293.01
525.30	23124.49
525.47	23087.04
525.64	23257.90
525.81	23318.76
525.98	23651.11
526.16	23222.80
526.33	23213.43
526.50	23262.58
526.67	22998.10
526.84	23456.85
527.01	23290.67
527.18	23889.85
527.36	23475.57
527.53	23618.35
527.70	23936.66
527.87	24039.64
528.04	23735.37
528.21	23761.12
528.38	23969.43
528.55	23613.66
528.72	23735.37
528.89	23711.97
529.07	23770.48
529.24	23852.40
529.41	23934.32
529.58	23971.77
529.75	23854.74
529.92	24149.65
530.09	23875.80
530.26	24559.24
530.43	24105.18
530.60	24250.29
530.77	24067.73
530.94	24407.11
531.11	24357.96
531.28	24051.34
531.46	24463.28
531.63	24432.85
531.80	24500.73
531.97	24697.33
532.14	24533.50
532.31	24629.46
532.48	24603.71
532.65	24723.08
532.82	24819.04
532.99	24882.24
533.16	24547.54
533.33	24849.47
533.50	25443.96
533.67	25408.86
533.84	24746.48
534.01	24807.34
534.18	24980.54
534.35	25458.01
534.52	25235.66
534.69	25266.08
534.86	25443.96
535.03	24985.22
535.20	24924.36
535.37	25525.88
535.54	25523.54
535.71	25163.10
535.88	25120.97
536.05	25202.89
536.22	25493.12
536.38	25612.48
536.55	25324.60
536.72	25729.51
536.89	25455.67
537.06	25469.71
537.23	25631.21
537.40	25497.80
537.57	25818.45
537.74	25399.49
537.91	25949.52
538.08	25883.98
538.25	25617.16
538.42	25813.77
538.59	26136.76
538.75	25916.75
538.92	26174.21
539.09	26057.18
539.26	25867.60
539.43	26307.62
539.60	26127.40
539.77	26082.93
539.94	26370.82
540.11	26005.69
540.28	26256.13
540.44	26157.83
540.61	26443.37
540.78	26071.23
540.95	26370.82
541.12	26499.55
541.29	26602.53
541.46	26321.66
541.62	26483.16
541.79	26546.36
541.96	26197.62
542.13	26450.39
542.30	26389.54
542.47	26270.17
542.63	26778.07
542.80	26700.83
542.97	26656.36
543.14	27152.55
543.31	26749.98
543.48	26532.31
543.64	27168.94
543.81	27051.91
543.98	27199.37
544.15	27047.23
544.32	26981.70
544.48	27388.95
544.65	27204.05
544.82	27391.29
544.99	26955.95
545.16	27264.90
545.32	27316.39
545.49	27711.94
545.66	27351.50
545.83	27398.31
546.00	27545.76
546.16	27288.31
546.33	27702.58
546.50	26991.06
546.67	27604.28
546.83	27412.35
547.00	27686.20
547.17	27360.86
547.34	27924.93
547.50	27826.63
547.67	28116.86
547.84	27461.51
548.00	27990.47
548.17	27821.95
548.34	27894.50
548.51	27946.00
548.67	27601.94
548.84	27971.74
549.01	27953.02
549.18	27948.34
549.34	27747.05
549.51	27707.26
549.68	27906.21
549.84	27817.27
550.01	28084.09
550.18	27927.27
550.34	28147.28
550.51	28404.74
550.68	28390.70
550.84	28166.01
551.01	28177.71
551.18	28034.94
551.34	27866.42
551.51	28119.20
551.68	28371.97
551.84	28449.21
552.01	28189.41
552.18	28498.36
552.34	28306.44
552.51	28505.38
552.68	28144.94
552.84	28205.80
553.01	28486.66
553.18	28477.30
553.34	28638.80
553.51	28582.62
553.67	28528.79
553.84	29036.69
554.01	28762.84
554.17	28390.70
554.34	28723.05
554.51	28273.67
554.67	28975.83
554.84	28615.39
555.00	28334.53
555.17	28451.55
555.33	29029.66
555.50	28807.31
555.67	28840.08
555.83	28889.23
556.00	28781.57
556.16	28938.38
556.33	29060.09
556.50	28903.28
556.66	29163.08
556.83	28861.15
556.99	28795.61
557.16	29214.57
557.32	28945.41
557.49	29188.82
557.65	28971.15
557.82	29020.30
557.98	29254.36
558.15	29149.03
558.32	29186.48
558.48	29394.79
558.65	29102.22
558.81	29462.66
558.98	29170.10
559.14	29582.03
559.31	29212.23
559.47	29326.91
559.64	29331.59
559.80	29649.91
559.97	29518.84
560.13	29270.74
560.30	29530.54
560.46	29839.49
560.63	29532.88
560.79	29228.61
560.96	29699.06
561.12	29242.65
561.29	29422.87
561.45	29689.70
561.61	29682.67
561.78	29830.13
561.94	29752.89
562.11	29551.60
562.27	29724.80
562.44	29570.33
562.60	29617.14
562.77	29663.95
562.93	29408.83
563.10	29738.85
563.26	29612.46
563.42	30061.84
563.59	29535.22
563.75	29366.70
563.92	30036.09
564.08	29490.75
564.24	29722.46
564.41	29642.88
564.57	29528.20
564.74	29963.54
564.90	30363.77
565.07	29986.94
565.23	29731.83
565.39	29532.88
565.56	30457.39
565.72	29724.80
565.88	29797.36
566.05	29888.64
566.21	29750.55
566.38	30171.85
566.54	29991.62
566.70	30134.40
566.87	30457.39
567.03	30192.91
567.19	30052.48
567.36	30064.18
567.52	29759.91
567.68	30452.71
567.85	29912.05
568.01	29944.81
568.17	30401.22
568.34	30054.82
568.50	30522.93
568.66	29888.64
568.83	30115.67
568.99	30246.74
569.15	30026.73
569.32	30522.93
569.48	30174.19
569.64	30316.96
569.81	30422.28
569.97	30249.08
570.13	30312.28
570.30	30281.85
570.46	30499.52
570.62	30232.70
570.78	30338.02
570.95	29989.28
571.11	30204.61
571.27	29797.36
571.43	30312.28
571.60	30281.85
571.76	30321.64
571.92	30160.14
572.09	30738.26
572.25	30782.73
572.41	30431.65
572.57	30436.33
572.74	30682.08
572.90	30157.80
573.06	30263.13
573.22	30258.45
573.38	30443.35
573.55	30022.05
573.71	30740.60
573.87	30342.70
574.03	30279.51
574.20	30471.43
574.36	30176.53
574.52	30288.87
574.68	30118.01
574.84	30658.68
575.01	30689.10
575.17	30202.27
575.33	30389.52
575.49	30785.07
575.65	30029.07
575.82	30396.54
575.98	30391.86
576.14	30328.66
576.30	30302.92
576.46	30443.35
576.62	30192.91
576.79	30752.30
576.95	30609.53
577.11	30993.37
577.27	30930.18
577.43	30771.02
577.59	30895.07
577.75	30724.21
577.92	30008.01
578.08	30661.02
578.24	30529.95
578.40	30452.71
578.56	30532.29
578.72	30366.11
578.88	31166.57
579.04	31185.30
579.21	30920.82
579.37	30548.67
579.53	30595.48
579.69	30476.12
579.85	30487.82
580.01	30661.02
580.17	30469.09
580.33	30520.59
580.49	30595.48
580.65	30890.39
580.82	30614.21
580.98	30775.70
581.14	30986.35
581.30	30761.66
581.46	30597.82
581.62	30354.41
581.78	30504.20
581.94	30553.35
582.10	30848.26
582.26	30742.94
582.42	30487.82
582.58	30803.79
582.74	30735.92
582.90	30719.53
583.06	30539.31
583.22	30567.40
583.38	30415.26
583.54	30665.70
583.70	30431.65
583.86	30352.07
584.02	30342.70
584.18	30785.07
584.34	30740.60
584.50	31028.48
584.66	30670.38
584.82	30677.40
584.98	30876.35
585.14	30682.08
585.30	30712.51
585.46	30314.62
585.62	30913.80
585.78	30864.64
585.94	30457.39
586.10	30810.81
586.26	30663.36
586.42	31157.21
586.58	31030.82
586.74	30677.40
586.90	30665.70
587.06	30817.83
587.22	30794.43
587.38	30768.68
587.54	30876.35
587.70	31260.20
587.86	30675.06
588.02	31182.96
588.18	31138.49
588.34	30890.39
588.49	31047.21
588.65	30972.31
588.81	30822.51
588.97	30948.90
589.13	30536.97
589.29	31016.78
589.45	30782.73
589.61	31058.91
589.77	31372.54
589.93	31297.64
590.08	30969.97
590.24	31695.53
590.40	30984.01
590.56	31166.57
590.72	30756.98
590.88	31068.27
591.04	31065.93
591.20	31271.90
591.35	31639.36
591.51	30974.65
591.67	31079.97
591.83	32135.56
591.99	31232.11
592.15	31143.17
592.31	31021.46
592.46	31136.15
592.62	31166.57
592.78	31129.12
592.94	31040.18
593.10	31271.90
593.26	31028.48
593.41	30953.58
593.57	30859.96
593.73	31452.12
593.89	31339.77
594.05	31178.28
594.20	31019.12
594.36	31157.21
594.52	30974.65
594.68	31115.08
594.84	31365.52
594.99	31754.05
595.15	31428.71
595.31	31051.89
595.47	31548.08
595.62	31442.76
595.78	31412.33
595.94	31122.10
596.10	31573.83
596.25	31658.09
596.41	31159.55
596.57	31112.74
596.73	30892.73
596.88	31140.83
597.04	31522.34
597.20	31440.42
597.36	31618.30
597.51	31761.07
597.67	31491.91
597.83	31351.48
597.99	31393.61
598.14	31318.71
598.30	31634.68
598.46	31152.53
598.61	31480.21
598.77	31346.79
598.93	31409.99
599.09	31225.09
599.24	31828.95
599.40	31578.51
599.56	31529.36
599.71	31290.62
599.87	31321.05
600.03	31054.23
600.18	31178.28
600.34	31236.79
600.50	31063.59
600.65	31599.57
600.81	31761.07
600.97	31557.44
601.12	31236.79
601.28	31419.35
601.44	31391.26
601.59	31711.92
601.75	31538.72
601.91	31456.80
602.06	31725.96
602.22	31412.33
602.37	31119.76
602.53	31374.88
602.69	31260.20
602.84	31608.93
603.00	31489.57
603.16	31756.39
603.31	31449.78
603.47	31292.96
603.62	31674.47
603.78	31386.58
603.94	31136.15
604.09	31246.15
604.25	31487.23
604.40	31012.10
604.56	31519.99
604.71	31814.90
604.87	31386.58
605.03	31737.66
605.18	31515.31
605.34	31576.17
605.49	31147.85
605.65	31409.99
605.80	30827.20
605.96	31700.22
606.12	30644.63
606.27	31463.82
606.43	31154.87
606.58	31695.53
606.74	31356.16
606.89	31480.21
607.05	31496.59
607.20	31957.67
607.36	31232.11
607.51	31503.61
607.67	31075.29
607.82	31225.09
607.98	31161.89
608.13	31281.26
608.29	31456.80
608.44	31260.20
608.60	31707.24
608.75	31531.70
608.91	31042.53
609.06	31056.57
609.22	31307.01
609.37	30661.02
609.53	30859.96
609.68	30785.07
609.84	30850.60
609.99	31409.99
610.15	30998.06
610.30	31026.14
610.46	30890.39
610.61	31098.70
610.76	31421.69
610.92	31180.62
611.07	31005.08
611.23	31044.87
611.38	30859.96
611.54	31047.21
611.69	31033.16
611.84	30967.63
612.00	31166.57
612.15	31164.23
612.31	31173.60
612.46	30953.58
612.62	30981.67
612.77	30948.90
612.92	30953.58
613.08	30799.11
613.23	31197.00
613.39	31075.29
613.54	30656.34
613.69	30497.18
613.85	30927.84
614.00	30806.13
614.15	30874.01
614.31	31023.80
614.46	30871.67
614.62	30747.62
614.77	30445.69
614.92	30857.62
615.08	30773.36
615.23	30785.07
615.38	30782.73
615.54	30508.88
615.69	30569.74
615.84	30918.48
616.00	30735.92
616.15	30487.82
616.30	30932.52
616.46	30450.37
616.61	31030.82
616.76	30745.28
616.92	30796.77
617.07	30836.56
617.22	30347.39
617.37	30611.87
617.53	30497.18
617.68	30103.97
617.83	30209.29
617.99	30244.40
618.14	30756.98
618.29	30445.69
618.45	30270.15
618.60	30661.02
618.75	30548.67
618.90	30398.88
619.06	30651.66
619.21	30663.36
619.36	30448.03
619.51	30188.23
619.67	30125.04
619.82	30080.56
619.97	30401.22
620.12	29961.20
620.28	29949.50
620.43	30066.52
620.58	30167.16
620.73	30302.92
620.89	30644.63
621.04	30586.12
621.19	30288.87
621.34	29862.90
621.49	29944.81
621.65	30237.38
621.80	30036.09
621.95	29947.15
622.10	30265.47
622.25	29933.11
622.41	30003.33
622.56	29804.38
622.71	29673.31
622.86	29998.65
623.01	30078.22
623.16	29717.78
623.32	30050.14
623.47	30015.03
623.62	29977.58
623.77	29738.85
623.92	29708.42
624.07	29759.91
624.23	29661.61
624.38	30335.68
624.53	29584.37
624.68	29680.33
624.83	30136.74
624.98	30036.09
625.13	29881.62
625.29	29979.92
625.44	29507.13
625.59	29476.71
625.74	29582.03
625.89	29579.69
626.04	29830.13
626.19	29509.47
626.34	29329.25
626.49	29436.92
626.65	29553.94
626.80	29926.09
626.95	29680.33
627.10	29355.00
627.25	29511.81
627.40	29177.12
627.55	29219.25
627.70	29460.32
627.85	29317.55
628.00	29392.45
628.15	29252.02
628.30	29006.26
628.45	29308.19
628.60	29022.64
628.76	29254.36
628.91	29366.70
629.06	29172.44
629.21	29263.72
629.36	29240.31
629.51	29237.97
629.66	29102.22
629.81	29139.67
629.96	28922.00
630.11	29195.84
630.26	29289.46
630.41	29003.92
630.56	28985.19
630.71	29399.47
630.86	29036.69
631.01	29163.08
631.16	29083.50
631.31	29029.66
631.46	28851.78
631.61	29024.98
631.76	28896.25
631.91	29081.16
632.06	28856.46
632.21	28886.89
632.36	28905.62
632.51	28194.09
632.66	29205.20
632.81	28659.86
632.96	28624.75
633.10	28938.38
633.25	29076.48
633.40	28938.38
633.55	28814.34
633.70	28467.94
633.85	28364.95
634.00	28596.67
634.15	28336.87
634.30	28584.96
634.45	28357.93
634.60	28596.67
634.75	28350.91
634.90	28514.75
635.05	28589.64
635.19	28624.75
635.34	28779.23
635.49	28404.74
635.64	28643.48
635.79	28631.77
635.94	28587.30
636.09	28683.27
636.24	28268.99
636.39	28343.89
636.53	28231.54
636.68	28393.04
636.83	28554.54
636.98	28594.32
637.13	28449.21
637.28	28907.96
637.43	28353.25
637.57	28622.41
637.72	28147.28
637.87	28048.98
638.02	27906.21
638.17	28336.87
638.32	27859.40
638.46	28084.09
638.61	27985.79
638.76	27625.34
638.91	28046.64
639.06	27812.59
639.20	28247.93
639.35	28170.69
639.50	27985.79
639.65	28224.52
639.80	28114.52
639.94	27828.97
640.09	27674.49
640.24	28002.17
640.39	28259.63
640.54	27868.76
640.68	27536.40
640.83	28116.86
640.98	27866.42
641.13	27557.47
641.27	27969.40
641.42	27681.52
641.57	27587.89
641.72	27861.74
641.86	27843.01
642.01	27992.81
642.16	27892.16
642.31	27232.13
642.45	27931.95
642.60	27709.60
642.75	27475.55
642.90	27215.75
643.04	27697.90
643.19	27417.04
643.34	27620.66
643.48	27573.85
643.63	27700.24
643.78	27452.14
643.93	27332.78
644.07	27515.34
644.22	27510.66
644.37	27325.75
644.51	27379.59
644.66	27363.20
644.81	27412.35
644.95	27087.02
645.10	27473.21
645.25	27513.00
645.39	27372.57
645.54	27402.99
645.69	27541.08
645.83	27175.96
645.98	27227.45
646.13	27058.93
646.27	27681.52
646.42	27288.31
646.57	27456.82
646.71	27157.24
646.86	27625.34
647.00	27009.78
647.15	26707.85
647.30	27264.90
647.44	26876.37
647.59	27161.92
647.74	26782.75
647.88	26984.04
648.03	27068.30
648.17	27215.75
648.32	27227.45
648.47	27405.33
648.61	26838.92
648.76	27049.57
648.90	26731.26
649.05	26731.26
649.20	27047.23
649.34	26941.91
649.49	26408.26
649.63	26579.12
649.78	26654.02
649.92	26611.89
650.07	27047.23
650.21	27021.48
650.36	26670.40
650.51	26614.23
650.65	26724.24
650.80	26850.63
650.94	26569.76
651.09	26553.38
651.23	26822.54
651.38	26513.59
651.52	26616.57
651.67	26745.30
651.81	26363.79
651.96	26511.25
652.10	26312.30
652.25	26529.97
652.39	26588.49
652.54	26490.18
652.68	26787.43
652.83	26649.34
652.97	26845.94
653.12	26335.71
653.26	26111.02
653.41	26305.28
653.55	26487.84
653.70	25921.43
653.84	26614.23
653.99	26412.95
654.13	26324.01
654.27	26314.64
654.42	26349.75
654.56	26199.96
654.71	26188.25
654.85	26176.55
655.00	26476.14
655.14	26319.32
655.29	26434.01
655.43	26068.89
655.57	26047.82
655.72	26096.97
655.86	26258.47
656.01	26494.86
656.15	26127.40
656.30	25951.86
656.44	26162.51
656.58	26029.10
656.73	25776.32
656.87	25713.13
657.01	25949.52
657.16	25986.97
657.30	25965.90
657.45	25998.67
657.59	26136.76
657.73	26073.57
657.88	25862.92
658.02	25795.04
658.16	25809.09
658.31	25891.01
658.45	26001.01
658.60	25642.91
658.74	25558.65
658.88	25806.75
659.03	25607.80
659.17	26029.10
659.31	25579.71
659.46	25556.31
659.60	25177.14
659.74	25671.00
659.89	25734.19
660.03	25663.97
660.17	25238.00
660.32	25542.27
660.46	25441.62
660.60	25160.76
660.74	25032.03
660.89	25247.36
661.03	25144.38
661.17	25408.86
661.32	25322.26
661.46	25352.68
661.60	25401.83
661.74	25298.85
661.89	25312.89
662.03	25170.12
662.17	25284.81
662.31	25158.42
662.46	24774.57
662.60	24830.74
662.74	24779.25
662.88	24790.95
663.03	24716.06
663.17	24779.25
663.31	24694.99
663.45	24547.54
663.60	24622.44
663.74	24362.64
663.88	24617.75
664.02	24720.74
664.17	24783.93
664.31	24149.65
664.45	24144.97
664.59	24425.83
664.73	24524.13
664.88	24662.22
665.02	24013.90
665.16	24063.05
665.30	24435.19
665.44	24231.57
665.59	23894.53
665.73	24306.46
665.87	24093.47
666.01	24299.44
666.15	23894.53
666.29	24051.34
666.44	23997.51
666.58	24170.71
666.72	24210.50
666.86	23962.40
667.00	24037.30
667.14	24027.94
667.28	23807.93
667.43	23676.86
667.57	23714.31
667.71	23990.49
667.85	23962.40
667.99	23590.26
668.13	23470.89
668.27	23735.37
668.41	23239.18
668.56	23627.71
668.70	23433.44
668.84	23367.91
668.98	23665.16
669.12	23625.37
669.26	23314.08
669.40	23342.16
669.54	23311.74
669.68	23517.70
669.82	23220.45
669.96	23248.54
670.10	22623.62
670.25	22953.63
670.39	22918.53
670.53	23129.17
670.67	23056.62
670.81	23119.81
670.95	23147.90
671.09	22750.01
671.23	22691.49
671.37	23110.45
671.51	22785.12
671.65	23056.62
671.79	22867.03
671.93	23019.17
672.07	23028.53
672.21	22452.76
672.35	22455.10
672.49	22501.91
672.63	22457.44
672.77	22317.01
672.91	22604.89
673.05	22373.18
673.19	22127.42
673.33	22483.19
673.47	22544.04
673.61	22464.46
673.75	22167.21
673.89	22202.32
674.03	21905.07
674.17	22452.76
674.31	21895.71
674.45	22148.49
674.59	21879.33
674.73	22010.40
674.87	21926.14
675.01	21619.53
675.15	21827.84
675.29	21715.49
675.43	21961.25
675.56	21500.16
675.70	21551.65
675.84	21455.69
675.98	21130.36
676.12	21748.26
676.26	21710.81
676.40	21720.17
676.54	21387.82
676.68	21088.23
676.82	20961.84
676.96	21366.75
677.10	21095.25
677.23	20720.76
677.37	20746.51
677.51	20987.58
677.65	20807.36
677.79	20695.02
677.93	20554.58
678.07	20957.16
678.21	20463.30
678.34	20381.38
678.48	20585.01
678.62	20524.16
678.76	20297.13
678.90	20243.29
679.04	19999.88
679.18	20121.59
679.31	19983.49
679.45	19894.55
679.59	20121.59
679.73	19700.29
679.87	19644.12
680.00	19770.51
680.14	19651.14
680.28	19880.51
680.42	19655.82
680.56	19543.47
680.70	19707.31
680.83	19510.71
680.97	19463.90
681.11	19480.28
681.25	19377.30
681.39	19351.55
681.52	19227.50
681.66	19201.76
681.80	19108.13
681.94	19257.93
682.07	19105.79
682.21	18747.69
682.35	18698.54
682.49	18787.48
682.62	18656.41
682.76	18726.63
682.90	18558.11
683.04	18541.72
683.17	18733.65
683.31	18618.96
683.45	18712.58
683.59	18200.01
683.72	18270.22
683.86	18244.48
684.00	18274.90
684.13	17980.00
684.27	18394.27
684.41	18092.34
684.55	17987.02
684.68	17682.75
684.82	17825.52
684.96	18026.81
685.09	17507.21
685.23	17666.36
685.37	17568.06
685.50	17579.76
685.64	17888.71
685.78	17734.24
685.91	17692.11
686.05	17589.13
686.19	17240.39
686.32	17603.17
686.46	17305.92
686.60	16936.12
686.73	16987.61
686.87	16844.84
687.01	16868.24
687.14	16844.84
687.28	16816.75
687.42	16643.55
687.55	16664.61
687.69	16535.88
687.82	16718.45
687.96	16535.88
688.10	16596.74
688.23	16409.50
688.37	16547.59
688.50	16566.31
688.64	16470.35
688.78	16334.60
688.91	16203.53
689.05	16280.77
689.18	16102.89
689.32	15878.19
689.46	15772.87
689.59	16020.97
689.73	15974.16
689.86	15805.64
690.00	15765.85
690.13	16065.44
690.27	15798.62
690.41	15728.40
690.54	15548.18
690.68	15293.06
690.81	15442.85
690.95	15695.63
691.08	15506.05
691.22	15679.25
691.35	15379.66
691.49	15515.41
691.62	15435.83
691.76	15335.19
691.89	15220.50
692.03	15012.20
692.16	14696.22
692.30	15012.20
692.43	14960.70
692.57	14785.16
692.70	14658.78
692.84	14497.28
692.97	14647.07
693.11	14665.80
693.24	14314.72
693.38	14398.98
693.51	14569.83
693.65	14714.95
693.78	14223.44
693.92	14377.91
694.05	14523.02
694.19	13977.68
694.32	14143.86
694.45	14061.94
694.59	13951.93
694.72	13944.91
694.86	13614.90
694.99	13497.87
695.13	13664.05
695.26	14008.11
695.39	13561.06
695.53	13799.80
695.66	13633.62
695.80	13596.17
695.93	13528.30
696.07	13603.19
696.20	13720.22
696.33	13252.11
696.47	13341.05
696.60	13116.36
696.73	13319.99
696.87	13296.58
697.00	12910.40
697.14	12842.52
697.27	12966.57
697.40	12477.40
697.54	12844.86
697.67	12571.02
697.80	12709.11
697.94	12489.10
698.07	12573.36
698.21	12624.85
698.34	12479.74
698.47	12519.53
698.61	12500.80
698.74	12578.04
698.87	12505.48
699.01	12182.49
699.14	12348.67
699.27	12285.47
699.40	12304.20
699.54	12123.98
699.67	11939.07
699.80	11836.09
699.94	11995.25
700.07	11962.48
700.20	11644.17
700.34	11686.29
700.47	11672.25
700.60	11482.67
700.73	11639.48
700.87	11503.73
701.00	11424.15
701.13	11583.31
701.26	11475.65
701.40	11548.20
701.53	11365.64
701.66	11356.28
701.79	11150.31
701.93	11187.76
702.06	11105.84
702.19	10995.84
702.32	11023.92
702.46	10860.09
702.59	10822.64
702.72	10867.11
702.85	10918.60
702.99	11005.20
703.12	10883.49
703.25	10876.47
703.38	10754.76
703.51	10703.27
703.65	10541.77
703.78	10560.50
703.91	10368.57
704.04	10607.31
704.17	10560.50
704.31	10490.28
704.44	10160.27
704.57	10326.44
704.70	10026.86
704.83	10186.01
704.96	10122.82
705.10	10132.18
705.23	10078.35
>>>>>End Processed Spectral Data<<<<<
