SpectraSuite Data File
++++++++++++++++++++++++++++++++++++
Date: Fri Oct 18 13:58:05 GMT-05:00 2013
User: bianchi
Dark Spectrum Present: No
Reference Spectrum Present: No
Number of Sampled Component Spectra: 1
Spectrometers: USB2+H05261
Integration Time (usec): 50000 (USB2+H05261)
Spectra Averaged: 1 (USB2+H05261)
Boxcar Smoothing: 0 (USB2+H05261)
Correct for Electrical Dark: No (USB2+H05261)
Strobe/Lamp Enabled: No (USB2+H05261)
Correct for Detector Non-linearity: No (USB2+H05261)
Correct for Stray Light: No (USB2+H05261)
Number of Pixels in Processed Spectrum: 2048
>>>>>Begin Processed Spectral Data<<<<<
365.73	0.00
365.92	0.00
366.12	0.00
366.32	0.00
366.52	0.00
366.72	0.00
366.91	0.00
367.11	0.00
367.31	0.00
367.51	0.00
367.70	0.00
367.90	0.00
368.10	0.00
368.30	0.00
368.49	0.00
368.69	0.00
368.89	0.00
369.09	0.00
369.28	0.00
369.48	0.00
369.68	0.00
369.87	0.00
370.07	0.00
370.27	0.00
370.47	0.00
370.66	7.02
370.86	175.54
371.06	194.26
371.25	159.16
371.45	182.56
371.65	156.82
371.84	131.07
372.04	161.50
372.24	149.79
372.44	187.24
372.63	112.35
372.83	196.60
373.03	184.90
373.22	250.44
373.42	205.97
373.62	290.23
373.81	229.37
374.01	248.10
374.21	175.54
374.40	280.86
374.60	269.16
374.79	292.57
374.99	175.54
375.19	201.29
375.38	290.23
375.58	290.23
375.78	297.25
375.97	304.27
376.17	358.10
376.37	220.01
376.56	222.35
376.76	313.63
376.95	222.35
377.15	205.97
377.35	339.38
377.54	234.05
377.74	297.25
377.93	212.99
378.13	245.76
378.33	294.91
378.52	339.38
378.72	297.25
378.91	285.55
379.11	322.99
379.31	257.46
379.50	400.23
379.70	252.78
379.89	278.52
380.09	297.25
380.28	334.70
380.48	297.25
380.68	294.91
380.87	395.55
381.07	292.57
381.26	266.82
381.46	358.10
381.65	351.08
381.85	337.04
382.04	334.70
382.24	367.46
382.43	395.55
382.63	257.46
382.83	337.04
383.02	327.68
383.22	402.57
383.41	313.63
383.61	334.70
383.80	332.36
384.00	409.59
384.19	435.34
384.39	301.93
384.58	365.12
384.78	358.10
384.97	421.30
385.17	395.55
385.36	330.02
385.56	341.72
385.75	346.40
385.95	421.30
386.14	414.27
386.34	514.92
386.53	411.93
386.72	461.09
386.92	421.30
387.11	379.17
387.31	416.62
387.50	332.36
387.70	428.32
387.89	430.66
388.09	379.17
388.28	503.22
388.48	482.15
388.67	433.00
388.86	435.34
389.06	418.96
389.25	496.19
389.45	475.13
389.64	477.47
389.84	507.90
390.03	496.19
390.22	444.70
390.42	514.92
390.61	447.04
390.81	489.17
391.00	517.26
391.19	505.56
391.39	416.62
391.58	514.92
391.78	540.66
391.97	575.77
392.16	456.40
392.36	514.92
392.55	608.54
392.75	540.66
392.94	587.47
393.13	580.45
393.33	517.26
393.52	636.63
393.71	552.37
393.91	592.16
394.10	540.66
394.29	538.32
394.49	587.47
394.68	634.29
394.88	582.79
395.07	629.60
395.26	660.03
395.46	608.54
395.65	596.84
395.84	692.80
396.04	596.84
396.23	699.82
396.42	657.69
396.62	751.31
396.81	559.39
397.00	697.48
397.19	589.82
397.39	643.65
397.58	688.12
397.77	751.31
397.97	716.20
398.16	763.01
398.35	791.10
398.55	704.50
398.74	662.37
398.93	760.67
399.12	741.95
399.32	716.20
399.51	791.10
399.70	734.93
399.90	711.52
400.09	791.10
400.28	746.63
400.47	774.72
400.67	816.85
400.86	807.48
401.05	763.01
401.24	826.21
401.44	847.27
401.63	760.67
401.82	833.23
402.01	791.10
402.21	786.42
402.40	915.15
402.59	823.87
402.78	849.61
402.97	816.85
403.17	905.79
403.36	940.90
403.55	758.33
403.74	938.55
403.93	1004.09
404.13	905.79
404.32	887.06
404.51	947.92
404.70	889.40
404.89	997.07
405.09	924.51
405.28	901.11
405.47	929.19
405.66	912.81
405.85	950.26
406.05	973.66
406.24	1011.11
406.43	966.64
406.62	1086.01
406.81	1142.18
407.00	1055.58
407.20	999.41
407.39	1027.50
407.58	1137.50
407.77	1139.84
407.96	1067.28
408.15	1153.88
408.34	1123.46
408.54	1191.33
408.73	1107.07
408.92	1064.94
409.11	1097.71
409.30	1163.25
409.49	1132.82
409.68	1179.63
409.87	1081.33
410.07	1245.16
410.26	1324.74
410.45	1181.97
410.64	1151.54
410.83	1179.63
411.02	1270.91
411.21	1240.48
411.40	1219.42
411.59	1306.02
411.78	1270.91
411.98	1226.44
412.17	1280.27
412.36	1303.68
412.55	1394.96
412.74	1306.02
412.93	1394.96
413.12	1390.28
413.31	1458.15
413.50	1495.60
413.69	1446.45
413.88	1467.52
414.07	1455.81
414.26	1362.19
414.45	1439.43
414.64	1432.41
414.83	1568.16
415.02	1614.97
415.22	1631.35
415.41	1633.69
415.60	1511.99
415.79	1614.97
415.98	1617.31
416.17	1619.65
416.36	1671.14
416.55	1586.88
416.74	1685.19
416.93	1717.95
417.12	1636.03
417.31	1687.53
417.50	1755.40
417.69	1813.92
417.88	1830.30
418.07	1741.36
418.26	1734.34
418.45	1778.81
418.64	1888.81
418.83	1839.66
419.02	1865.41
419.21	1811.57
419.39	1928.60
419.58	1820.94
419.77	1921.58
419.96	1900.52
420.15	1867.75
420.34	1877.11
420.53	1895.83
420.72	1952.01
420.91	1935.62
421.10	1966.05
421.29	1984.77
421.48	2022.22
421.67	1966.05
421.86	1884.13
422.05	1980.09
422.24	2015.20
422.43	2069.03
422.61	2026.90
422.80	1998.82
422.99	2001.16
423.18	2040.95
423.37	2015.20
423.56	2195.42
423.75	1977.75
423.94	1973.07
424.13	1944.99
424.32	1937.96
424.50	2045.63
424.69	2085.42
424.88	2120.53
425.07	2038.61
425.26	2052.65
425.45	1912.22
425.64	2015.20
425.83	2071.37
426.01	2108.82
426.20	2111.16
426.39	1977.75
426.58	2129.89
426.77	2120.53
426.96	2132.23
427.15	2099.46
427.33	2143.93
427.52	2157.97
427.71	2225.85
427.90	2216.49
428.09	2186.06
428.28	2193.08
428.46	2246.91
428.65	2181.38
428.84	2155.63
429.03	2293.72
429.22	2420.11
429.40	2331.17
429.59	2305.43
429.78	2338.20
429.97	2115.84
430.16	2157.97
430.34	2284.36
430.53	2366.28
430.72	2448.20
430.91	2251.60
431.10	2267.98
431.28	2352.24
431.47	2368.62
431.66	2509.05
431.85	2438.84
432.03	2532.46
432.22	2506.71
432.41	2354.58
432.60	2469.27
432.79	2457.56
432.97	2567.57
433.16	2555.86
433.35	2415.43
433.54	2523.10
433.72	2541.82
433.91	2483.31
434.10	2637.78
434.28	2626.08
434.47	2565.23
434.66	2661.19
434.85	2530.12
435.03	2740.77
435.22	2581.61
435.41	2700.98
435.59	2642.46
435.78	2773.53
435.97	2754.81
436.16	2850.77
436.34	2792.26
436.53	2752.47
436.72	2766.51
436.90	2747.79
437.09	2803.96
437.28	2553.52
437.46	2696.30
437.65	2799.28
437.84	2794.60
438.02	2810.98
438.21	2923.33
438.40	2764.17
438.58	2869.50
438.77	2909.29
438.96	2923.33
439.14	3091.85
439.33	3066.10
439.52	3054.40
439.70	3005.25
439.89	2986.52
440.08	3220.58
440.26	3052.06
440.45	3222.92
440.63	3136.32
440.82	3141.00
441.01	3145.68
441.19	3321.22
441.38	3293.13
441.57	3194.83
441.75	3304.84
441.94	3279.09
442.12	3349.31
442.31	3522.51
442.50	3410.16
442.68	3421.86
442.87	3311.86
443.05	3370.37
443.24	3403.14
443.43	3545.91
443.61	3440.59
443.80	3508.46
443.98	3407.82
444.17	3201.85
444.35	3440.59
444.54	3564.64
444.73	3578.68
444.91	3393.78
445.10	3585.70
445.28	3541.23
445.47	3449.95
445.65	3419.52
445.84	3581.02
446.02	3616.13
446.21	3543.57
446.39	3499.10
446.58	3648.90
446.77	3566.98
446.95	3576.34
447.14	3517.83
447.32	3616.13
447.51	3541.23
447.69	3414.84
447.88	3459.31
448.06	3529.53
448.25	3541.23
448.43	3555.27
448.62	3616.13
448.80	3676.98
448.99	3569.32
449.17	3693.37
449.36	3674.64
449.54	3620.81
449.73	3824.44
449.91	3824.44
450.10	3817.41
450.28	3754.22
450.46	3728.47
450.65	3899.33
450.83	3751.88
451.02	3831.46
451.20	3927.42
451.39	3864.22
451.57	3936.78
451.76	3852.52
451.94	3911.04
452.13	3974.23
452.31	3850.18
452.49	3953.16
452.68	3845.50
452.86	3985.93
453.05	4039.76
453.23	4187.22
453.42	4121.68
453.60	3943.80
453.78	3964.87
453.97	3892.31
454.15	3906.35
454.34	4004.66
454.52	4074.87
454.70	4156.79
454.89	4124.02
455.07	4285.52
455.26	4196.58
455.44	4121.68
455.62	4091.26
455.81	4100.62
455.99	4234.03
456.17	4187.22
456.36	4308.93
456.54	4290.20
456.73	4372.12
456.91	4292.54
457.09	4447.02
457.28	4517.23
457.46	4444.68
457.64	4432.97
457.83	4315.95
458.01	4346.37
458.19	4491.49
458.38	4514.89
458.56	4606.17
458.74	4526.60
458.93	4470.42
459.11	4526.60
459.29	4456.38
459.48	4741.93
459.66	4655.33
459.84	4755.97
460.03	4650.64
460.21	4505.53
460.39	4484.47
460.57	4542.98
460.76	4671.71
460.94	4734.90
461.12	4585.11
461.31	4807.46
461.49	4802.78
461.67	4671.71
461.85	4711.50
462.04	4671.71
462.22	5081.30
462.40	4966.62
462.59	4887.04
462.77	4681.07
462.95	4908.10
463.13	4924.49
463.32	4882.36
463.50	4912.78
463.68	5025.13
463.86	5050.88
464.05	4781.71
464.23	4990.02
464.41	5027.47
464.59	4964.28
464.78	5046.20
464.96	5123.43
465.14	4854.27
465.32	4959.60
465.50	5266.21
465.69	5231.10
465.87	5053.22
466.05	5027.47
466.23	4933.85
466.41	5165.56
466.60	5296.63
466.78	5125.77
466.96	5097.69
467.14	5076.62
467.32	5231.10
467.51	5352.81
467.69	5231.10
467.87	5266.21
468.05	5303.65
468.23	5289.61
468.41	5296.63
468.60	5163.22
468.78	5366.85
468.96	5193.65
469.14	5284.93
469.32	5420.68
469.50	5270.89
469.69	5406.64
469.87	5565.79
470.05	5666.44
470.23	5551.75
470.41	5476.85
470.59	5668.78
470.77	5509.62
470.95	5612.60
471.14	5682.82
471.32	5537.71
471.50	5750.70
471.68	5795.17
471.86	5647.71
472.04	5706.23
472.22	5851.34
472.40	5703.89
472.58	5851.34
472.77	5841.98
472.95	6005.81
473.13	6164.97
473.31	5863.04
473.49	6010.50
473.67	5825.59
473.85	6064.33
474.03	6176.67
474.21	6022.20
474.39	6209.44
474.57	6274.98
474.75	6282.00
474.93	6384.98
475.12	6345.19
475.30	6258.59
475.48	6387.32
475.66	6459.88
475.84	6406.05
476.02	6499.67
476.20	6511.37
476.38	6555.84
476.56	6878.83
476.74	6593.29
476.92	6817.98
477.10	6689.25
477.28	6803.94
477.46	6724.36
477.64	6764.15
477.82	7037.99
478.00	7047.35
478.18	7190.13
478.36	7129.27
478.54	7323.54
478.72	7283.75
478.90	7243.96
479.08	7265.02
479.26	7482.69
479.44	7391.41
479.62	7414.82
479.80	7541.21
479.98	7646.53
480.16	7538.87
480.34	7623.12
480.52	7763.56
480.70	7763.56
480.88	7777.60
481.06	7946.12
481.24	7831.43
481.41	8042.08
481.59	8021.02
481.77	7999.95
481.95	8236.35
482.13	8388.48
482.31	8222.30
482.49	8435.29
482.67	8184.85
482.85	8564.02
483.03	8531.25
483.21	8746.58
483.39	8641.26
483.57	8709.13
483.74	8772.33
483.92	9074.26
484.10	9114.05
484.28	9128.09
484.46	9343.42
484.64	9507.26
484.82	9247.46
485.00	9228.73
485.18	9430.02
485.35	9650.03
485.53	9654.71
485.71	9462.79
485.89	9722.59
486.07	9708.54
486.25	9806.84
486.43	9767.06
486.61	10040.90
486.78	9923.87
486.96	9968.34
487.14	10443.47
487.32	10345.17
487.50	10473.90
487.68	10321.76
487.85	10380.28
488.03	10541.77
488.21	10782.85
488.39	10590.92
488.57	10815.62
488.75	10923.28
488.92	11070.73
489.10	10960.73
489.28	11318.83
489.46	11367.98
489.64	11405.43
489.81	11295.43
489.99	11447.56
490.17	11772.89
490.35	11866.52
490.53	11698.00
490.70	12147.38
490.88	11681.61
491.06	12259.73
491.24	12032.69
491.41	12128.66
491.59	12191.85
491.77	12086.53
491.95	12388.46
492.13	12358.03
492.30	12531.23
492.48	12678.68
492.66	12376.75
492.84	12772.30
493.01	12681.02
493.19	13160.83
493.37	13270.84
493.54	12886.99
493.72	13301.26
493.90	13142.11
494.08	13406.59
494.25	13638.30
494.43	13542.34
494.61	13621.92
494.79	13605.53
494.96	13640.64
495.14	13668.73
495.32	13893.42
495.49	13617.24
495.67	13851.29
495.85	14169.60
496.02	13886.40
496.20	14118.11
496.38	14422.38
496.55	14324.08
496.73	14785.16
496.91	14675.16
497.09	14588.56
497.26	14647.07
497.44	14588.56
497.62	14771.12
497.79	14792.19
497.97	14829.63
498.14	15363.28
498.32	15176.03
498.50	15115.18
498.67	15463.92
498.85	15421.79
499.03	15199.44
499.20	15501.37
499.38	15346.89
499.56	15484.98
499.73	15840.75
499.91	15728.40
500.08	15768.19
500.26	15594.99
500.44	15882.88
500.61	16018.63
500.79	15824.36
500.97	16102.89
501.14	16140.33
501.32	15948.41
501.49	16437.58
501.67	16250.34
501.84	16273.74
502.02	16133.31
502.20	16346.30
502.37	16367.37
502.55	16636.53
502.72	16800.37
502.90	16524.18
503.07	16451.63
503.25	16695.04
503.43	16421.20
503.60	16585.04
503.78	17144.42
503.95	17034.42
504.13	16819.09
504.30	17305.92
504.48	16924.41
504.65	17259.11
504.83	17434.65
505.01	17305.92
505.18	17329.33
505.36	17474.44
505.53	17521.25
505.71	17231.02
505.88	17755.30
506.06	17294.22
506.23	17544.66
506.41	17827.86
506.58	17591.47
506.76	17921.48
506.93	17830.20
507.11	17743.60
507.28	17535.29
507.46	18036.17
507.63	17951.91
507.81	18466.83
507.98	18178.94
508.16	18169.58
508.33	18232.77
508.50	18462.15
508.68	18338.10
508.85	18590.88
509.03	18366.18
509.20	18665.77
509.38	18890.46
509.55	18965.36
509.73	18815.57
509.90	18855.36
510.08	19030.90
510.25	18574.49
510.42	19140.90
510.60	18911.53
510.77	18977.06
510.95	19194.73
511.12	18977.06
511.30	19094.09
511.47	19330.48
511.64	19520.07
511.82	19606.67
511.99	19644.12
512.17	19410.06
512.34	19454.53
512.51	19758.80
512.69	19487.30
512.86	19623.05
513.04	19864.13
513.21	20177.76
513.38	19831.36
513.56	19985.83
513.73	20002.22
513.90	20219.89
514.08	19889.87
514.25	20315.85
514.43	20449.26
514.60	20458.62
514.77	20299.47
514.95	20264.36
515.12	20130.95
515.29	20484.37
515.47	20201.16
515.64	20549.90
515.81	20737.15
515.99	20692.68
516.16	20739.49
516.33	20870.56
516.51	20922.05
516.68	20716.08
516.85	20889.28
517.03	20870.56
517.20	21123.33
517.37	21053.12
517.54	21010.99
517.72	21282.49
517.89	20980.56
518.06	20896.30
518.24	21144.40
518.41	21181.85
518.58	21301.22
518.75	21113.97
518.93	21308.24
519.10	21509.52
519.27	21813.79
519.45	21474.42
519.62	21759.96
519.79	21689.74
519.96	21715.49
520.14	21591.44
520.31	21584.42
520.48	21806.77
520.65	21844.22
520.83	22099.34
521.00	22129.77
521.17	22115.72
521.34	21965.93
521.52	21935.50
521.69	21923.80
521.86	22506.59
522.03	22354.46
522.20	22284.24
522.38	22258.49
522.55	22593.19
522.72	22377.86
522.89	22504.25
523.07	22677.45
523.24	22649.36
523.41	22548.72
523.58	22534.68
523.75	23014.49
523.92	22796.82
524.10	22815.54
524.27	22766.39
524.44	22801.50
524.61	23332.80
524.78	22944.27
524.96	22937.25
525.13	22808.52
525.30	23037.89
525.47	23084.70
525.64	23058.96
525.81	23278.97
525.98	23103.43
526.16	23669.84
526.33	23403.02
526.50	23515.36
526.67	23278.97
526.84	23571.54
527.01	23590.26
527.18	23536.43
527.36	23400.68
527.53	23723.67
527.70	23983.47
527.87	24041.98
528.04	23789.20
528.21	23597.28
528.38	23873.46
528.55	23527.06
528.72	24049.00
528.89	23859.42
529.07	24194.12
529.24	23915.59
529.41	24212.84
529.58	24079.43
529.75	24079.43
529.92	24297.10
530.09	24528.81
530.26	23983.47
530.43	24416.47
530.60	24159.01
530.77	24430.51
530.94	24582.65
531.11	23983.47
531.28	24250.29
531.46	24367.32
531.63	24449.24
531.80	24699.67
531.97	24783.93
532.14	24896.28
532.31	24599.03
532.48	24786.27
532.65	24744.14
532.82	24636.48
532.99	24912.66
533.16	24601.37
533.33	25076.50
533.50	25144.38
533.67	25062.46
533.84	24865.85
534.01	25137.35
534.18	24964.15
534.35	24964.15
534.52	25160.76
534.69	25362.04
534.86	25418.22
535.03	25116.29
535.20	25308.21
535.37	25343.32
535.54	25439.28
535.71	25254.38
535.88	25139.69
536.05	25310.55
536.22	25516.52
536.38	25792.70
536.55	25703.76
536.72	25507.16
536.89	25507.16
537.06	25905.05
537.23	25961.22
537.40	25607.80
537.57	25551.63
537.74	25912.07
537.91	25813.77
538.08	25963.56
538.25	25734.19
538.42	25954.20
538.59	26223.36
538.75	25986.97
538.92	26235.06
539.09	26125.06
539.26	25982.29
539.43	26040.80
539.60	26162.51
539.77	26183.57
539.94	26480.82
540.11	26246.77
540.28	26059.52
540.44	26118.04
540.61	26073.57
540.78	26045.48
540.95	26223.36
541.12	26324.01
541.29	26424.65
541.46	26384.86
541.62	26094.63
541.79	26665.72
541.96	26188.25
542.13	26019.74
542.30	26778.07
542.47	26717.22
542.63	26878.71
542.80	26785.09
542.97	26902.12
543.14	27178.30
543.31	27014.46
543.48	27096.38
543.64	27175.96
543.81	27133.83
543.98	27016.80
544.15	26998.08
544.32	27253.20
544.48	27620.66
544.65	27218.09
544.82	27395.97
544.99	26749.98
545.16	27227.45
545.32	27534.06
545.49	27676.83
545.66	27489.59
545.83	27590.24
546.00	27468.53
546.16	27688.54
546.33	27707.26
546.50	26906.80
546.67	27475.55
546.83	27328.10
547.00	27426.40
547.17	27571.51
547.34	27681.52
547.50	27791.52
547.67	28009.19
547.84	27564.49
548.00	27573.85
548.17	27882.80
548.34	27655.77
548.51	27915.57
548.67	27969.40
548.84	28180.05
549.01	27623.00
549.18	27725.99
549.34	27941.32
549.51	27515.34
549.68	27936.63
549.84	27931.95
550.01	28556.88
550.18	28285.37
550.34	28400.06
550.51	28240.90
550.68	28493.68
550.84	27896.85
551.01	28135.58
551.18	28144.94
551.34	28222.18
551.51	27917.91
551.68	28044.30
551.84	28575.60
552.01	28299.42
552.18	28481.98
552.34	28350.91
552.51	28929.02
552.68	28327.50
552.84	28641.14
553.01	28601.35
553.18	28678.58
553.34	28772.21
553.51	28568.58
553.67	28327.50
553.84	29167.76
554.01	28865.83
554.17	29036.69
554.34	28849.44
554.51	28606.03
554.67	28470.28
554.84	28964.13
555.00	28507.72
555.17	28655.18
555.33	29048.39
555.50	29247.33
555.67	29055.41
555.83	28964.13
556.00	28868.17
556.16	29127.97
556.33	28996.90
556.50	29099.88
556.66	29106.90
556.83	29172.44
556.99	29308.19
557.16	29226.27
557.32	29450.96
557.49	29593.73
557.65	28795.61
557.82	28692.63
557.98	29242.65
558.15	29123.29
558.32	29289.46
558.48	28936.04
558.65	29635.86
558.81	29310.53
558.98	29677.99
559.14	29670.97
559.31	29146.69
559.47	29284.78
559.64	29483.73
559.80	29582.03
559.97	29675.65
560.13	29479.05
560.30	29642.88
560.46	29818.42
560.63	29408.83
560.79	29549.26
560.96	29532.88
561.12	29373.72
561.29	29067.11
561.45	29546.92
561.61	29755.23
561.78	30162.48
561.94	29970.56
562.11	29715.44
562.27	29469.69
562.44	29792.68
562.60	29553.94
562.77	29497.77
562.93	29680.33
563.10	30022.05
563.26	29549.26
563.42	29876.94
563.59	29958.86
563.75	29708.42
563.92	30115.67
564.08	29933.11
564.24	29874.60
564.41	29500.11
564.57	29890.98
564.74	29708.42
564.90	29970.56
565.07	29888.64
565.23	30015.03
565.39	29811.40
565.56	30174.19
565.72	29429.90
565.88	29907.37
566.05	29818.42
566.21	29844.17
566.38	30052.48
566.54	30190.57
566.70	30333.34
566.87	30501.86
567.03	30258.45
567.19	30405.90
567.36	30419.94
567.52	30150.78
567.68	30295.89
567.85	30265.47
568.01	30216.32
568.17	30017.37
568.34	30326.32
568.50	30560.37
568.66	29937.79
568.83	30473.78
568.99	30335.68
569.15	29834.81
569.32	30218.66
569.48	29912.05
569.64	30017.37
569.81	30438.67
569.97	30588.46
570.13	30586.12
570.30	30218.66
570.46	30431.65
570.62	30487.82
570.78	30492.50
570.95	30478.46
571.11	30480.80
571.27	30101.63
571.43	30162.48
571.60	30171.85
571.76	30101.63
571.92	30628.25
572.09	30052.48
572.25	30529.95
572.41	30323.98
572.57	30506.54
572.74	30431.65
572.90	30419.94
573.06	30300.58
573.22	30113.33
573.38	30696.13
573.55	30548.67
573.71	30712.51
573.87	30815.49
574.03	30635.27
574.20	30604.84
574.36	30419.94
574.52	30569.74
574.68	30089.93
574.84	30398.88
575.01	30125.04
575.17	30937.20
575.33	29928.43
575.49	30539.31
575.65	30396.54
575.82	30565.06
575.98	30394.20
576.14	30284.19
576.30	30405.90
576.46	30476.12
576.62	30497.18
576.79	30515.90
576.95	30155.46
577.11	30338.02
577.27	30595.48
577.43	30686.76
577.59	30490.16
577.75	30553.35
577.92	30244.40
578.08	30080.56
578.24	30202.27
578.40	30370.79
578.56	30728.89
578.72	30843.58
578.88	31330.41
579.04	31087.00
579.21	30630.59
579.37	30450.37
579.53	30632.93
579.69	30513.56
579.85	30773.36
580.01	30850.60
580.17	30256.11
580.33	30455.05
580.49	31061.25
580.65	30534.63
580.82	30799.11
580.98	30820.17
581.14	31007.42
581.30	30920.82
581.46	30349.73
581.62	30838.90
581.78	30600.16
581.94	30522.93
582.10	30616.55
582.26	30574.42
582.42	30698.47
582.58	30665.70
582.74	30890.39
582.90	30874.01
583.06	30663.36
583.22	30668.04
583.38	30747.62
583.54	30527.61
583.70	30733.57
583.86	30820.17
584.02	30707.83
584.18	31068.27
584.34	31299.98
584.50	30520.59
584.66	30728.89
584.82	30855.28
584.98	30609.53
585.14	30581.44
585.30	30541.65
585.46	30780.39
585.62	30668.04
585.78	30579.10
585.94	30370.79
586.10	30909.11
586.26	30689.10
586.42	31136.15
586.58	30967.63
586.74	30916.14
586.90	31154.87
587.06	30679.74
587.22	30918.48
587.38	30859.96
587.54	31339.77
587.70	30831.88
587.86	31358.50
588.02	31044.87
588.18	31220.41
588.34	30866.98
588.49	31094.02
588.65	30878.69
588.81	31122.10
588.97	30803.79
589.13	31063.59
589.29	31049.55
589.45	30883.37
589.61	31316.37
589.77	31164.23
589.93	31360.84
590.08	30946.56
590.24	31030.82
590.40	31400.63
590.56	31316.37
590.72	31232.11
590.88	31002.74
591.04	30902.09
591.20	31299.98
591.35	31337.43
591.51	31653.40
591.67	31225.09
591.83	31519.99
591.99	31288.28
592.15	31005.08
592.31	31424.03
592.46	30958.27
592.62	31091.68
592.78	31330.41
592.94	30951.24
593.10	31246.15
593.26	31332.75
593.41	31384.24
593.57	31082.31
593.73	31094.02
593.89	31625.32
594.05	31407.65
594.20	31304.67
594.36	31166.57
594.52	31136.15
594.68	31391.26
594.84	31267.22
594.99	31512.97
595.15	31332.75
595.31	31625.32
595.47	31442.76
595.62	31438.08
595.78	31201.68
595.94	31267.22
596.10	31622.98
596.25	31395.95
596.41	31328.07
596.57	30974.65
596.73	31236.79
596.88	31421.69
597.04	31505.95
597.20	31253.17
597.36	31807.88
597.51	31608.93
597.67	31489.57
597.83	31356.16
597.99	31096.36
598.14	30822.51
598.30	31248.49
598.46	31344.45
598.61	31620.64
598.77	31779.79
598.93	31243.81
599.09	31475.52
599.24	31604.25
599.40	31566.81
599.56	31393.61
599.71	31180.62
599.87	31618.30
600.03	31161.89
600.18	31154.87
600.34	31402.97
600.50	31522.34
600.65	31459.14
600.81	31976.40
600.97	31721.28
601.12	32044.27
601.28	31552.76
601.44	31599.57
601.59	31639.36
601.75	31409.99
601.91	31796.18
602.06	31819.58
602.22	31353.82
602.37	31339.77
602.53	31379.56
602.69	31716.60
602.84	31248.49
603.00	31866.39
603.16	31683.83
603.31	31510.63
603.47	31550.42
603.62	31337.43
603.78	31442.76
603.94	31412.33
604.09	31295.30
604.25	31782.13
604.40	31524.68
604.56	31529.36
604.71	31882.78
604.87	31314.03
605.03	31630.00
605.18	31323.39
605.34	31524.68
605.49	31370.20
605.65	31515.31
605.80	31110.40
605.96	31344.45
606.12	31138.49
606.27	31417.01
606.43	31164.23
606.58	31480.21
606.74	31484.89
606.89	31641.70
607.05	31878.10
607.20	31674.47
607.36	31276.58
607.51	31339.77
607.67	31182.96
607.82	31124.44
607.98	31042.53
608.13	31438.08
608.29	31257.85
608.44	31012.10
608.60	31180.62
608.75	31702.56
608.91	31524.68
609.06	31257.85
609.22	31257.85
609.37	31070.61
609.53	31194.66
609.68	31292.96
609.84	30710.17
609.99	31122.10
610.15	31054.23
610.30	31353.82
610.46	31599.57
610.61	31101.04
610.76	31110.40
610.92	31065.93
611.07	30852.94
611.23	31098.70
611.38	31419.35
611.54	30665.70
611.69	30560.37
611.84	31103.38
612.00	30836.56
612.15	31012.10
612.31	30986.35
612.46	30778.04
612.62	31000.40
612.77	30848.26
612.92	31187.64
613.08	31182.96
613.23	31147.85
613.39	30642.29
613.54	30782.73
613.69	30827.20
613.85	31035.50
614.00	30866.98
614.15	30979.33
614.31	30532.29
614.46	30831.88
614.62	30904.43
614.77	30874.01
614.92	30960.61
615.08	31211.04
615.23	30745.28
615.38	30693.79
615.54	30382.49
615.69	30267.81
615.84	30572.08
616.00	30916.14
616.15	30892.73
616.30	30998.06
616.46	31061.25
616.61	30958.27
616.76	30806.13
616.92	30417.60
617.07	30586.12
617.22	30232.70
617.37	30384.83
617.53	30387.18
617.68	30747.62
617.83	30452.71
617.99	30319.30
618.14	30487.82
618.29	30356.75
618.45	30384.83
618.60	30567.40
618.75	30675.06
618.90	30459.73
619.06	30637.61
619.21	30340.36
619.36	30274.83
619.51	30415.26
619.67	30057.16
619.82	30122.69
619.97	30202.27
620.12	30024.39
620.28	30429.30
620.43	30492.50
620.58	30501.86
620.73	30293.55
620.89	30632.93
621.04	30663.36
621.19	30256.11
621.34	30305.26
621.49	30092.27
621.65	29905.02
621.80	30164.82
621.95	29996.31
622.10	30356.75
622.25	29940.13
622.41	30059.50
622.56	30129.72
622.71	30321.64
622.86	30206.95
623.01	30316.96
623.16	29738.85
623.32	30061.84
623.47	30057.16
623.62	29647.57
623.77	29890.98
623.92	29771.61
624.07	29567.99
624.23	29848.85
624.38	30066.52
624.53	29876.94
624.68	30043.12
624.83	29619.48
624.98	30082.91
625.13	29902.68
625.29	29844.17
625.44	29469.69
625.59	29696.72
625.74	29673.31
625.89	29357.34
626.04	29385.43
626.19	29771.61
626.34	29626.50
626.49	29715.44
626.65	29544.58
626.80	29715.44
626.95	29825.45
627.10	29483.73
627.25	29710.76
627.40	29371.38
627.55	29556.28
627.70	29333.93
627.85	29448.62
628.00	29099.88
628.15	29663.95
628.30	29163.08
628.45	29570.33
628.60	29165.42
628.76	28964.13
628.91	29280.10
629.06	29340.96
629.21	29413.51
629.36	29221.59
629.51	29387.77
629.66	28886.89
629.81	28950.09
629.96	28968.81
630.11	28842.42
630.26	29153.71
630.41	28982.85
630.56	28950.09
630.71	29490.75
630.86	29015.62
631.01	29050.73
631.16	28811.99
631.31	29186.48
631.46	29109.24
631.61	29156.05
631.76	29163.08
631.91	28898.59
632.06	28931.36
632.21	29179.46
632.36	28884.55
632.51	28531.13
632.66	28957.11
632.81	28538.15
632.96	28858.81
633.10	28673.90
633.25	29113.92
633.40	28870.51
633.55	28751.14
633.70	28877.53
633.85	28374.31
634.00	28723.05
634.15	28833.06
634.30	28666.88
634.45	28517.09
634.60	28517.09
634.75	28533.47
634.90	28505.38
635.05	28886.89
635.19	28477.30
635.34	28772.21
635.49	28484.32
635.64	28173.03
635.79	28797.95
635.94	28542.83
636.09	28554.54
636.24	28701.99
636.39	28119.20
636.53	28552.20
636.68	28231.54
636.83	28009.19
636.98	28278.35
637.13	28156.64
637.28	28650.50
637.43	28503.04
637.57	28315.80
637.72	28341.55
637.87	28243.24
638.02	28531.13
638.17	28369.63
638.32	28180.05
638.46	27929.61
638.61	27929.61
638.76	27934.29
638.91	27805.56
639.06	28147.28
639.20	28205.80
639.35	28517.09
639.50	28268.99
639.65	28552.20
639.80	28285.37
639.94	28158.99
640.09	28123.88
640.24	28219.84
640.39	27817.27
640.54	28006.85
640.68	28063.02
640.83	27676.83
640.98	27761.09
641.13	27585.55
641.27	28030.26
641.42	27646.41
641.57	27866.42
641.72	27889.82
641.86	27414.69
642.01	27529.38
642.16	27496.61
642.31	27489.59
642.45	27845.35
642.60	27356.18
642.75	27468.53
642.90	27480.23
643.04	27260.22
643.19	27023.83
643.34	27644.07
643.48	27594.92
643.63	27606.62
643.78	27351.50
643.93	27716.62
644.07	27711.94
644.22	27452.14
644.37	27328.10
644.51	27758.75
644.66	27337.46
644.81	27630.02
644.95	27154.90
645.10	27112.77
645.25	27166.60
645.39	27674.49
645.54	27194.68
645.69	27470.87
645.83	26927.86
645.98	27428.74
646.13	27583.21
646.27	27545.76
646.42	27311.71
646.57	27513.00
646.71	27044.89
646.86	27288.31
647.00	27213.41
647.15	27047.23
647.30	27154.90
647.44	26951.27
647.59	27133.83
647.74	26808.50
647.88	27119.79
648.03	27349.16
648.17	27356.18
648.32	27220.43
648.47	27058.93
648.61	27337.46
648.76	27571.51
648.90	27058.93
649.05	27173.62
649.20	26855.31
649.34	26724.24
649.49	26808.50
649.63	26724.24
649.78	26813.18
649.92	26878.71
650.07	27145.53
650.21	26466.78
650.36	27124.47
650.51	26960.63
650.65	27140.85
650.80	26913.82
650.94	27084.68
651.09	26635.30
651.23	26551.04
651.38	26302.94
651.52	26677.43
651.67	26782.75
651.81	26654.02
651.96	26288.90
652.10	26696.15
652.25	26639.98
652.39	26967.65
652.54	26265.49
652.68	26789.77
652.83	26937.23
652.97	27033.19
653.12	26356.77
653.26	26448.05
653.41	26710.19
653.55	26204.64
653.70	26059.52
653.84	26394.22
653.99	25970.58
654.13	26293.58
654.27	26534.65
654.42	26214.00
654.56	26347.41
654.71	26078.25
654.85	26312.30
655.00	26602.53
655.14	26448.05
655.29	26068.89
655.43	26380.18
655.57	25923.77
655.72	26143.78
655.86	26216.34
656.01	26291.24
656.15	25879.30
656.30	26340.39
656.44	26258.47
656.58	25865.26
656.73	25813.77
656.87	25979.95
657.01	26089.95
657.16	25895.69
657.30	25935.48
657.45	26122.72
657.59	26005.69
657.73	26185.91
657.88	25891.01
658.02	25607.80
658.16	25710.78
658.31	26150.81
658.45	25841.85
658.60	25415.88
658.74	25926.11
658.88	25816.11
659.03	25701.42
659.17	25764.62
659.31	25795.04
659.46	25745.89
659.60	25809.09
659.74	25425.24
659.89	25191.19
660.03	25338.64
660.17	25488.43
660.32	25757.60
660.46	25331.62
660.60	25401.83
660.74	24905.64
660.89	25214.59
661.03	25050.75
661.17	24989.90
661.32	25254.38
661.46	25427.58
661.60	25186.50
661.74	25537.59
661.89	25385.45
662.03	25476.73
662.17	25207.57
662.31	24917.34
662.46	25027.35
662.60	24870.53
662.74	24954.79
662.88	24765.21
663.03	24624.78
663.17	24812.02
663.31	24493.71
663.45	24622.44
663.60	24711.38
663.74	24474.98
663.88	24575.62
664.02	24875.21
664.17	25235.66
664.31	24737.12
664.45	24643.50
664.59	24620.10
664.73	24568.60
664.88	24606.05
665.02	24159.01
665.16	24505.41
665.30	24037.30
665.44	23999.85
665.59	24348.59
665.73	24102.84
665.87	24060.71
666.01	24217.52
666.15	24563.92
666.29	24243.27
666.44	24526.47
666.58	24023.26
666.72	23903.89
666.86	23934.32
667.00	24058.37
667.14	24168.37
667.28	23957.72
667.43	23927.30
667.57	23798.57
667.71	23625.37
667.85	23679.20
667.99	23625.37
668.13	23824.31
668.27	23843.04
668.41	23583.24
668.56	23627.71
668.70	23407.70
668.84	23634.73
668.98	23702.61
669.12	23388.97
669.26	23522.38
669.40	23695.58
669.54	23817.29
669.68	23531.75
669.82	23353.87
669.96	22941.93
670.10	22904.48
670.25	22862.35
670.39	22885.76
670.53	22904.48
670.67	22541.70
670.81	23168.96
670.95	22834.27
671.09	22988.74
671.23	22773.41
671.37	23133.86
671.51	23211.09
671.65	22979.38
671.79	22740.64
671.93	22862.35
672.07	22705.54
672.21	22888.10
672.35	22401.27
672.49	22197.64
672.63	22609.58
672.77	22438.72
672.91	22382.54
673.05	22326.37
673.19	22333.39
673.33	22321.69
673.47	22129.77
673.61	22401.27
673.75	22394.25
673.89	22230.41
674.03	22317.01
674.17	22267.86
674.31	21972.95
674.45	21947.20
674.59	21694.43
674.73	22073.59
674.87	21649.96
675.01	21558.67
675.15	21661.66
675.29	21888.69
675.43	21788.05
675.56	21448.67
675.70	21692.08
675.84	21680.38
675.98	21252.06
676.12	21476.76
676.26	21879.33
676.40	21352.71
676.54	21296.53
676.68	21364.41
676.82	20854.17
676.96	20917.37
677.10	21128.02
677.23	20814.38
677.37	20575.65
677.51	20952.48
677.65	20910.35
677.79	20762.89
677.93	20519.48
678.07	20599.05
678.21	20622.46
678.34	20390.75
678.48	20482.03
678.62	20437.56
678.76	20327.55
678.90	20215.21
679.04	20482.03
679.18	20116.90
679.31	20006.90
679.45	19885.19
679.59	19950.73
679.73	20135.63
679.87	19910.94
680.00	19730.72
680.14	19814.98
680.28	19559.86
680.42	19829.02
680.56	20023.28
680.70	19700.29
680.83	19412.40
680.97	19381.98
681.11	19470.92
681.25	19520.07
681.39	19176.01
681.52	19412.40
681.66	19372.61
681.80	19019.19
681.94	19005.15
682.07	19087.07
682.21	18815.57
682.35	18558.11
682.49	18581.51
682.62	18523.00
682.76	18728.97
682.90	18796.84
683.04	18789.82
683.17	18600.24
683.31	18848.33
683.45	18927.91
683.59	18483.21
683.72	18651.73
683.86	18291.29
684.00	18382.57
684.13	18235.11
684.27	18286.61
684.41	18061.91
684.55	18022.12
684.68	17830.20
684.82	17715.51
684.96	17874.67
685.09	17687.43
685.23	17818.50
685.37	17748.28
685.50	17879.35
685.64	17561.04
685.78	17802.11
685.91	17942.55
686.05	17598.49
686.19	17385.50
686.32	17406.56
686.46	17408.90
686.60	16828.45
686.73	17224.00
686.87	16973.56
687.01	17013.35
687.14	16982.93
687.28	16779.30
687.42	16718.45
687.55	16463.33
687.69	16648.23
687.82	16795.68
687.96	16657.59
688.10	16559.29
688.23	16603.76
688.37	16381.41
688.50	16437.58
688.64	16456.31
688.78	16666.95
688.91	16049.05
689.05	15920.32
689.18	15999.90
689.32	15452.22
689.46	15852.45
689.59	15861.81
689.73	16116.93
689.86	15637.12
690.00	15733.08
690.13	15817.34
690.27	15721.38
690.41	15819.68
690.54	15421.79
690.68	15679.25
690.81	15482.64
690.95	15697.97
691.08	15627.76
691.22	15281.36
691.35	15508.39
691.49	15211.14
691.62	15293.06
691.76	15124.54
691.89	15253.27
692.03	14885.81
692.16	14824.95
692.30	14820.27
692.43	14864.74
692.57	14820.27
692.70	14857.72
692.84	14434.08
692.97	14581.54
693.11	14572.18
693.24	14396.64
693.38	14438.76
693.51	14497.28
693.65	14546.43
693.78	14391.95
693.92	14333.44
694.05	14441.11
694.19	14146.20
694.32	14164.92
694.45	13991.72
694.59	14036.19
694.72	13942.57
694.86	13724.90
694.99	13813.84
695.13	13638.30
695.26	13752.99
695.39	13755.33
695.53	13694.47
695.66	13605.53
695.80	13703.84
695.93	13561.06
696.07	13448.72
696.20	13884.06
696.33	13289.56
696.47	13111.68
696.60	13247.43
696.73	13228.71
696.87	13373.82
697.00	13099.98
697.14	12901.03
697.27	12793.37
697.40	12772.30
697.54	12784.01
697.67	12606.13
697.80	12636.55
697.94	12514.84
698.07	12437.61
698.21	12561.66
698.34	12407.18
698.47	12456.33
698.61	12549.95
698.74	12507.82
698.87	12540.59
699.01	12458.67
699.14	12163.76
699.27	12133.34
699.40	12159.08
699.54	12142.70
699.67	12020.99
699.80	11817.36
699.94	11934.39
700.07	11623.10
700.20	11791.62
700.34	11599.70
700.47	11566.93
700.60	11634.80
700.73	11728.42
700.87	11541.18
701.00	11660.55
701.13	11571.61
701.26	11468.62
701.40	11744.81
701.53	11431.18
701.66	11510.75
701.79	11419.47
701.93	11398.41
702.06	11119.89
702.19	10850.72
702.32	10946.69
702.46	10860.09
702.59	10691.57
702.72	10682.20
702.85	10637.73
702.99	10691.57
703.12	10754.76
703.25	10525.39
703.38	10789.87
703.51	10546.45
703.65	10455.17
703.78	10462.19
703.91	10686.89
704.04	10509.01
704.17	10473.90
704.31	10438.79
704.44	10391.98
704.57	10296.02
704.70	10310.06
704.83	10061.96
704.96	9954.30
705.10	9823.23
705.23	10024.51
>>>>>End Processed Spectral Data<<<<<
