SpectraSuite Data File
++++++++++++++++++++++++++++++++++++
Date: Fri Oct 18 13:57:55 GMT-05:00 2013
User: bianchi
Dark Spectrum Present: No
Reference Spectrum Present: No
Number of Sampled Component Spectra: 1
Spectrometers: USB2+H05261
Integration Time (usec): 50000 (USB2+H05261)
Spectra Averaged: 1 (USB2+H05261)
Boxcar Smoothing: 0 (USB2+H05261)
Correct for Electrical Dark: No (USB2+H05261)
Strobe/Lamp Enabled: No (USB2+H05261)
Correct for Detector Non-linearity: No (USB2+H05261)
Correct for Stray Light: No (USB2+H05261)
Number of Pixels in Processed Spectrum: 2048
>>>>>Begin Processed Spectral Data<<<<<
365.73	30.43
365.92	30.43
366.12	30.43
366.32	0.00
366.52	0.00
366.72	0.00
366.91	0.00
367.11	0.00
367.31	0.00
367.51	0.00
367.70	0.00
367.90	0.00
368.10	0.00
368.30	0.00
368.49	0.00
368.69	0.00
368.89	0.00
369.09	0.00
369.28	0.00
369.48	0.00
369.68	0.00
369.87	0.00
370.07	0.00
370.27	0.00
370.47	0.00
370.66	79.58
370.86	166.18
371.06	243.42
371.25	154.48
371.45	145.11
371.65	203.63
371.84	177.88
372.04	208.31
372.24	156.82
372.44	220.01
372.63	250.44
372.83	149.79
373.03	175.54
373.22	205.97
373.42	269.16
373.62	198.95
373.81	283.20
374.01	177.88
374.21	301.93
374.40	259.80
374.60	133.41
374.79	257.46
374.99	294.91
375.19	168.52
375.38	308.95
375.58	297.25
375.78	332.36
375.97	311.29
376.17	290.23
376.37	255.12
376.56	301.93
376.76	306.61
376.95	189.58
377.15	322.99
377.35	271.50
377.54	381.51
377.74	257.46
377.93	285.55
378.13	271.50
378.33	322.99
378.52	341.72
378.72	266.82
378.91	360.44
379.11	278.52
379.31	299.59
379.50	283.20
379.70	360.44
379.89	372.15
380.09	313.63
380.28	297.25
380.48	278.52
380.68	315.97
380.87	266.82
381.07	308.95
381.26	447.04
381.46	339.38
381.65	306.61
381.85	390.87
382.04	388.53
382.24	379.17
382.43	425.98
382.63	280.86
382.83	428.32
383.02	306.61
383.22	372.15
383.41	330.02
383.61	372.15
383.80	510.24
384.00	400.23
384.19	344.06
384.39	390.87
384.58	369.80
384.78	348.74
384.97	496.19
385.17	355.76
385.36	292.57
385.56	421.30
385.75	379.17
385.95	376.83
386.14	428.32
386.34	397.89
386.53	449.38
386.72	430.66
386.92	421.30
387.11	503.22
387.31	416.62
387.50	440.02
387.70	393.21
387.89	514.92
388.09	421.30
388.28	472.79
388.48	500.87
388.67	430.66
388.86	486.83
389.06	503.22
389.25	517.26
389.45	489.17
389.64	449.38
389.84	636.63
390.03	458.74
390.22	524.28
390.42	498.53
390.61	517.26
390.81	538.32
391.00	573.43
391.19	580.45
391.39	519.60
391.58	599.18
391.78	472.79
391.97	568.75
392.16	596.84
392.36	603.86
392.55	547.69
392.75	550.03
392.94	538.32
393.13	660.03
393.33	531.30
393.52	594.50
393.71	535.98
393.91	547.69
394.10	617.90
394.29	608.54
394.49	580.45
394.68	685.78
394.88	634.29
395.07	641.31
395.26	688.12
395.46	622.58
395.65	671.73
395.84	671.73
396.04	636.63
396.23	631.94
396.42	650.67
396.62	674.07
396.81	657.69
397.00	674.07
397.19	671.73
397.39	629.60
397.58	727.91
397.77	713.86
397.97	730.25
398.16	657.69
398.35	709.18
398.55	690.46
398.74	683.44
398.93	746.63
399.12	734.93
399.32	763.01
399.51	823.87
399.70	800.46
399.90	805.14
400.09	716.20
400.28	781.74
400.47	784.08
400.67	812.17
400.86	812.17
401.05	826.21
401.24	732.59
401.44	781.74
401.63	819.19
401.82	844.93
402.01	837.91
402.21	926.85
402.40	858.98
402.59	898.77
402.78	870.68
402.97	851.96
403.17	875.36
403.36	891.74
403.55	910.47
403.74	889.40
403.93	912.81
404.13	994.73
404.32	919.83
404.51	861.32
404.70	976.00
404.89	987.71
405.09	961.96
405.28	980.68
405.47	1006.43
405.66	1039.20
405.85	1067.28
406.05	1041.54
406.24	940.90
406.43	1004.09
406.62	980.68
406.81	1107.07
407.00	1116.44
407.20	1022.81
407.39	966.64
407.58	1036.86
407.77	1088.35
407.96	1160.91
408.15	1111.75
408.34	1011.11
408.54	1151.54
408.73	1093.03
408.92	1123.46
409.11	1093.03
409.30	1221.76
409.49	1186.65
409.68	1256.87
409.87	1226.44
410.07	1210.06
410.26	1289.64
410.45	1200.69
410.64	1245.16
410.83	1233.46
411.02	1226.44
411.21	1320.06
411.40	1284.95
411.59	1273.25
411.78	1369.21
411.98	1254.53
412.17	1322.40
412.36	1249.85
412.55	1373.89
412.74	1359.85
412.93	1371.55
413.12	1331.76
413.31	1437.09
413.50	1322.40
413.69	1416.02
413.88	1514.33
414.07	1411.34
414.26	1530.71
414.45	1472.20
414.64	1472.20
414.83	1624.33
415.02	1437.09
415.22	1572.84
415.41	1558.80
415.60	1687.53
415.79	1549.43
415.98	1724.97
416.17	1696.89
416.36	1614.97
416.55	1694.55
416.74	1600.93
416.93	1743.70
417.12	1724.97
417.31	1774.13
417.50	1748.38
417.69	1774.13
417.88	1818.60
418.07	1769.44
418.26	1729.66
418.45	1909.88
418.64	2038.61
418.83	1809.23
419.02	1832.64
419.21	1802.21
419.39	1966.05
419.58	1879.45
419.77	1879.45
419.96	1853.70
420.15	1940.30
420.34	1839.66
420.53	2036.27
420.72	2054.99
420.91	2033.93
421.10	1954.35
421.29	1952.01
421.48	2054.99
421.67	2054.99
421.86	1989.46
422.05	2043.29
422.24	1959.03
422.43	2052.65
422.61	2022.22
422.80	2038.61
422.99	2062.01
423.18	2181.38
423.37	2043.29
423.56	2101.80
423.75	2038.61
423.94	2015.20
424.13	1806.89
424.32	1956.69
424.50	2083.08
424.69	2160.31
424.88	2193.08
425.07	2078.40
425.26	2160.31
425.45	1963.71
425.64	2153.29
425.83	2125.21
426.01	2108.82
426.20	2080.74
426.39	2024.56
426.58	2085.42
426.77	2085.42
426.96	2038.61
427.15	2136.91
427.33	2237.55
427.52	2104.14
427.71	2293.72
427.90	2092.44
428.09	2071.37
428.28	2314.79
428.46	2267.98
428.65	2275.00
428.84	2275.00
429.03	2347.56
429.22	2263.30
429.40	2267.98
429.59	2333.51
429.78	2298.41
429.97	2230.53
430.16	2228.19
430.34	2380.32
430.53	2497.35
430.72	2406.07
430.91	2382.67
431.10	2352.24
431.28	2300.75
431.47	2422.45
431.66	2429.48
431.85	2312.45
432.03	2527.78
432.22	2476.29
432.41	2567.57
432.60	2427.14
432.79	2457.56
432.97	2565.23
433.16	2497.35
433.35	2443.52
433.54	2546.50
433.72	2703.32
433.91	2574.59
434.10	2490.33
434.28	2537.14
434.47	2541.82
434.66	2534.80
434.85	2562.89
435.03	2605.02
435.22	2729.06
435.41	2796.94
435.59	2693.96
435.78	2679.91
435.97	2743.11
436.16	2733.75
436.34	2661.19
436.53	2679.91
436.72	2806.30
436.90	2813.32
437.09	2827.37
437.28	2729.06
437.46	2836.73
437.65	2836.73
437.84	2785.24
438.02	2747.79
438.21	2834.39
438.40	2841.41
438.58	2995.89
438.77	3077.80
438.96	2977.16
439.14	3030.99
439.33	3061.42
439.52	3166.74
439.70	3169.09
439.89	3082.49
440.08	3201.85
440.26	3131.64
440.45	3178.45
440.63	3094.19
440.82	3164.40
441.01	3110.57
441.19	3218.24
441.38	3248.66
441.57	3276.75
441.75	3309.52
441.94	3276.75
442.12	3405.48
442.31	3342.28
442.50	3403.14
442.68	3396.12
442.87	3541.23
443.05	3358.67
443.24	3492.08
443.43	3466.33
443.61	3438.25
443.80	3740.18
443.98	3412.50
444.17	3239.30
444.35	3604.42
444.54	3639.53
444.73	3571.66
444.91	3590.38
445.10	3545.91
445.28	3433.57
445.47	3323.56
445.65	3520.17
445.84	3578.68
446.02	3604.42
446.21	3480.38
446.39	3550.59
446.58	3602.08
446.77	3653.58
446.95	3510.80
447.14	3517.83
447.32	3503.78
447.51	3616.13
447.69	3454.63
447.88	3637.19
448.06	3705.07
448.25	3637.19
448.43	3681.66
448.62	3520.17
448.80	3779.97
448.99	3714.43
449.17	3733.15
449.36	3590.38
449.54	3850.18
449.73	3747.20
449.91	3770.60
450.10	3679.32
450.28	3770.60
450.46	3915.72
450.65	4023.38
450.83	3915.72
451.02	3871.25
451.20	3957.85
451.39	3941.46
451.57	3922.74
451.76	3833.80
451.94	3995.29
452.13	3974.23
452.31	4011.68
452.49	3943.80
452.68	3960.19
452.86	4018.70
453.05	4014.02
453.23	4011.68
453.42	4109.98
453.60	3878.27
453.78	3957.85
453.97	3866.56
454.15	3936.78
454.34	4030.40
454.52	4049.13
454.70	4219.99
454.89	4049.13
455.07	4028.06
455.26	4124.02
455.44	4264.46
455.62	4109.98
455.81	4149.77
455.99	4198.92
456.17	4285.52
456.36	4243.39
456.54	4360.42
456.73	4519.57
456.91	4388.50
457.09	4435.32
457.28	4498.51
457.46	4456.38
457.64	4496.17
457.83	4425.95
458.01	4383.82
458.19	4517.23
458.38	4498.51
458.56	4568.73
458.74	4386.16
458.93	4561.70
459.11	4601.49
459.29	4517.23
459.48	4627.24
459.66	4641.28
459.84	4564.04
460.03	4828.53
460.21	4676.39
460.39	4660.01
460.57	4709.16
460.76	4716.18
460.94	4786.40
461.12	4613.20
461.31	4798.10
461.49	4784.06
461.67	4620.22
461.85	4842.57
462.04	4814.48
462.22	5151.52
462.40	4882.36
462.59	4826.18
462.77	4840.23
462.95	4840.23
463.13	4858.95
463.32	4887.04
463.50	5022.79
463.68	4819.16
463.86	4858.95
464.05	4695.11
464.23	4992.36
464.41	4915.12
464.59	4894.06
464.78	5193.65
464.96	5093.01
465.14	5060.24
465.32	5057.90
465.50	5004.07
465.69	5142.16
465.87	5095.35
466.05	5125.77
466.23	5172.58
466.41	5036.83
466.60	5289.61
466.78	5132.79
466.96	5198.33
467.14	5240.46
467.32	5235.78
467.51	5338.76
467.69	5247.48
467.87	5336.42
468.05	5334.08
468.23	5329.40
468.41	5219.39
468.60	5432.38
468.78	5488.56
468.96	5291.95
469.14	5511.96
469.32	5596.22
469.50	5228.76
469.69	5495.58
469.87	5605.58
470.05	5528.35
470.23	5671.12
470.41	5523.66
470.59	5722.61
470.77	5579.84
470.95	5664.10
471.14	5856.02
471.32	5614.95
471.50	5827.93
471.68	5757.72
471.86	5856.02
472.04	5792.83
472.22	5746.02
472.40	5867.72
472.58	5872.40
472.77	5893.47
472.95	5954.32
473.13	6010.50
473.31	5914.53
473.49	5888.79
473.67	6141.57
473.85	6157.95
474.03	6085.39
474.21	6132.20
474.39	6328.81
474.57	6394.34
474.75	6296.04
474.93	6462.22
475.12	6349.87
475.30	6340.51
475.48	6324.13
475.66	6394.34
475.84	6328.81
476.02	6586.27
476.20	6399.02
476.38	6616.69
476.56	6743.08
476.74	6750.10
476.92	6595.63
477.10	6775.85
477.28	6909.26
477.46	6738.40
477.64	6801.60
477.82	6998.20
478.00	7098.84
478.18	7190.13
478.36	7222.89
478.54	7316.51
478.72	7316.51
478.90	7229.91
479.08	7360.98
479.26	7466.31
479.44	7531.84
479.62	7669.94
479.80	7585.68
479.98	7747.17
480.16	7700.36
480.34	7770.58
480.52	7770.58
480.70	7913.35
480.88	7852.50
481.06	7981.23
481.24	7840.79
481.41	8224.64
481.59	8149.75
481.77	8376.78
481.95	8423.59
482.13	8376.78
482.31	8397.84
482.49	8229.32
482.67	8557.00
482.85	8692.75
483.03	8791.05
483.21	8861.27
483.39	8961.91
483.57	8608.49
483.74	8854.25
483.92	8765.31
484.10	8786.37
484.28	9177.24
484.46	9397.25
484.64	9415.98
484.82	9305.97
485.00	9397.25
485.18	9507.26
485.35	9760.03
485.53	9631.30
485.71	9781.10
485.89	9795.14
486.07	9851.31
486.25	10010.47
486.43	9879.40
486.61	9977.70
486.78	10303.04
486.96	10448.15
487.14	10471.56
487.32	10609.65
487.50	10656.46
487.68	10628.37
487.85	10803.91
488.03	10768.80
488.21	10785.19
488.39	10881.15
488.57	11176.06
488.75	11131.59
488.92	11318.83
489.10	11265.00
489.28	11323.51
489.46	11330.53
489.64	11417.13
489.81	11587.99
489.99	11405.43
490.17	11674.59
490.35	11939.07
490.53	11908.65
490.70	12002.27
490.88	11791.62
491.06	12070.14
491.24	11873.54
491.41	12074.82
491.59	12650.60
491.77	12484.42
491.95	12573.36
492.13	12779.32
492.30	12500.80
492.48	12737.20
492.66	12851.88
492.84	12781.67
493.01	13029.76
493.19	13020.40
493.37	13359.78
493.54	13125.72
493.72	13348.08
493.90	13259.13
494.08	13558.72
494.25	13516.59
494.43	13488.51
494.61	13736.60
494.79	13928.53
494.96	13694.47
495.14	13668.73
495.32	14115.77
495.49	14125.13
495.67	14218.75
495.85	14326.42
496.02	14413.02
496.20	14310.04
496.38	14246.84
496.55	14452.81
496.73	14911.55
496.91	14394.29
497.09	14864.74
497.26	14581.54
497.44	14874.10
497.62	14621.33
497.79	15147.95
497.97	14869.42
498.14	15257.95
498.32	15077.73
498.50	15171.35
498.67	15758.83
498.85	15555.20
499.03	15686.27
499.20	15719.04
499.38	15552.86
499.56	15917.98
499.73	15747.12
499.91	15831.38
500.08	16173.10
500.26	15726.06
500.44	15843.09
500.61	15992.88
500.79	16390.77
500.97	16072.46
501.14	16325.24
501.32	16484.39
501.49	16519.50
501.67	16568.65
501.84	16468.01
502.02	16273.74
502.20	16372.05
502.37	16758.24
502.55	16695.04
502.72	16978.25
502.90	16587.38
503.07	16727.81
503.25	16973.56
503.43	16753.55
503.60	17226.34
503.78	17146.76
503.95	17329.33
504.13	17032.08
504.30	17184.21
504.48	17280.18
504.65	17355.07
504.83	17488.48
505.01	17331.67
505.18	17591.47
505.36	17689.77
505.53	17434.65
505.71	17790.41
505.88	17827.86
506.06	17687.43
506.23	18064.25
506.41	17820.84
506.58	18078.30
506.76	18092.34
506.93	18302.99
507.11	18190.64
507.28	18169.58
507.46	17963.61
507.63	18321.71
507.81	18403.63
507.98	18382.57
508.16	18607.26
508.33	18703.22
508.50	18576.83
508.68	18855.36
508.85	18864.72
509.03	18944.30
509.20	18843.65
509.38	19328.14
509.55	18988.77
509.73	19030.90
509.90	19129.20
510.08	19152.60
510.25	19028.56
510.42	19122.18
510.60	19267.29
510.77	19262.61
510.95	19286.01
511.12	19110.47
511.30	19276.65
511.47	19506.02
511.64	19683.91
511.82	19751.78
511.99	19520.07
512.17	19714.33
512.34	20086.48
512.51	19784.55
512.69	19730.72
512.86	19761.14
513.04	20238.61
513.21	20126.27
513.38	19981.15
513.56	20109.88
513.73	20350.96
513.90	20095.84
514.08	20098.18
514.25	20322.87
514.43	20301.81
514.60	20563.95
514.77	20634.16
514.95	20503.09
515.12	20926.73
515.29	20697.36
515.47	20575.65
515.64	20695.02
515.81	20823.75
515.99	21317.60
516.16	20884.60
516.33	21142.06
516.51	21259.09
516.68	20856.51
516.85	20992.26
517.03	21228.66
517.20	21481.44
517.37	21207.59
517.54	21441.65
517.72	21350.37
517.89	21579.74
518.06	21301.22
518.24	21268.45
518.41	21413.56
518.58	21406.54
518.75	21490.80
518.93	21809.11
519.10	21600.80
519.27	21895.71
519.45	21699.11
519.62	21902.73
519.79	21977.63
519.96	21919.12
520.14	21944.86
520.31	22099.34
520.48	22363.82
520.65	22410.63
520.83	22221.05
521.00	21979.97
521.17	22132.11
521.34	22202.32
521.52	22176.58
521.69	22309.99
521.86	22649.36
522.03	22794.48
522.20	22710.22
522.38	22597.87
522.55	22445.74
522.72	23175.98
522.89	22670.43
523.07	22600.21
523.24	22909.16
523.41	23164.28
523.58	22647.02
523.75	23084.70
523.92	22771.07
524.10	23073.00
524.27	23164.28
524.44	23236.84
524.61	23424.08
524.78	23482.59
524.96	23477.91
525.13	23440.47
525.30	23154.92
525.47	23126.83
525.64	23515.36
525.81	23194.71
525.98	23800.91
526.16	23768.14
526.33	23452.17
526.50	23889.85
526.67	23531.75
526.84	23651.11
527.01	23761.12
527.18	24133.26
527.36	23810.27
527.53	24004.53
527.70	24013.90
527.87	23917.93
528.04	24093.47
528.21	24173.05
528.38	24112.20
528.55	24049.00
528.72	24276.04
528.89	24067.73
529.07	24453.92
529.24	24257.31
529.41	24297.10
529.58	24070.07
529.75	24404.77
529.92	24491.37
530.09	24315.83
530.26	24570.94
530.43	24542.86
530.60	24725.42
530.77	24554.56
530.94	24514.77
531.11	24638.82
531.28	24615.41
531.46	24753.51
531.63	24449.24
531.80	25046.07
531.97	24788.61
532.14	24699.67
532.31	24943.09
532.48	25130.33
532.65	25027.35
532.82	25116.29
532.99	24531.15
533.16	24814.36
533.33	25120.97
533.50	25509.50
533.67	25179.48
533.84	25050.75
534.01	25348.00
534.18	25198.21
534.35	25521.20
534.52	25589.08
534.69	25682.70
534.86	25530.56
535.03	25205.23
535.20	25769.30
535.37	25802.07
535.54	25472.05
535.71	25465.03
535.88	25689.72
536.05	25937.82
536.22	25715.47
536.38	26120.38
536.55	25727.17
536.72	25993.99
536.89	25675.68
537.06	25731.85
537.23	25851.22
537.40	25886.32
537.57	26120.38
537.74	26143.78
537.91	26469.12
538.08	26089.95
538.25	26181.23
538.42	26038.46
538.59	26541.68
538.75	26389.54
538.92	26129.74
539.09	26209.32
539.26	26300.60
539.43	26412.95
539.60	26707.85
539.77	26354.43
539.94	26483.16
540.11	26588.49
540.28	26700.83
540.44	26492.52
540.61	26375.50
540.78	26614.23
540.95	26658.70
541.12	26806.16
541.29	26665.72
541.46	26937.23
541.62	26511.25
541.79	26529.97
541.96	26536.99
542.13	26764.03
542.30	27122.13
542.47	27250.86
542.63	27049.57
542.80	27185.32
542.97	27056.59
543.14	27126.81
543.31	27431.08
543.48	27124.47
543.64	27463.85
543.81	27487.25
543.98	27211.07
544.15	27583.21
544.32	27480.23
544.48	27503.64
544.65	27566.83
544.82	27545.76
544.99	27262.56
545.16	27571.51
545.32	27470.87
545.49	27936.63
545.66	27917.91
545.83	28032.60
546.00	27889.82
546.16	27592.58
546.33	27276.60
546.50	27737.69
546.67	28041.96
546.83	27370.22
547.00	27899.19
547.17	28002.17
547.34	27995.15
547.50	28067.70
547.67	28268.99
547.84	28280.69
548.00	28053.66
548.17	28238.56
548.34	28123.88
548.51	28411.76
548.67	28634.11
548.84	28210.48
549.01	28084.09
549.18	28226.86
549.34	28280.69
549.51	28053.66
549.68	28388.36
549.84	28341.55
550.01	28755.82
550.18	28388.36
550.34	28549.85
550.51	28870.51
550.68	28620.07
550.84	28414.10
551.01	28748.80
551.18	28322.82
551.34	28463.25
551.51	28627.09
551.68	28577.94
551.84	28645.82
552.01	28343.89
552.18	29062.43
552.34	28343.89
552.51	28914.98
552.68	28393.04
552.84	29017.96
553.01	29001.58
553.18	28767.52
553.34	29071.79
553.51	28884.55
553.67	28863.49
553.84	29565.65
554.01	29450.96
554.17	29413.51
554.34	29237.97
554.51	28896.25
554.67	29088.18
554.84	29205.20
555.00	29586.71
555.17	29315.21
555.33	29062.43
555.50	29010.94
555.67	29376.06
555.83	29355.00
556.00	29399.47
556.16	29757.57
556.33	29404.15
556.50	29193.50
556.66	29446.28
556.83	29305.85
556.99	29855.87
557.16	29535.22
557.32	30036.09
557.49	29443.94
557.65	29605.44
557.82	29303.51
557.98	29186.48
558.15	29546.92
558.32	29720.12
558.48	29654.59
558.65	29888.64
558.81	29308.19
558.98	29942.47
559.14	29411.17
559.31	30061.84
559.47	29514.16
559.64	29912.05
559.80	29790.34
559.97	30150.78
560.13	29846.51
560.30	30246.74
560.46	29991.62
560.63	29762.25
560.79	29797.36
560.96	30132.06
561.12	30162.48
561.29	29827.79
561.45	30033.75
561.61	29888.64
561.78	30354.41
561.94	29961.20
562.11	30232.70
562.27	30410.58
562.44	30040.78
562.60	29745.87
562.77	30059.50
562.93	30068.86
563.10	30000.99
563.26	30143.76
563.42	30511.22
563.59	29771.61
563.75	30141.42
563.92	30361.43
564.08	30429.30
564.24	30125.04
564.41	30155.46
564.57	30174.19
564.74	30103.97
564.90	30558.03
565.07	30242.06
565.23	30728.89
565.39	30293.55
565.56	30450.37
565.72	30103.97
565.88	30143.76
566.05	30316.96
566.21	30061.84
566.38	30429.30
566.54	30457.39
566.70	30656.34
566.87	30740.60
567.03	30742.94
567.19	30604.84
567.36	30588.46
567.52	30249.08
567.68	30335.68
567.85	30469.09
568.01	30284.19
568.17	30096.95
568.34	30630.59
568.50	30199.93
568.66	30654.00
568.83	30677.40
568.99	30263.13
569.15	30714.85
569.32	30443.35
569.48	30445.69
569.64	30555.69
569.81	30771.02
569.97	30450.37
570.13	30646.97
570.30	30803.79
570.46	30815.49
570.62	30733.57
570.78	30583.78
570.95	30506.54
571.11	30883.37
571.27	30539.31
571.43	30691.44
571.60	31108.06
571.76	30405.90
571.92	30993.37
572.09	30801.45
572.25	30897.41
572.41	31002.74
572.57	30728.89
572.74	30986.35
572.90	30792.09
573.06	30799.11
573.22	30822.51
573.38	30885.71
573.55	30677.40
573.71	31391.26
573.87	31131.47
574.03	31084.65
574.20	30822.51
574.36	30478.46
574.52	31194.66
574.68	30771.02
574.84	30892.73
575.01	30881.03
575.17	30974.65
575.33	31009.76
575.49	30857.62
575.65	31072.95
575.82	30726.55
575.98	30855.28
576.14	31117.42
576.30	31096.36
576.46	30934.86
576.62	30991.03
576.79	30962.95
576.95	30733.57
577.11	30813.15
577.27	31094.02
577.43	30918.48
577.59	31044.87
577.75	31171.25
577.92	31021.46
578.08	30630.59
578.24	30890.39
578.40	31112.74
578.56	30829.54
578.72	31290.62
578.88	31154.87
579.04	31391.26
579.21	31079.97
579.37	30883.37
579.53	31105.72
579.69	31094.02
579.85	31087.00
580.01	31550.42
580.17	30834.22
580.33	31220.41
580.49	30932.52
580.65	31332.75
580.82	31187.64
580.98	31204.02
581.14	31215.72
581.30	31274.24
581.46	31299.98
581.62	30848.26
581.78	30675.06
581.94	31330.41
582.10	30742.94
582.26	30993.37
582.42	31573.83
582.58	31185.30
582.74	31192.32
582.90	31285.94
583.06	30941.88
583.22	31311.69
583.38	31061.25
583.54	31105.72
583.70	31597.23
583.86	31222.75
584.02	31047.21
584.18	31346.79
584.34	31330.41
584.50	31222.75
584.66	31112.74
584.82	31260.20
584.98	31325.73
585.14	30995.71
585.30	31005.08
585.46	31180.62
585.62	31105.72
585.78	31009.76
585.94	31168.91
586.10	31384.24
586.26	31159.55
586.42	31236.79
586.58	31206.36
586.74	31000.40
586.90	30937.20
587.06	31351.48
587.22	31271.90
587.38	31002.74
587.54	31262.54
587.70	31400.63
587.86	31316.37
588.02	31786.82
588.18	31445.10
588.34	31517.65
588.49	31449.78
588.65	31154.87
588.81	31082.31
588.97	31452.12
589.13	31164.23
589.29	31489.57
589.45	31356.16
589.61	31751.71
589.77	31669.79
589.93	31651.06
590.08	32119.17
590.24	31681.49
590.40	31927.25
590.56	31990.44
590.72	31276.58
590.88	31353.82
591.04	31536.38
591.20	32100.45
591.35	31740.00
591.51	32039.59
591.67	31819.58
591.83	32023.21
591.99	31709.58
592.15	31473.18
592.31	31700.22
592.46	31353.82
592.62	31386.58
592.78	31433.39
592.94	31709.58
593.10	31672.13
593.26	32025.55
593.41	31693.19
593.57	31697.88
593.73	31990.44
593.89	31740.00
594.05	32198.75
594.20	31730.64
594.36	31452.12
594.52	31503.61
594.68	31819.58
594.84	31316.37
594.99	31967.04
595.15	31541.06
595.31	31913.20
595.47	31667.45
595.62	32140.24
595.78	31957.67
595.94	31658.09
596.10	31723.62
596.25	31601.91
596.41	31578.51
596.57	31597.23
596.73	31627.66
596.88	31681.49
597.04	32102.79
597.20	32060.66
597.36	32032.57
597.51	32004.49
597.67	31845.33
597.83	31302.32
597.99	32163.64
598.14	31445.10
598.30	31491.91
598.46	32055.98
598.61	31962.36
598.77	32158.96
598.93	31824.26
599.09	31807.88
599.24	32290.03
599.40	32137.90
599.56	32023.21
599.71	32046.62
599.87	32343.86
600.03	31618.30
600.18	31805.54
600.34	31721.28
600.50	31889.80
600.65	31892.14
600.81	32275.99
600.97	31847.67
601.12	32201.09
601.28	32149.60
601.44	32112.15
601.59	32034.91
601.75	31683.83
601.91	31992.78
602.06	32105.13
602.22	31967.04
602.37	32060.66
602.53	31871.07
602.69	31800.86
602.84	31854.69
603.00	31889.80
603.16	32081.72
603.31	32032.57
603.47	31983.42
603.62	31875.76
603.78	31697.88
603.94	31681.49
604.09	31744.69
604.25	31920.23
604.40	31641.70
604.56	31693.19
604.71	32077.04
604.87	31690.85
605.03	32325.14
605.18	31917.89
605.34	32114.49
605.49	31779.79
605.65	31653.40
605.80	31754.05
605.96	31971.72
606.12	31653.40
606.27	31988.10
606.43	31468.50
606.58	32187.05
606.74	31711.92
606.89	31873.42
607.05	31875.76
607.20	31634.68
607.36	31885.12
607.51	31632.34
607.67	31742.35
607.82	31426.37
607.98	31850.01
608.13	31948.31
608.29	31924.91
608.44	31667.45
608.60	31810.22
608.75	32222.16
608.91	32147.26
609.06	31328.07
609.22	31758.73
609.37	31512.97
609.53	31646.38
609.68	31800.86
609.84	31709.58
609.99	31555.10
610.15	31580.85
610.30	31716.60
610.46	31555.10
610.61	31800.86
610.76	31852.35
610.92	32084.06
611.07	31503.61
611.23	31407.65
611.38	31543.40
611.54	31658.09
611.69	31220.41
611.84	31194.66
612.00	31285.94
612.15	31304.67
612.31	31463.82
612.46	31194.66
612.62	31541.06
612.77	31531.70
612.92	31775.11
613.08	31496.59
613.23	31321.05
613.39	31707.24
613.54	31108.06
613.69	30991.03
613.85	31442.76
614.00	31597.23
614.15	31630.00
614.31	31316.37
614.46	31377.22
614.62	31325.73
614.77	31084.65
614.92	31016.78
615.08	31220.41
615.23	31250.83
615.38	31178.28
615.54	31152.53
615.69	31035.50
615.84	30878.69
616.00	31412.33
616.15	31276.58
616.30	31358.50
616.46	31344.45
616.61	31033.16
616.76	31246.15
616.92	31180.62
617.07	31299.98
617.22	31037.84
617.37	30909.11
617.53	31236.79
617.68	31035.50
617.83	30522.93
617.99	31072.95
618.14	30806.13
618.29	30885.71
618.45	31065.93
618.60	30787.41
618.75	31353.82
618.90	31014.44
619.06	30740.60
619.21	30789.75
619.36	30759.32
619.51	30728.89
619.67	30632.93
619.82	30590.80
619.97	30579.10
620.12	30691.44
620.28	30773.36
620.43	31269.56
620.58	31040.18
620.73	30995.71
620.89	30628.25
621.04	30820.17
621.19	30808.47
621.34	31007.42
621.49	30836.56
621.65	30551.01
621.80	30251.42
621.95	30436.33
622.10	30455.05
622.25	30506.54
622.41	30452.71
622.56	30532.29
622.71	30558.03
622.86	30384.83
623.01	30661.02
623.16	30476.12
623.32	30424.62
623.47	30518.25
623.62	30122.69
623.77	30235.04
623.92	30721.87
624.07	30307.60
624.23	30417.60
624.38	30576.76
624.53	30085.25
624.68	30897.41
624.83	30389.52
624.98	30347.39
625.13	30059.50
625.29	30677.40
625.44	30167.16
625.59	30022.05
625.74	30221.00
625.89	30003.33
626.04	29888.64
626.19	30403.56
626.34	30029.07
626.49	29811.40
626.65	30209.29
626.80	30213.98
626.95	30263.13
627.10	29921.41
627.25	30094.61
627.40	29738.85
627.55	29720.12
627.70	29991.62
627.85	29727.14
628.00	29738.85
628.15	29523.52
628.30	29748.21
628.45	29937.79
628.60	29963.54
628.76	30099.29
628.91	29783.32
629.06	29869.92
629.21	29713.10
629.36	29771.61
629.51	29975.24
629.66	29575.01
629.81	29404.15
629.96	29731.83
630.11	29340.96
630.26	29254.36
630.41	29338.62
630.56	29188.82
630.71	29589.05
630.86	29640.54
631.01	29802.04
631.16	29780.98
631.31	29294.14
631.46	29553.94
631.61	29699.06
631.76	29582.03
631.91	29532.88
632.06	29170.10
632.21	29640.54
632.36	29289.46
632.51	28814.34
632.66	29460.32
632.81	29193.50
632.96	29008.60
633.10	29661.61
633.25	29060.09
633.40	29060.09
633.55	29275.42
633.70	29174.78
633.85	29273.08
634.00	29078.82
634.15	29191.16
634.30	28844.76
634.45	29221.59
634.60	28936.04
634.75	29144.35
634.90	28900.94
635.05	28912.64
635.19	28943.06
635.34	29284.78
635.49	29287.12
635.64	29156.05
635.79	29102.22
635.94	28910.30
636.09	28854.12
636.24	28947.75
636.39	28669.22
636.53	28779.23
636.68	29172.44
636.83	28982.85
636.98	28903.28
637.13	28673.90
637.28	28746.46
637.43	29214.57
637.57	28999.24
637.72	28624.75
637.87	28350.91
638.02	28905.62
638.17	28744.12
638.32	28673.90
638.46	28376.66
638.61	28119.20
638.76	28142.60
638.91	28290.06
639.06	28599.01
639.20	28456.23
639.35	28601.35
639.50	28542.83
639.65	28582.62
639.80	28772.21
639.94	28617.73
640.09	28563.90
640.24	28526.45
640.39	28313.46
640.54	28460.91
640.68	28292.40
640.83	28233.88
640.98	28278.35
641.13	28037.28
641.27	28458.57
641.42	28081.75
641.57	28421.13
641.72	28615.39
641.86	28009.19
642.01	28205.80
642.16	28107.49
642.31	28332.18
642.45	28203.46
642.60	27929.61
642.75	28053.66
642.90	28123.88
643.04	27634.71
643.19	27667.47
643.34	27796.20
643.48	28177.71
643.63	28006.85
643.78	27913.23
643.93	28098.13
644.07	27983.44
644.22	28027.92
644.37	28161.33
644.51	28130.90
644.66	27583.21
644.81	27543.42
644.95	27899.19
645.10	27775.14
645.25	27723.65
645.39	27608.96
645.54	28039.62
645.69	27824.29
645.83	27651.09
645.98	28112.17
646.13	27978.76
646.27	27676.83
646.42	27562.15
646.57	27826.63
646.71	27611.30
646.86	27494.27
647.00	27793.86
647.15	27819.61
647.30	27655.77
647.44	27618.32
647.59	27599.60
647.74	27503.64
647.88	27314.05
648.03	27660.45
648.17	27620.66
648.32	27442.78
648.47	27304.69
648.61	27885.14
648.76	27447.46
648.90	27508.32
649.05	27433.42
649.20	27218.09
649.34	27487.25
649.49	26941.91
649.63	27194.68
649.78	26897.44
649.92	27374.91
650.07	27218.09
650.21	26918.50
650.36	27077.66
650.51	26869.35
650.65	27180.64
650.80	27332.78
650.94	27204.05
651.09	27159.58
651.23	27042.55
651.38	27133.83
651.52	27192.34
651.67	26958.29
651.81	27166.60
651.96	27082.34
652.10	27412.35
652.25	27236.81
652.39	27260.22
652.54	27161.92
652.68	27218.09
652.83	26721.90
652.97	27552.79
653.12	27068.30
653.26	27260.22
653.41	27227.45
653.55	26436.35
653.70	27197.02
653.84	26850.63
653.99	26712.53
654.13	26544.02
654.27	26789.77
654.42	26787.43
654.56	26656.36
654.71	26911.48
654.85	26693.81
655.00	26859.99
655.14	26712.53
655.29	26258.47
655.43	26441.03
655.57	26452.73
655.72	26927.86
655.86	26803.82
656.01	26309.96
656.15	26464.44
656.30	26632.96
656.44	26768.71
656.58	26661.04
656.73	26169.53
656.87	26312.30
657.01	26368.48
657.16	26485.50
657.30	26188.25
657.45	26387.20
657.59	26185.91
657.73	26164.85
657.88	26312.30
658.02	26038.46
658.16	26628.27
658.31	26005.69
658.45	26267.83
658.60	26267.83
658.74	26281.88
658.88	25914.41
659.03	25858.24
659.17	26511.25
659.31	26286.56
659.46	26183.57
659.60	26319.32
659.74	26129.74
659.89	25577.37
660.03	25989.31
660.17	25762.28
660.32	25345.66
660.46	25823.13
660.60	25518.86
660.74	25802.07
660.89	25446.30
661.03	25781.00
661.17	25902.71
661.32	25743.55
661.46	25589.08
661.60	25645.25
661.74	25638.23
661.89	25790.36
662.03	25518.86
662.17	25734.19
662.31	25483.75
662.46	25263.74
662.60	25612.48
662.74	25511.84
662.88	25139.69
663.03	25502.48
663.17	25167.78
663.31	25135.01
663.45	25130.33
663.60	25163.10
663.74	25013.31
663.88	25083.52
664.02	24933.73
664.17	25067.14
664.31	24952.45
664.45	24851.81
664.59	25064.80
664.73	25041.39
664.88	24856.49
665.02	24650.52
665.16	24790.95
665.30	24713.72
665.44	24996.92
665.59	24503.07
665.73	24730.10
665.87	24512.43
666.01	24699.67
666.15	24666.91
666.29	24570.94
666.44	24542.86
666.58	24383.70
666.72	24315.83
666.86	24477.32
667.00	24837.76
667.14	24353.27
667.28	24240.93
667.43	24037.30
667.57	24196.46
667.71	24175.39
667.85	24273.70
667.99	24058.37
668.13	24095.82
668.27	23992.83
668.41	24002.19
668.56	24292.42
668.70	23976.45
668.84	24329.87
668.98	24037.30
669.12	24116.88
669.26	23714.31
669.40	23653.45
669.54	23768.14
669.68	23695.58
669.82	23744.73
669.96	23396.00
670.10	23459.19
670.25	23494.30
670.39	23564.51
670.53	23501.32
670.67	23033.21
670.81	23751.76
670.95	23269.61
671.09	23627.71
671.23	23419.40
671.37	23887.51
671.51	23374.93
671.65	23309.40
671.79	23080.02
671.93	23084.70
672.07	23281.31
672.21	23035.55
672.35	22700.86
672.49	23040.23
672.63	22661.07
672.77	22632.98
672.91	22845.97
673.05	22703.20
673.19	23042.57
673.33	22904.48
673.47	22473.82
673.61	22602.55
673.75	22752.35
673.89	22602.55
674.03	22618.94
674.17	22553.40
674.31	22239.77
674.45	22391.91
674.59	22370.84
674.73	22082.95
674.87	22160.19
675.01	22277.22
675.15	22167.21
675.29	22143.81
675.43	21811.45
675.56	22022.10
675.70	22068.91
675.84	22005.72
675.98	21254.40
676.12	21933.16
676.26	22050.19
676.40	21898.05
676.54	21673.36
676.68	21607.83
676.82	21242.70
676.96	21551.65
677.10	21509.52
677.23	21488.46
677.37	21106.95
677.51	21443.99
677.65	21137.38
677.79	21104.61
677.93	20709.06
678.07	21090.57
678.21	20978.22
678.34	20905.66
678.48	20636.50
678.62	20695.02
678.76	20615.44
678.90	20561.61
679.04	20727.78
679.18	20648.21
679.31	20126.27
679.45	20353.30
679.59	20339.26
679.73	20255.00
679.87	20032.65
680.00	19997.54
680.14	20060.73
680.28	19838.38
680.42	19864.13
680.56	20013.92
680.70	20233.93
680.83	20306.49
680.97	19597.31
681.11	19896.89
681.25	19885.19
681.39	19728.38
681.52	19470.92
681.66	19637.09
681.80	19407.72
681.94	19536.45
682.07	19786.89
682.21	19330.48
682.35	19253.25
682.49	19002.81
682.62	19082.39
682.76	19122.18
682.90	19192.39
683.04	19044.94
683.17	19178.35
683.31	19035.58
683.45	18902.17
683.59	18977.06
683.72	18867.06
683.86	18801.52
684.00	18759.39
684.13	18492.57
684.27	18441.08
684.41	18162.56
684.55	18298.31
684.68	18033.83
684.82	18038.51
684.96	18045.53
685.09	17996.38
685.23	17987.02
685.37	18015.10
685.50	18097.02
685.64	18038.51
685.78	17994.04
685.91	17987.02
686.05	17963.61
686.19	17626.57
686.32	17888.71
686.46	17472.10
686.60	17488.48
686.73	17069.53
686.87	17303.58
687.01	17329.33
687.14	17179.53
687.28	17102.29
687.42	17137.40
687.55	17118.68
687.69	17032.08
687.82	16865.90
687.96	17015.69
688.10	17036.76
688.23	16959.52
688.37	16861.22
688.50	16634.19
688.64	16547.59
688.78	16634.19
688.91	16566.31
689.05	16603.76
689.18	16243.32
689.32	16051.39
689.46	16353.32
689.59	16287.79
689.73	16175.44
689.86	16252.68
690.00	16395.45
690.13	15922.66
690.27	16109.91
690.41	16189.49
690.54	15922.66
690.68	15969.48
690.81	15939.05
690.95	15527.11
691.08	15690.95
691.22	15709.68
691.35	15686.27
691.49	16004.58
691.62	15777.55
691.76	15391.36
691.89	15220.50
692.03	15136.24
692.16	15126.88
692.30	15218.16
692.43	15075.39
692.57	14799.21
692.70	15028.58
692.84	14890.49
692.97	14883.47
693.11	14672.82
693.24	14764.10
693.38	14595.58
693.51	14848.36
693.65	14693.88
693.78	14754.74
693.92	14675.16
694.05	14541.75
694.19	14476.21
694.32	14218.75
694.45	14286.63
694.59	14162.58
694.72	14031.51
694.86	14260.88
694.99	13916.83
695.13	13802.14
695.26	14073.64
695.39	14181.31
695.53	14047.90
695.66	14033.85
695.80	13879.38
695.93	13874.70
696.07	14129.81
696.20	13891.08
696.33	13626.60
696.47	13708.52
696.60	13703.84
696.73	13273.18
696.87	13565.74
697.00	13397.23
697.14	13099.98
697.27	13085.94
697.40	12823.80
697.54	12854.22
697.67	13001.68
697.80	12917.42
697.94	12924.44
698.07	12753.58
698.21	12741.88
698.34	12936.14
698.47	12582.72
698.61	12657.62
698.74	12505.48
698.87	12652.94
699.01	12358.03
699.14	12720.81
699.27	12376.75
699.40	12437.61
699.54	12294.83
699.67	12269.09
699.80	12245.68
699.94	12257.39
700.07	12002.27
700.20	11829.07
700.34	11971.84
700.47	11749.49
700.60	11829.07
700.73	12020.99
700.87	11873.54
701.00	11644.17
701.13	11559.91
701.26	11735.45
701.40	11646.51
701.53	11625.44
701.66	11552.88
701.79	11536.50
701.93	11637.14
702.06	11248.61
702.19	11260.32
702.32	11379.68
702.46	11215.85
702.59	11028.60
702.72	10967.75
702.85	11044.99
702.99	10869.45
703.12	10949.03
703.25	10984.13
703.38	10733.70
703.51	11002.86
703.65	10822.64
703.78	10890.51
703.91	10611.99
704.04	10817.96
704.17	10757.10
704.31	10698.59
704.44	10530.07
704.57	10497.30
704.70	10406.02
704.83	10518.37
704.96	10317.08
705.10	10092.39
705.23	10256.23
>>>>>End Processed Spectral Data<<<<<
