SpectraSuite Data File
++++++++++++++++++++++++++++++++++++
Date: Fri Oct 18 13:58:07 GMT-05:00 2013
User: bianchi
Dark Spectrum Present: No
Reference Spectrum Present: No
Number of Sampled Component Spectra: 1
Spectrometers: USB2+H05261
Integration Time (usec): 50000 (USB2+H05261)
Spectra Averaged: 1 (USB2+H05261)
Boxcar Smoothing: 0 (USB2+H05261)
Correct for Electrical Dark: No (USB2+H05261)
Strobe/Lamp Enabled: No (USB2+H05261)
Correct for Detector Non-linearity: No (USB2+H05261)
Correct for Stray Light: No (USB2+H05261)
Number of Pixels in Processed Spectrum: 2048
>>>>>Begin Processed Spectral Data<<<<<
365.73	0.00
365.92	0.00
366.12	0.00
366.32	0.00
366.52	0.00
366.72	0.00
366.91	0.00
367.11	0.00
367.31	0.00
367.51	0.00
367.70	0.00
367.90	0.00
368.10	0.00
368.30	0.00
368.49	0.00
368.69	0.00
368.89	0.00
369.09	0.00
369.28	0.00
369.48	0.00
369.68	0.00
369.87	0.00
370.07	0.00
370.27	0.00
370.47	0.00
370.66	60.85
370.86	117.03
371.06	105.32
371.25	191.92
371.45	98.30
371.65	135.75
371.84	84.26
372.04	187.24
372.24	245.76
372.44	168.52
372.63	170.86
372.83	238.73
373.03	250.44
373.22	255.12
373.42	187.24
373.62	184.90
373.81	168.52
374.01	227.03
374.21	262.14
374.40	182.56
374.60	187.24
374.79	236.39
374.99	241.08
375.19	325.33
375.38	264.48
375.58	234.05
375.78	208.31
375.97	248.10
376.17	252.78
376.37	236.39
376.56	269.16
376.76	191.92
376.95	273.84
377.15	276.18
377.35	285.55
377.54	280.86
377.74	283.20
377.93	217.67
378.13	248.10
378.33	280.86
378.52	208.31
378.72	273.84
378.91	266.82
379.11	259.80
379.31	301.93
379.50	259.80
379.70	355.76
379.89	280.86
380.09	369.80
380.28	376.83
380.48	320.65
380.68	292.57
380.87	330.02
381.07	327.68
381.26	325.33
381.46	355.76
381.65	276.18
381.85	278.52
382.04	369.80
382.24	320.65
382.43	348.74
382.63	341.72
382.83	306.61
383.02	344.06
383.22	322.99
383.41	351.08
383.61	334.70
383.80	407.25
384.00	418.96
384.19	411.93
384.39	407.25
384.58	390.87
384.78	376.83
384.97	271.50
385.17	355.76
385.36	346.40
385.56	402.57
385.75	369.80
385.95	458.74
386.14	447.04
386.34	397.89
386.53	428.32
386.72	416.62
386.92	383.85
387.11	449.38
387.31	407.25
387.50	367.46
387.70	358.10
387.89	400.23
388.09	479.81
388.28	463.43
388.48	358.10
388.67	400.23
388.86	500.87
389.06	449.38
389.25	484.49
389.45	514.92
389.64	461.09
389.84	456.40
390.03	444.70
390.22	505.56
390.42	449.38
390.61	456.40
390.81	428.32
391.00	456.40
391.19	505.56
391.39	493.85
391.58	550.03
391.78	582.79
391.97	463.43
392.16	486.83
392.36	538.32
392.55	477.47
392.75	533.64
392.94	592.16
393.13	627.26
393.33	531.30
393.52	528.96
393.71	561.73
393.91	613.22
394.10	610.88
394.29	622.58
394.49	634.29
394.68	543.00
394.88	552.37
395.07	589.82
395.26	660.03
395.46	657.69
395.65	695.14
395.84	617.90
396.04	620.24
396.23	678.76
396.42	669.39
396.62	622.58
396.81	690.46
397.00	615.56
397.19	610.88
397.39	657.69
397.58	634.29
397.77	629.60
397.97	655.35
398.16	688.12
398.35	734.93
398.55	688.12
398.74	702.16
398.93	688.12
399.12	704.50
399.32	772.38
399.51	763.01
399.70	692.80
399.90	655.35
400.09	777.06
400.28	816.85
400.47	709.18
400.67	713.86
400.86	753.65
401.05	788.76
401.24	732.59
401.44	739.61
401.63	772.38
401.82	791.10
402.01	823.87
402.21	837.91
402.40	844.93
402.59	784.08
402.78	809.83
402.97	894.08
403.17	770.04
403.36	826.21
403.55	837.91
403.74	919.83
403.93	929.19
404.13	887.06
404.32	814.51
404.51	936.21
404.70	847.27
404.89	856.64
405.09	980.68
405.28	922.17
405.47	945.58
405.66	940.90
405.85	971.32
406.05	976.00
406.24	1048.56
406.43	983.02
406.62	1041.54
406.81	1081.33
407.00	983.02
407.20	959.62
407.39	1011.11
407.58	1048.56
407.77	943.24
407.96	1090.69
408.15	1011.11
408.34	1025.15
408.54	1043.88
408.73	1114.10
408.92	1095.37
409.11	1142.18
409.30	1151.54
409.49	1163.25
409.68	1139.84
409.87	1217.08
410.07	1224.10
410.26	1146.86
410.45	1149.20
410.64	1137.50
410.83	1181.97
411.02	1156.22
411.21	1210.06
411.40	1231.12
411.59	1289.64
411.78	1266.23
411.98	1282.61
412.17	1224.10
412.36	1277.93
412.55	1331.76
412.74	1521.35
412.93	1397.30
413.12	1357.51
413.31	1383.26
413.50	1474.54
413.69	1409.00
413.88	1544.75
414.07	1493.26
414.26	1514.33
414.45	1535.39
414.64	1458.15
414.83	1490.92
415.02	1540.07
415.22	1519.01
415.41	1565.82
415.60	1577.52
415.79	1561.14
415.98	1598.59
416.17	1715.61
416.36	1640.72
416.55	1682.85
416.74	1572.84
416.93	1605.61
417.12	1638.38
417.31	1671.14
417.50	1746.04
417.69	1753.06
417.88	1722.63
418.07	1734.34
418.26	1682.85
418.45	1842.00
418.64	1933.28
418.83	1781.15
419.02	1785.83
419.21	1778.81
419.39	1849.02
419.58	1748.38
419.77	1767.10
419.96	1980.09
420.15	1975.41
420.34	1837.32
420.53	1902.86
420.72	1952.01
420.91	1905.20
421.10	1956.69
421.29	1998.82
421.48	1881.79
421.67	1977.75
421.86	2017.54
422.05	1987.11
422.24	2043.29
422.43	1996.48
422.61	1930.94
422.80	1923.92
422.99	2047.97
423.18	2052.65
423.37	2139.25
423.56	1998.82
423.75	1907.54
423.94	2024.56
424.13	1870.09
424.32	1865.41
424.50	2017.54
424.69	2036.27
424.88	2036.27
425.07	2139.25
425.26	1966.05
425.45	1989.46
425.64	2073.71
425.83	1987.11
426.01	1902.86
426.20	2097.12
426.39	2172.02
426.58	2129.89
426.77	2083.08
426.96	2143.93
427.15	2031.58
427.33	2150.95
427.52	2162.66
427.71	2197.76
427.90	2165.00
428.09	2197.76
428.28	2167.34
428.46	2127.55
428.65	2223.51
428.84	2197.76
429.03	2307.77
429.22	2148.61
429.40	2230.53
429.59	2375.64
429.78	2209.47
429.97	2134.57
430.16	2115.84
430.34	2293.72
430.53	2296.07
430.72	2237.55
430.91	2284.36
431.10	2385.01
431.28	2403.73
431.47	2370.96
431.66	2342.88
431.85	2429.48
432.03	2356.92
432.22	2424.80
432.41	2469.27
432.60	2448.20
432.79	2523.10
432.97	2462.24
433.16	2417.77
433.35	2466.92
433.54	2499.69
433.72	2593.31
433.91	2593.31
434.10	2516.08
434.28	2516.08
434.47	2590.97
434.66	2630.76
434.85	2633.10
435.03	2651.83
435.22	2595.65
435.41	2651.83
435.59	2574.59
435.78	2675.23
435.97	2703.32
436.16	2658.85
436.34	2677.57
436.53	2778.22
436.72	2761.83
436.90	2693.96
437.09	2743.11
437.28	2691.62
437.46	2628.42
437.65	2841.41
437.84	2949.08
438.02	2761.83
438.21	2864.82
438.40	2885.88
438.58	2958.44
438.77	2916.31
438.96	2951.42
439.14	2911.63
439.33	3052.06
439.52	2984.18
439.70	2986.52
439.89	3009.93
440.08	2979.50
440.26	3112.91
440.45	3145.68
440.63	3234.62
440.82	3129.30
441.01	3108.23
441.19	3141.00
441.38	3166.74
441.57	3342.28
441.75	3211.22
441.94	3307.18
442.12	3239.30
442.31	3389.10
442.50	3288.45
442.68	3337.60
442.87	3288.45
443.05	3412.50
443.24	3389.10
443.43	3365.69
443.61	3463.99
443.80	3489.74
443.98	3370.37
444.17	3286.11
444.35	3403.14
444.54	3445.27
444.73	3351.65
444.91	3555.27
445.10	3510.80
445.28	3421.86
445.47	3407.82
445.65	3370.37
445.84	3365.69
446.02	3557.61
446.21	3482.72
446.39	3550.59
446.58	3489.74
446.77	3529.53
446.95	3471.01
447.14	3559.95
447.32	3538.89
447.51	3478.04
447.69	3414.84
447.88	3555.27
448.06	3449.95
448.25	3543.57
448.43	3597.40
448.62	3499.10
448.80	3588.04
448.99	3585.70
449.17	3548.25
449.36	3602.08
449.54	3669.96
449.73	3758.90
449.91	3651.24
450.10	3667.62
450.28	3826.78
450.46	3779.97
450.65	3798.69
450.83	3737.84
451.02	3758.90
451.20	3782.31
451.39	3824.44
451.57	3843.16
451.76	3817.41
451.94	3829.12
452.13	3946.14
452.31	3866.56
452.49	3934.44
452.68	4032.74
452.86	3852.52
453.05	3953.16
453.23	3957.85
453.42	3915.72
453.60	3943.80
453.78	4063.17
453.97	4011.68
454.15	3878.27
454.34	3967.21
454.52	3981.25
454.70	3971.89
454.89	4079.55
455.07	3922.74
455.26	3904.01
455.44	4163.81
455.62	4182.54
455.81	4149.77
455.99	4060.83
456.17	4142.75
456.36	4117.00
456.54	4287.86
456.73	4184.88
456.91	4484.47
457.09	4311.27
457.28	4313.61
457.46	4243.39
457.64	4299.56
457.83	4227.01
458.01	4205.94
458.19	4580.43
458.38	4348.72
458.56	4400.21
458.74	4545.32
458.93	4367.44
459.11	4404.89
459.29	4538.30
459.48	4484.47
459.66	4393.19
459.84	4535.96
460.03	4610.86
460.21	4482.13
460.39	4573.41
460.57	4526.60
460.76	4683.41
460.94	4620.22
461.12	4704.48
461.31	4571.07
461.49	4655.33
461.67	4575.75
461.85	4667.03
462.04	4652.98
462.22	4945.55
462.40	4795.76
462.59	4702.14
462.77	4765.33
462.95	4798.10
463.13	4779.37
463.32	4840.23
463.50	4922.15
463.68	4840.23
463.86	4758.31
464.05	4863.63
464.23	4777.03
464.41	4922.15
464.59	4910.44
464.78	5060.24
464.96	4812.14
465.14	4985.34
465.32	5029.81
465.50	5020.45
465.69	4975.98
465.87	4819.16
466.05	4987.68
466.23	4968.96
466.41	5090.67
466.60	5156.20
466.78	5025.13
466.96	5053.22
467.14	5067.26
467.32	5210.03
467.51	5249.82
467.69	5132.79
467.87	5238.12
468.05	5298.97
468.23	5245.14
468.41	5203.01
468.60	5172.58
468.78	5336.42
468.96	5177.26
469.14	5324.72
469.32	5385.57
469.50	5165.56
469.69	5416.00
469.87	5364.51
470.05	5392.59
470.23	5420.68
470.41	5348.12
470.59	5497.92
470.77	5486.22
470.95	5416.00
471.14	5584.52
471.32	5621.97
471.50	5544.73
471.68	5598.56
471.86	5654.73
472.04	5727.29
472.22	5846.66
472.40	5661.76
472.58	5720.27
472.77	5760.06
472.95	5799.85
473.13	5820.91
473.31	5699.20
473.49	5865.38
473.67	5841.98
473.85	6190.72
474.03	5926.24
474.21	6022.20
474.39	5926.24
474.57	6069.01
474.75	6148.59
474.93	6375.62
475.12	6104.12
475.30	6221.14
475.48	6204.76
475.66	6211.78
475.84	6441.15
476.02	6289.02
476.20	6345.19
476.38	6476.26
476.56	6509.03
476.74	6796.92
476.92	6640.10
477.10	6377.96
477.28	6689.25
477.46	6775.85
477.64	6911.60
477.82	6860.11
478.00	6937.35
478.18	6909.26
478.36	7255.66
478.54	7197.15
478.72	7171.40
478.90	7108.21
479.08	7323.54
479.26	7204.17
479.44	7269.70
479.62	7585.68
479.80	7522.48
479.98	7463.97
480.16	7456.95
480.34	7435.88
480.52	7527.16
480.70	7765.90
480.88	7693.34
481.06	7676.96
481.24	7735.47
481.41	7908.67
481.59	7967.18
481.77	8091.23
481.95	8208.26
482.13	8362.73
482.31	8107.62
482.49	8425.93
482.67	8315.92
482.85	8294.86
483.03	8688.07
483.21	8657.64
483.39	8741.90
483.57	8631.90
483.74	8664.66
483.92	8744.24
484.10	8730.20
484.28	8943.19
484.46	9195.96
484.64	9303.63
484.82	9151.49
485.00	9219.37
485.18	9165.54
485.35	9378.53
485.53	9458.10
485.71	9664.07
485.89	9582.15
486.07	9720.24
486.25	9881.74
486.43	9607.90
486.61	9837.27
486.78	10080.69
486.96	9912.17
487.14	10108.77
487.32	10001.11
487.50	10195.37
487.68	10270.27
487.85	10450.49
488.03	10523.05
488.21	10682.20
488.39	10534.75
488.57	10661.14
488.75	10820.30
488.92	11126.91
489.10	11021.58
489.28	11108.18
489.46	11307.13
489.64	11192.44
489.81	11300.11
489.99	11325.85
490.17	11309.47
490.35	11800.98
490.53	11559.91
490.70	11667.57
490.88	11805.66
491.06	11981.20
491.24	11791.62
491.41	11918.01
491.59	12135.68
491.77	12273.77
491.95	12262.07
492.13	12325.26
492.30	12297.17
492.48	12304.20
492.66	12666.98
492.84	12578.04
493.01	12592.08
493.19	12681.02
493.37	12919.76
493.54	13153.81
493.72	12945.50
493.90	12884.65
494.08	13202.96
494.25	13249.77
494.43	13327.01
494.61	13652.34
494.79	13385.52
494.96	13462.76
495.14	13673.41
495.32	13633.62
495.49	13734.26
495.67	13760.01
495.85	13951.93
496.02	13994.06
496.20	14216.41
496.38	14066.62
496.55	14115.77
496.73	14354.51
496.91	14080.66
497.09	14256.20
497.26	14597.92
497.44	14431.74
497.62	14389.61
497.79	14672.82
497.97	14478.55
498.14	15133.90
498.32	14939.64
498.50	14960.70
498.67	15007.52
498.85	15044.96
499.03	15110.50
499.20	15194.76
499.38	15063.69
499.56	15520.09
499.73	15243.91
499.91	15644.14
500.08	15276.68
500.26	15487.32
500.44	15220.50
500.61	15545.84
500.79	15534.14
500.97	15873.51
501.14	15939.05
501.32	15992.88
501.49	16112.25
501.67	15824.36
501.84	16156.72
502.02	15878.19
502.20	16173.10
502.37	16358.00
502.55	16191.83
502.72	16292.47
502.90	16388.43
503.07	16095.86
503.25	16308.85
503.43	16615.46
503.60	16688.02
503.78	16781.64
503.95	16608.44
504.13	16772.28
504.30	16905.69
504.48	17022.72
504.65	16975.91
504.83	17020.38
505.01	17156.13
505.18	17156.13
505.36	17319.96
505.53	17057.82
505.71	17277.83
505.88	17413.59
506.06	17170.17
506.23	17544.66
506.41	17591.47
506.58	17621.89
506.76	17570.40
506.93	17537.63
507.11	17563.38
507.28	17436.99
507.46	17839.56
507.63	17600.83
507.81	17940.21
507.98	18160.22
508.16	18104.04
508.33	17949.57
508.50	18420.02
508.68	17989.36
508.85	18473.85
509.03	18347.46
509.20	18298.31
509.38	18590.88
509.55	18485.55
509.73	18625.98
509.90	18565.13
510.08	18698.54
510.25	18511.30
510.42	18838.97
510.60	18834.29
510.77	18874.08
510.95	18661.09
511.12	18941.96
511.30	18838.97
511.47	18848.33
511.64	19012.17
511.82	19381.98
511.99	19463.90
512.17	19225.16
512.34	19222.82
512.51	19213.46
512.69	19201.76
512.86	19618.37
513.04	19831.36
513.21	19571.56
513.38	19639.44
513.56	19573.90
513.73	19527.09
513.90	19892.21
514.08	19433.47
514.25	19501.34
514.43	19676.88
514.60	20013.92
514.77	19917.96
514.95	20049.03
515.12	20079.46
515.29	19864.13
515.47	20159.03
515.64	20313.51
515.81	20311.17
515.99	20290.10
516.16	20409.47
516.33	20566.29
516.51	20912.69
516.68	20582.67
516.85	20650.55
517.03	20577.99
517.20	20762.89
517.37	20889.28
517.54	20783.96
517.72	20575.65
517.89	20945.45
518.06	21015.67
518.24	20563.95
518.41	20849.49
518.58	21156.10
518.75	20805.02
518.93	21226.32
519.10	21228.66
519.27	20989.92
519.45	20980.56
519.62	21277.81
519.79	21378.45
519.96	21235.68
520.14	21504.84
520.31	21458.03
520.48	21685.06
520.65	21598.46
520.83	21628.89
521.00	21949.54
521.17	21762.30
521.34	21692.08
521.52	21757.62
521.69	21614.85
521.86	22120.40
522.03	22221.05
522.20	22012.74
522.38	21991.67
522.55	22118.06
522.72	22097.00
522.89	22190.62
523.07	22300.62
523.24	22272.54
523.41	22293.60
523.58	22412.97
523.75	22525.32
523.92	22111.04
524.10	22431.69
524.27	22738.30
524.44	22787.46
524.61	22834.27
524.78	22768.73
524.96	22742.99
525.13	22635.32
525.30	22911.50
525.47	22927.89
525.64	22822.56
525.81	22932.57
525.98	23152.58
526.16	23337.48
526.33	22817.88
526.50	23321.10
526.67	22902.14
526.84	23157.26
527.01	22785.12
527.18	23232.16
527.36	23140.88
527.53	23042.57
527.70	23655.79
527.87	23623.03
528.04	23611.32
528.21	23562.17
528.38	23318.76
528.55	23695.58
528.72	23531.75
528.89	23761.12
529.07	23597.28
529.24	23442.81
529.41	24126.24
529.58	23641.75
529.75	23400.68
529.92	23716.65
530.09	24151.99
530.26	23824.31
530.43	24203.48
530.60	23985.81
530.77	24004.53
530.94	23814.95
531.11	23850.06
531.28	23955.38
531.46	23981.13
531.63	24046.66
531.80	24372.00
531.97	24301.78
532.14	24299.44
532.31	24432.85
532.48	24177.73
532.65	24706.70
532.82	24123.90
532.99	24397.74
533.16	24479.66
533.33	24559.24
533.50	24788.61
533.67	24533.50
533.84	24643.50
534.01	24840.11
534.18	24386.04
534.35	25041.39
534.52	24751.17
534.69	24762.87
534.86	24673.93
535.03	24851.81
535.20	24790.95
535.37	25083.52
535.54	24776.91
535.71	24809.68
535.88	25104.59
536.05	24900.96
536.22	25355.02
536.38	25202.89
536.55	25249.70
536.72	25153.74
536.89	25057.78
537.06	25156.08
537.23	25762.28
537.40	25060.12
537.57	25483.75
537.74	25415.88
537.91	25687.38
538.08	25493.12
538.25	25350.34
538.42	25731.85
538.59	25858.24
538.75	25544.61
538.92	25486.09
539.09	25532.90
539.26	25764.62
539.43	25766.96
539.60	26059.52
539.77	25998.67
539.94	25937.82
540.11	25865.26
540.28	26167.19
540.44	25736.53
540.61	25558.65
540.78	26005.69
540.95	26047.82
541.12	26047.82
541.29	26141.44
541.46	26064.21
541.62	26237.41
541.79	25813.77
541.96	26111.02
542.13	25928.45
542.30	26195.28
542.47	26307.62
542.63	26504.23
542.80	26558.06
542.97	26677.43
543.14	26859.99
543.31	26471.46
543.48	26497.20
543.64	26426.99
543.81	26969.99
543.98	26845.94
544.15	26787.43
544.32	26850.63
544.48	27454.48
544.65	27110.43
544.82	26651.68
544.99	26621.25
545.16	26969.99
545.32	26714.87
545.49	27089.36
545.66	27164.26
545.83	27180.64
546.00	27323.41
546.16	27014.46
546.33	26815.52
546.50	26874.03
546.67	26852.97
546.83	26803.82
547.00	27550.45
547.17	26932.54
547.34	26885.73
547.50	27367.88
547.67	27487.25
547.84	27442.78
548.00	27278.94
548.17	27611.30
548.34	27192.34
548.51	27552.79
548.67	27386.61
548.84	27300.01
549.01	27655.77
549.18	27946.00
549.34	27545.76
549.51	27690.88
549.68	27410.01
549.84	27543.42
550.01	27978.76
550.18	27634.71
550.34	28098.13
550.51	27779.82
550.68	27843.01
550.84	27498.95
551.01	28147.28
551.18	27936.63
551.34	27562.15
551.51	27604.28
551.68	27653.43
551.84	28240.90
552.01	28217.50
552.18	28701.99
552.34	28074.73
552.51	28093.45
552.68	28229.20
552.84	28093.45
553.01	28112.17
553.18	28088.77
553.34	28261.97
553.51	28357.93
553.67	28449.21
553.84	28418.78
554.01	28168.35
554.17	28379.00
554.34	28367.29
554.51	27861.74
554.67	28306.44
554.84	28584.96
555.00	28259.63
555.17	28355.59
555.33	28486.66
555.50	28538.15
555.67	28629.43
555.83	28364.95
556.00	28577.94
556.16	28767.52
556.33	28732.42
556.50	28797.95
556.66	28975.83
556.83	28671.56
556.99	29170.10
557.16	28842.42
557.32	28922.00
557.49	28690.29
557.65	28531.13
557.82	28620.07
557.98	28896.25
558.15	28830.72
558.32	28732.42
558.48	28706.67
558.65	28999.24
558.81	28952.43
558.98	29099.88
559.14	29017.96
559.31	28706.67
559.47	28987.53
559.64	29024.98
559.80	28828.38
559.97	29062.43
560.13	29415.85
560.30	29310.53
560.46	29149.03
560.63	29013.28
560.79	29432.24
560.96	29202.86
561.12	29022.64
561.29	29027.32
561.45	29373.72
561.61	29015.62
561.78	29338.62
561.94	29488.41
562.11	29539.90
562.27	29315.21
562.44	29406.49
562.60	29422.87
562.77	29301.17
562.93	29268.40
563.10	29729.48
563.26	29490.75
563.42	29638.20
563.59	29633.52
563.75	29228.61
563.92	29488.41
564.08	29106.90
564.24	29591.39
564.41	29614.80
564.57	29560.97
564.74	29593.73
564.90	29240.31
565.07	29125.63
565.23	29645.23
565.39	29446.28
565.56	29687.36
565.72	29252.02
565.88	29633.52
566.05	29399.47
566.21	29605.44
566.38	29457.98
566.54	29663.95
566.70	29780.98
566.87	30068.86
567.03	30087.59
567.19	30003.33
567.36	29565.65
567.52	29362.02
567.68	29825.45
567.85	29586.71
568.01	29511.81
568.17	29326.91
568.34	29942.47
568.50	29617.14
568.66	29715.44
568.83	30066.52
568.99	29661.61
569.15	29591.39
569.32	29677.99
569.48	29862.90
569.64	29785.66
569.81	29654.59
569.97	29790.34
570.13	30064.18
570.30	29638.20
570.46	29825.45
570.62	29895.66
570.78	29851.19
570.95	29898.00
571.11	30270.15
571.27	29844.17
571.43	29647.57
571.60	30082.91
571.76	30272.49
571.92	29916.73
572.09	29895.66
572.25	30045.46
572.41	29898.00
572.57	29844.17
572.74	30258.45
572.90	30036.09
573.06	30012.69
573.22	30045.46
573.38	30127.38
573.55	29905.02
573.71	30356.75
573.87	30211.64
574.03	30122.69
574.20	30181.21
574.36	29890.98
574.52	29905.02
574.68	30225.68
574.84	30141.42
575.01	30293.55
575.17	30000.99
575.33	30253.76
575.49	30499.52
575.65	30340.36
575.82	30366.11
575.98	30302.92
576.14	30087.59
576.30	29921.41
576.46	30443.35
576.62	29968.22
576.79	30295.89
576.95	30066.52
577.11	30146.10
577.27	30265.47
577.43	30249.08
577.59	29883.96
577.75	30363.77
577.92	29675.65
578.08	29848.85
578.24	30094.61
578.40	30670.38
578.56	30291.21
578.72	30295.89
578.88	30672.72
579.04	30494.84
579.21	30284.19
579.37	30281.85
579.53	30452.71
579.69	30361.43
579.85	30118.01
580.01	30256.11
580.17	30183.55
580.33	30223.34
580.49	30335.68
580.65	30054.82
580.82	30508.88
580.98	30253.76
581.14	30099.29
581.30	30232.70
581.46	30008.01
581.62	30319.30
581.78	29661.61
581.94	30272.49
582.10	30192.91
582.26	30178.87
582.42	30506.54
582.58	30295.89
582.74	30499.52
582.90	30387.18
583.06	30485.48
583.22	30384.83
583.38	30129.72
583.54	30490.16
583.70	30108.65
583.86	30284.19
584.02	30377.81
584.18	30588.46
584.34	30799.11
584.50	30314.62
584.66	30579.10
584.82	30038.44
584.98	30249.08
585.14	30225.68
585.30	30305.26
585.46	30396.54
585.62	30419.94
585.78	30401.22
585.94	30497.18
586.10	30347.39
586.26	30354.41
586.42	30831.88
586.58	30143.76
586.74	30223.34
586.90	30277.17
587.06	29661.61
587.22	30024.39
587.38	30431.65
587.54	30703.15
587.70	30534.63
587.86	30764.00
588.02	30649.32
588.18	31037.84
588.34	30565.06
588.49	30452.71
588.65	30066.52
588.81	30588.46
588.97	30312.28
589.13	30403.56
589.29	30415.26
589.45	30359.09
589.61	30834.22
589.77	30583.78
589.93	30473.78
590.08	30998.06
590.24	30759.32
590.40	30677.40
590.56	30988.69
590.72	30895.07
590.88	30539.31
591.04	30543.99
591.20	31211.04
591.35	31061.25
591.51	30918.48
591.67	30859.96
591.83	30986.35
591.99	30976.99
592.15	30874.01
592.31	31021.46
592.46	30756.98
592.62	30654.00
592.78	30794.43
592.94	30787.41
593.10	31131.47
593.26	31166.57
593.41	30618.89
593.57	30583.78
593.73	30850.60
593.89	30691.44
594.05	30817.83
594.20	30668.04
594.36	30794.43
594.52	30574.42
594.68	30738.26
594.84	30920.82
594.99	30941.88
595.15	30740.60
595.31	31204.02
595.47	30974.65
595.62	31119.76
595.78	30740.60
595.94	30916.14
596.10	30869.33
596.25	30679.74
596.41	30759.32
596.57	30529.95
596.73	30529.95
596.88	30806.13
597.04	31276.58
597.20	30986.35
597.36	31061.25
597.51	31035.50
597.67	30925.50
597.83	30497.18
597.99	31005.08
598.14	31009.76
598.30	31161.89
598.46	30796.77
598.61	31192.32
598.77	30630.59
598.93	30916.14
599.09	31056.57
599.24	31377.22
599.40	31138.49
599.56	31197.00
599.71	30946.56
599.87	31056.57
600.03	31072.95
600.18	31009.76
600.34	30937.20
600.50	30916.14
600.65	30979.33
600.81	30902.09
600.97	31470.84
601.12	31077.63
601.28	31285.94
601.44	31271.90
601.59	31349.14
601.75	30745.28
601.91	31079.97
602.06	31222.75
602.22	30712.51
602.37	30883.37
602.53	31241.47
602.69	31267.22
602.84	31449.78
603.00	31208.70
603.16	31660.43
603.31	31463.82
603.47	31079.97
603.62	30852.94
603.78	31098.70
603.94	31131.47
604.09	30799.11
604.25	30771.02
604.40	30822.51
604.56	31201.68
604.71	31295.30
604.87	31037.84
605.03	31288.28
605.18	30719.53
605.34	30768.68
605.49	30965.29
605.65	31108.06
605.80	30752.30
605.96	31105.72
606.12	30649.32
606.27	30927.84
606.43	30677.40
606.58	31105.72
606.74	30911.46
606.89	31042.53
607.05	30948.90
607.20	30988.69
607.36	30775.70
607.51	30890.39
607.67	30637.61
607.82	30373.13
607.98	30897.41
608.13	30663.36
608.29	30721.87
608.44	31391.26
608.60	30663.36
608.75	30726.55
608.91	30759.32
609.06	30869.33
609.22	31030.82
609.37	30490.16
609.53	30848.26
609.68	30464.41
609.84	30731.23
609.99	30792.09
610.15	30742.94
610.30	30726.55
610.46	30541.65
610.61	30939.54
610.76	31117.42
610.92	30829.54
611.07	30899.75
611.23	30190.57
611.38	30391.86
611.54	30349.73
611.69	30405.90
611.84	30508.88
612.00	30543.99
612.15	30630.59
612.31	30698.47
612.46	30263.13
612.62	30621.23
612.77	30328.66
612.92	30923.16
613.08	30764.00
613.23	30677.40
613.39	30579.10
613.54	30342.70
613.69	30347.39
613.85	30312.28
614.00	30274.83
614.15	30316.96
614.31	30492.50
614.46	30661.02
614.62	30630.59
614.77	30354.41
614.92	30471.43
615.08	30363.77
615.23	30436.33
615.38	30176.53
615.54	30068.86
615.69	30223.34
615.84	30403.56
616.00	30199.93
616.15	29991.62
616.30	30611.87
616.46	30244.40
616.61	29984.60
616.76	30232.70
616.92	30120.35
617.07	30106.31
617.22	30195.25
617.37	29909.71
617.53	30614.21
617.68	30059.50
617.83	29879.28
617.99	29890.98
618.14	30246.74
618.29	30024.39
618.45	30026.73
618.60	29748.21
618.75	30473.78
618.90	29876.94
619.06	30221.00
619.21	29551.60
619.36	29818.42
619.51	29628.84
619.67	29795.02
619.82	29591.39
619.97	30017.37
620.12	29366.70
620.28	29633.52
620.43	29567.99
620.58	30024.39
620.73	29645.23
620.89	30092.27
621.04	29893.32
621.19	29982.26
621.34	29677.99
621.49	29874.60
621.65	29628.84
621.80	30387.18
621.95	29565.65
622.10	29741.19
622.25	29727.14
622.41	29486.07
622.56	29830.13
622.71	29984.60
622.86	29537.56
623.01	29472.03
623.16	29699.06
623.32	29436.92
623.47	29415.85
623.62	29759.91
623.77	29467.34
623.92	29237.97
624.07	29441.60
624.23	29635.86
624.38	29677.99
624.53	29483.73
624.68	29537.56
624.83	29579.69
624.98	29834.81
625.13	29078.82
625.29	29242.65
625.44	29296.49
625.59	29048.39
625.74	28999.24
625.89	29123.29
626.04	28737.10
626.19	28914.98
626.34	28987.53
626.49	29017.96
626.65	29425.22
626.80	29179.46
626.95	29324.57
627.10	29120.95
627.25	29188.82
627.40	28617.73
627.55	29095.20
627.70	28709.01
627.85	28847.10
628.00	28835.40
628.15	29160.73
628.30	28683.27
628.45	29029.66
628.60	29106.90
628.76	29062.43
628.91	28842.42
629.06	29188.82
629.21	29177.12
629.36	28755.82
629.51	28673.90
629.66	28748.80
629.81	28620.07
629.96	28414.10
630.11	28563.90
630.26	28772.21
630.41	28615.39
630.56	28512.41
630.71	28994.56
630.86	28573.26
631.01	28917.32
631.16	28786.25
631.31	28484.32
631.46	28622.41
631.61	28694.97
631.76	28613.05
631.91	28650.50
632.06	28582.62
632.21	28191.75
632.36	28383.68
632.51	28390.70
632.66	28432.83
632.81	28348.57
632.96	28547.51
633.10	28334.53
633.25	28627.09
633.40	28280.69
633.55	28390.70
633.70	28238.56
633.85	28144.94
634.00	28133.24
634.15	27946.00
634.30	28187.07
634.45	28088.77
634.60	28095.79
634.75	28346.23
634.90	28290.06
635.05	28039.62
635.19	27868.76
635.34	28465.60
635.49	28194.09
635.64	27978.76
635.79	28168.35
635.94	28329.84
636.09	28297.08
636.24	27852.38
636.39	28240.90
636.53	27962.38
636.68	28102.81
636.83	28133.24
636.98	28023.23
637.13	27899.19
637.28	28074.73
637.43	28025.57
637.57	28156.64
637.72	27826.63
637.87	27747.05
638.02	27580.87
638.17	27803.22
638.32	27672.15
638.46	27908.55
638.61	27552.79
638.76	27686.20
638.91	27770.46
639.06	27475.55
639.20	27800.88
639.35	27936.63
639.50	27520.02
639.65	27704.92
639.80	27765.78
639.94	27662.79
640.09	27559.81
640.24	27735.35
640.39	27505.98
640.54	27517.68
640.68	27229.79
640.83	27398.31
640.98	27290.65
641.13	27105.74
641.27	27426.40
641.42	27445.12
641.57	27534.06
641.72	27564.49
641.86	27683.86
642.01	27393.63
642.16	27498.95
642.31	27204.05
642.45	27007.44
642.60	26881.05
642.75	26960.63
642.90	27349.16
643.04	26843.60
643.19	27094.04
643.34	26960.63
643.48	27173.62
643.63	27199.37
643.78	27152.55
643.93	27372.57
644.07	27330.44
644.22	27000.42
644.37	27040.21
644.51	27103.40
644.66	26974.67
644.81	26944.25
644.95	26824.88
645.10	26799.13
645.25	26885.73
645.39	26806.16
645.54	27166.60
645.69	26817.86
645.83	26946.59
645.98	27243.84
646.13	26972.33
646.27	26614.23
646.42	26745.30
646.57	27051.91
646.71	26583.80
646.86	26850.63
647.00	26991.06
647.15	26637.64
647.30	26448.05
647.44	26534.65
647.59	26356.77
647.74	27063.61
647.88	26661.04
648.03	27168.94
648.17	26852.97
648.32	26895.10
648.47	26745.30
648.61	26431.67
648.76	26822.54
648.90	26616.57
649.05	26333.37
649.20	26590.83
649.34	26555.72
649.49	26387.20
649.63	26511.25
649.78	26228.04
649.92	26462.10
650.07	26895.10
650.21	26206.98
650.36	26553.38
650.51	26424.65
650.65	26541.68
650.80	26698.49
650.94	26314.64
651.09	26047.82
651.23	26050.16
651.38	26073.57
651.52	26258.47
651.67	26099.31
651.81	25951.86
651.96	26403.58
652.10	26162.51
652.25	26197.62
652.39	26647.00
652.54	26181.23
652.68	26455.08
652.83	26015.05
652.97	26338.05
653.12	26125.06
653.26	26022.08
653.41	26043.14
653.55	25886.32
653.70	25940.16
653.84	25860.58
653.99	26045.48
654.13	25708.44
654.27	25937.82
654.42	25600.78
654.56	25905.05
654.71	26188.25
654.85	26010.37
655.00	26005.69
655.14	25696.74
655.29	25713.13
655.43	25699.08
655.57	25743.55
655.72	25895.69
655.86	25638.23
656.01	25439.28
656.15	25802.07
656.30	25612.48
656.44	25778.66
656.58	25860.58
656.73	25535.24
656.87	25923.77
657.01	25804.41
657.16	25535.24
657.30	25872.28
657.45	25734.19
657.59	25582.06
657.73	25369.07
657.88	25612.48
658.02	25612.48
658.16	25652.27
658.31	25429.92
658.45	25394.81
658.60	25413.54
658.74	25156.08
658.88	24912.66
659.03	25446.30
659.17	25530.56
659.31	25490.77
659.46	25184.16
659.60	25455.67
659.74	25411.20
659.89	25439.28
660.03	24968.84
660.17	25228.63
660.32	25144.38
660.46	25048.41
660.60	24687.97
660.74	24760.53
660.89	24788.61
661.03	24627.12
661.17	24788.61
661.32	25116.29
661.46	25284.81
661.60	24470.30
661.74	24877.55
661.89	25144.38
662.03	24957.13
662.17	24943.09
662.31	24671.59
662.46	24538.18
662.60	24814.36
662.74	24470.30
662.88	24381.36
663.03	24233.91
663.17	24390.72
663.31	24107.52
663.45	24243.27
663.60	23997.51
663.74	24610.73
663.88	24311.14
664.02	24177.73
664.17	24472.64
664.31	24144.97
664.45	24245.61
664.59	24250.29
664.73	24159.01
664.88	24081.77
665.02	23796.23
665.16	24269.01
665.30	24168.37
665.44	24070.07
665.59	23681.54
665.73	23728.35
665.87	23838.36
666.01	23545.79
666.15	24205.82
666.29	23817.29
666.44	24257.31
666.58	23632.39
666.72	23410.04
666.86	23616.01
667.00	23527.06
667.14	23290.67
667.28	23300.03
667.43	23608.98
667.57	23594.94
667.71	23550.47
667.85	23552.81
667.99	23428.76
668.13	23388.97
668.27	23175.98
668.41	23218.11
668.56	23239.18
668.70	23592.60
668.84	23236.84
668.98	23232.16
669.12	22948.95
669.26	23105.77
669.40	23403.02
669.54	23138.54
669.68	22852.99
669.82	22707.88
669.96	22773.41
670.10	22850.65
670.25	22923.21
670.39	22850.65
670.53	22600.21
670.67	22890.44
670.81	22836.61
670.95	22752.35
671.09	22682.13
671.23	22600.21
671.37	22415.31
671.51	22565.10
671.65	22857.67
671.79	22656.39
671.93	22644.68
672.07	22530.00
672.21	22249.13
672.35	21914.44
672.49	22073.59
672.63	22008.06
672.77	21956.57
672.91	22146.15
673.05	21806.77
673.19	22120.40
673.33	22225.73
673.47	21830.18
673.61	21860.60
673.75	21916.78
673.89	21876.99
674.03	21642.93
674.17	21633.57
674.31	21935.50
674.45	21516.54
674.59	21757.62
674.73	21617.19
674.87	21495.48
675.01	21319.94
675.15	21238.02
675.29	21020.35
675.43	21135.04
675.56	21095.25
675.70	21174.83
675.84	21343.35
675.98	20713.74
676.12	21233.34
676.26	21298.88
676.40	21144.40
676.54	21062.48
676.68	20891.62
676.82	20575.65
676.96	20826.09
677.10	20800.34
677.23	20400.11
677.37	20524.16
677.51	20514.80
677.65	20526.50
677.79	20390.75
677.93	20407.13
678.07	20247.97
678.21	20219.89
678.34	20219.89
678.48	20177.76
678.62	19894.55
678.76	20327.55
678.90	19812.63
679.04	20114.56
679.18	19800.93
679.31	19356.23
679.45	19702.63
679.59	19606.67
679.73	19424.11
679.87	19295.38
680.00	19194.73
680.14	19571.56
680.28	19330.48
680.42	19419.42
680.56	19321.12
680.70	19304.74
680.83	19056.64
680.97	19506.02
681.11	19194.73
681.25	19061.32
681.39	18941.96
681.52	18913.87
681.66	18998.13
681.80	18796.84
681.94	18967.70
682.07	18869.40
682.21	18284.26
682.35	18579.17
682.49	18735.99
682.62	18242.14
682.76	18349.80
682.90	18401.29
683.04	18654.07
683.17	18375.55
683.31	18354.48
683.45	18408.31
683.59	18335.76
683.72	18003.40
683.86	18171.92
684.00	17968.29
684.13	17881.69
684.27	17907.44
684.41	17921.48
684.55	17647.64
684.68	17453.37
684.82	17640.62
684.96	17451.03
685.09	17504.87
685.23	17483.80
685.37	17298.90
685.50	17436.99
685.64	17542.32
685.78	17357.41
685.91	17252.09
686.05	17385.50
686.19	17336.35
686.32	17434.65
686.46	16893.99
686.60	16940.80
686.73	16809.73
686.87	16624.83
687.01	16936.12
687.14	16727.81
687.28	16489.07
687.42	16783.98
687.55	16526.52
687.69	16238.64
687.82	16521.84
687.96	16381.41
688.10	16315.87
688.23	16589.72
688.37	16079.48
688.50	16231.62
688.64	16102.89
688.78	16145.02
688.91	16088.84
689.05	15838.41
689.18	15922.66
689.32	15749.46
689.46	15332.85
689.59	15686.27
689.73	15658.18
689.86	15494.35
690.00	15559.88
690.13	15583.29
690.27	15161.99
690.41	15627.76
690.54	15419.45
690.68	15529.45
690.81	15379.66
690.95	15276.68
691.08	15260.29
691.22	15131.56
691.35	15002.83
691.49	15161.99
691.62	15049.64
691.76	14841.34
691.89	14874.10
692.03	14773.46
692.16	14668.14
692.30	14530.05
692.43	14558.13
692.57	14363.87
692.70	14431.74
692.84	14581.54
692.97	14321.74
693.11	14300.67
693.24	14303.01
693.38	14167.26
693.51	14319.40
693.65	14478.55
693.78	14286.63
693.92	14160.24
694.05	14040.87
694.19	13987.04
694.32	13771.71
694.45	13811.50
694.59	13652.34
694.72	13715.54
694.86	13621.92
694.99	13235.73
695.13	13563.40
695.26	13493.19
695.39	13401.91
695.53	13441.70
695.66	13507.23
695.80	13544.68
695.93	13429.99
696.07	13050.83
696.20	13298.92
696.33	13364.46
696.47	13231.05
696.60	13022.74
696.73	12943.16
696.87	12730.17
697.00	12975.93
697.14	12751.24
697.27	12624.85
697.40	12638.89
697.54	12311.22
697.67	12877.63
697.80	12552.29
697.94	12472.71
698.07	12360.37
698.21	12198.87
698.34	12449.31
698.47	12257.39
698.61	12358.03
698.74	12126.32
698.87	12205.89
699.01	12201.21
699.14	12049.08
699.27	12009.29
699.40	12114.61
699.54	12065.46
699.67	11782.26
699.80	11864.18
699.94	11721.40
700.07	11702.68
700.20	11700.34
700.34	11676.93
700.47	11613.74
700.60	11520.12
700.73	11599.70
700.87	11534.16
701.00	11314.15
701.13	11286.06
701.26	11232.23
701.40	11506.07
701.53	11089.46
701.66	11192.44
701.79	11173.72
701.93	10864.77
702.06	10967.75
702.19	11000.52
702.32	10850.72
702.46	10654.12
702.59	10677.52
702.72	10558.16
702.85	10546.45
702.99	10572.20
703.12	10654.12
703.25	10527.73
703.38	10307.72
703.51	10448.15
703.65	10581.56
703.78	10464.54
703.91	10232.82
704.04	10434.11
704.17	10384.96
704.31	10413.04
704.44	10148.56
704.57	10218.78
704.70	10078.35
704.83	10324.10
704.96	10015.15
705.10	9895.78
705.23	9736.63
>>>>>End Processed Spectral Data<<<<<
