SpectraSuite Data File
++++++++++++++++++++++++++++++++++++
Date: Fri Oct 18 13:58:28 GMT-05:00 2013
User: bianchi
Dark Spectrum Present: No
Reference Spectrum Present: No
Number of Sampled Component Spectra: 1
Spectrometers: USB2+H05261
Integration Time (usec): 50000 (USB2+H05261)
Spectra Averaged: 1 (USB2+H05261)
Boxcar Smoothing: 0 (USB2+H05261)
Correct for Electrical Dark: No (USB2+H05261)
Strobe/Lamp Enabled: No (USB2+H05261)
Correct for Detector Non-linearity: No (USB2+H05261)
Correct for Stray Light: No (USB2+H05261)
Number of Pixels in Processed Spectrum: 2048
>>>>>Begin Processed Spectral Data<<<<<
365.73	0.00
365.92	0.00
366.12	0.00
366.32	0.00
366.52	0.00
366.72	0.00
366.91	0.00
367.11	0.00
367.31	0.00
367.51	0.00
367.70	0.00
367.90	0.00
368.10	0.00
368.30	0.00
368.49	0.00
368.69	0.00
368.89	0.00
369.09	0.00
369.28	0.00
369.48	0.00
369.68	0.00
369.87	0.00
370.07	0.00
370.27	0.00
370.47	11.70
370.66	81.92
370.86	147.45
371.06	60.85
371.25	133.41
371.45	128.73
371.65	154.48
371.84	72.56
372.04	215.33
372.24	189.58
372.44	100.64
372.63	208.31
372.83	156.82
373.03	182.56
373.22	217.67
373.42	154.48
373.62	201.29
373.81	215.33
374.01	234.05
374.21	147.45
374.40	283.20
374.60	266.82
374.79	210.65
374.99	266.82
375.19	266.82
375.38	259.80
375.58	250.44
375.78	273.84
375.97	175.54
376.17	243.42
376.37	194.26
376.56	196.60
376.76	196.60
376.95	337.04
377.15	292.57
377.35	250.44
377.54	250.44
377.74	236.39
377.93	269.16
378.13	276.18
378.33	259.80
378.52	294.91
378.72	255.12
378.91	287.89
379.11	304.27
379.31	227.03
379.50	402.57
379.70	320.65
379.89	301.93
380.09	278.52
380.28	259.80
380.48	283.20
380.68	262.14
380.87	278.52
381.07	269.16
381.26	271.50
381.46	276.18
381.65	381.51
381.85	330.02
382.04	346.40
382.24	332.36
382.43	287.89
382.63	351.08
382.83	280.86
383.02	290.23
383.22	339.38
383.41	383.85
383.61	383.85
383.80	379.17
384.00	379.17
384.19	379.17
384.39	430.66
384.58	369.80
384.78	276.18
384.97	330.02
385.17	311.29
385.36	388.53
385.56	428.32
385.75	372.15
385.95	376.83
386.14	468.11
386.34	351.08
386.53	411.93
386.72	454.06
386.92	362.78
387.11	433.00
387.31	428.32
387.50	435.34
387.70	369.80
387.89	383.85
388.09	416.62
388.28	451.72
388.48	475.13
388.67	512.58
388.86	444.70
389.06	411.93
389.25	454.06
389.45	423.64
389.64	440.02
389.84	449.38
390.03	566.41
390.22	444.70
390.42	484.49
390.61	440.02
390.81	496.19
391.00	479.81
391.19	510.24
391.39	524.28
391.58	552.37
391.78	568.75
391.97	550.03
392.16	514.92
392.36	573.43
392.55	564.07
392.75	447.04
392.94	521.94
393.13	547.69
393.33	531.30
393.52	514.92
393.71	606.20
393.91	517.26
394.10	655.35
394.29	564.07
394.49	566.41
394.68	540.66
394.88	550.03
395.07	503.22
395.26	636.63
395.46	545.34
395.65	566.41
395.84	627.26
396.04	608.54
396.23	645.99
396.42	638.97
396.62	671.73
396.81	674.07
397.00	648.33
397.19	629.60
397.39	643.65
397.58	697.48
397.77	610.88
397.97	592.16
398.16	655.35
398.35	699.82
398.55	624.92
398.74	617.90
398.93	744.29
399.12	629.60
399.32	685.78
399.51	695.14
399.70	741.95
399.90	723.23
400.09	786.42
400.28	732.59
400.47	751.31
400.67	812.17
400.86	767.70
401.05	744.29
401.24	730.25
401.44	791.10
401.63	725.57
401.82	697.48
402.01	758.33
402.21	816.85
402.40	814.51
402.59	819.19
402.78	868.34
402.97	868.34
403.17	718.54
403.36	805.14
403.55	917.49
403.74	896.43
403.93	980.68
404.13	830.89
404.32	849.61
404.51	833.23
404.70	901.11
404.89	908.13
405.09	976.00
405.28	896.43
405.47	933.87
405.66	903.45
405.85	915.15
406.05	1008.77
406.24	952.60
406.43	924.51
406.62	980.68
406.81	1081.33
407.00	1018.13
407.20	971.32
407.39	994.73
407.58	961.96
407.77	1018.13
407.96	945.58
408.15	1153.88
408.34	1102.39
408.54	1186.65
408.73	1214.74
408.92	1036.86
409.11	1135.16
409.30	1095.37
409.49	1118.78
409.68	1149.20
409.87	1039.20
410.07	1158.57
410.26	1123.46
410.45	1151.54
410.64	1259.21
410.83	1226.44
411.02	1146.86
411.21	1123.46
411.40	1203.04
411.59	1273.25
411.78	1174.95
411.98	1275.59
412.17	1254.53
412.36	1320.06
412.55	1334.11
412.74	1364.53
412.93	1233.46
413.12	1327.08
413.31	1345.81
413.50	1306.02
413.69	1394.96
413.88	1432.41
414.07	1413.68
414.26	1406.66
414.45	1376.24
414.64	1441.77
414.83	1490.92
415.02	1423.05
415.22	1451.13
415.41	1474.54
415.60	1610.29
415.79	1530.71
415.98	1593.90
416.17	1675.82
416.36	1521.35
416.55	1558.80
416.74	1682.85
416.93	1563.48
417.12	1586.88
417.31	1640.72
417.50	1617.31
417.69	1701.57
417.88	1813.92
418.07	1720.29
418.26	1802.21
418.45	1636.03
418.64	1727.32
418.83	1849.02
419.02	1809.23
419.21	1776.47
419.39	1844.34
419.58	1764.76
419.77	1762.42
419.96	1818.60
420.15	1830.30
420.34	1898.17
420.53	1732.00
420.72	1886.47
420.91	1877.11
421.10	1933.28
421.29	1970.73
421.48	2012.86
421.67	1973.07
421.86	1860.73
422.05	1987.11
422.24	1982.43
422.43	1952.01
422.61	1937.96
422.80	2005.84
422.99	2054.99
423.18	1959.03
423.37	2033.93
423.56	1966.05
423.75	1902.86
423.94	1870.09
424.13	1870.09
424.32	1837.32
424.50	1935.62
424.69	2139.25
424.88	2076.06
425.07	2001.16
425.26	2062.01
425.45	1839.66
425.64	1991.80
425.83	2026.90
426.01	2012.86
426.20	1973.07
426.39	2036.27
426.58	1912.22
426.77	2113.50
426.96	1996.48
427.15	2115.84
427.33	2064.35
427.52	2106.48
427.71	2101.80
427.90	2087.76
428.09	2066.69
428.28	2050.31
428.46	2167.34
428.65	2132.23
428.84	2204.78
429.03	2314.79
429.22	2155.63
429.40	2221.17
429.59	2176.70
429.78	2122.87
429.97	2064.35
430.16	2129.89
430.34	2314.79
430.53	2270.32
430.72	2251.60
430.91	2265.64
431.10	2263.30
431.28	2340.54
431.47	2382.67
431.66	2415.43
431.85	2324.15
432.03	2352.24
432.22	2427.14
432.41	2466.92
432.60	2399.05
432.79	2487.99
432.97	2385.01
433.16	2340.54
433.35	2429.48
433.54	2539.48
433.72	2506.71
433.91	2422.45
434.10	2401.39
434.28	2370.96
434.47	2513.74
434.66	2490.33
434.85	2579.27
435.03	2560.55
435.22	2553.52
435.41	2637.78
435.59	2532.46
435.78	2555.86
435.97	2569.91
436.16	2642.46
436.34	2630.76
436.53	2600.34
436.72	2633.10
436.90	2729.06
437.09	2658.85
437.28	2682.25
437.46	2562.89
437.65	2696.30
437.84	2670.55
438.02	2579.27
438.21	2712.68
438.40	2717.36
438.58	2841.41
438.77	2792.26
438.96	2754.81
439.14	2853.11
439.33	2928.01
439.52	3038.02
439.70	2925.67
439.89	2928.01
440.08	2951.42
440.26	2972.48
440.45	2993.55
440.63	3075.46
440.82	3049.72
441.01	3110.57
441.19	3038.02
441.38	3063.76
441.57	3016.95
441.75	3012.27
441.94	3325.90
442.12	3307.18
442.31	3353.99
442.50	3166.74
442.68	3199.51
442.87	3300.16
443.05	3248.66
443.24	3407.82
443.43	3361.01
443.61	3272.07
443.80	3410.16
443.98	3356.33
444.17	3173.77
444.35	3386.76
444.54	3424.20
444.73	3466.33
444.91	3431.23
445.10	3356.33
445.28	3459.31
445.47	3286.11
445.65	3456.97
445.84	3435.91
446.02	3351.65
446.21	3361.01
446.39	3529.53
446.58	3506.12
446.77	3368.03
446.95	3325.90
447.14	3365.69
447.32	3431.23
447.51	3328.24
447.69	3611.45
447.88	3517.83
448.06	3550.59
448.25	3592.72
448.43	3468.67
448.62	3588.04
448.80	3571.66
448.99	3562.30
449.17	3583.36
449.36	3740.18
449.54	3503.78
449.73	3606.77
449.91	3639.53
450.10	3627.83
450.28	3651.24
450.46	3768.26
450.65	3695.71
450.83	3679.32
451.02	3679.32
451.20	3871.25
451.39	3660.60
451.57	3744.86
451.76	3777.62
451.94	3688.68
452.13	3779.97
452.31	3815.07
452.49	3669.96
452.68	3784.65
452.86	3803.37
453.05	3740.18
453.23	3882.95
453.42	3688.68
453.60	3815.07
453.78	3918.06
453.97	3843.16
454.15	3801.03
454.34	3922.74
454.52	3948.48
454.70	3953.16
454.89	3927.42
455.07	3918.06
455.26	4028.06
455.44	3913.38
455.62	4072.53
455.81	4016.36
455.99	4065.51
456.17	4112.32
456.36	4117.00
456.54	4100.62
456.73	4152.11
456.91	4060.83
457.09	4222.33
457.28	4264.46
457.46	4060.83
457.64	4266.80
457.83	4311.27
458.01	4159.13
458.19	4287.86
458.38	4217.65
458.56	4524.26
458.74	4360.42
458.93	4447.02
459.11	4269.14
459.29	4376.80
459.48	4383.82
459.66	4234.03
459.84	4582.77
460.03	4662.35
460.21	4402.55
460.39	4540.64
460.57	4491.49
460.76	4601.49
460.94	4489.15
461.12	4564.04
461.31	4709.16
461.49	4652.98
461.67	4657.67
461.85	4697.46
462.04	4692.77
462.22	4580.43
462.40	4741.93
462.59	4566.39
462.77	4676.39
462.95	4730.22
463.13	4702.14
463.32	4882.36
463.50	4809.80
463.68	4697.46
463.86	4844.91
464.05	4823.84
464.23	4919.81
464.41	4779.37
464.59	4774.69
464.78	4943.21
464.96	4788.74
465.14	4777.03
465.32	4882.36
465.50	4961.94
465.69	4865.97
465.87	4940.87
466.05	4971.30
466.23	4898.74
466.41	5174.92
466.60	5018.11
466.78	4868.31
466.96	4870.65
467.14	4887.04
467.32	5025.13
467.51	5212.37
467.69	4887.04
467.87	5107.05
468.05	5165.56
468.23	5132.79
468.41	5074.28
468.60	5170.24
468.78	5109.39
468.96	5188.97
469.14	5163.22
469.32	5313.02
469.50	5060.24
469.69	5350.46
469.87	5266.21
470.05	5378.55
470.23	5404.30
470.41	5167.90
470.59	5334.08
470.77	5284.93
470.95	5397.28
471.14	5486.22
471.32	5352.81
471.50	5523.66
471.68	5469.83
471.86	5504.94
472.04	5544.73
472.22	5666.44
472.40	5584.52
472.58	5579.84
472.77	5685.16
472.95	5790.49
473.13	5956.66
473.31	5621.97
473.49	5820.91
473.67	5811.55
473.85	5797.51
474.03	5851.34
474.21	5968.37
474.39	6003.47
474.57	6015.18
474.75	6033.90
474.93	6087.73
475.12	5984.75
475.30	6176.67
475.48	6225.82
475.66	6270.30
475.84	6141.57
476.02	6340.51
476.20	6235.19
476.38	6338.17
476.56	6569.88
476.74	6569.88
476.92	6333.49
477.10	6420.09
477.28	6490.31
477.46	6530.09
477.64	6502.01
477.82	6707.98
478.00	6705.63
478.18	6810.96
478.36	6885.86
478.54	7049.69
478.72	7052.03
478.90	7115.23
479.08	6930.33
479.26	7000.54
479.44	7075.44
479.62	7215.87
479.80	7197.15
479.98	7480.35
480.16	7438.22
480.34	7290.77
480.52	7515.46
480.70	7569.29
480.88	7583.34
481.06	7702.70
481.24	7768.24
481.41	7763.56
481.59	7763.56
481.77	7911.01
481.95	7960.16
482.13	8025.70
482.31	8060.80
482.49	8102.93
482.67	8063.15
482.85	8358.05
483.03	8458.70
483.21	8437.63
483.39	8379.12
483.57	8578.06
483.74	8557.00
483.92	8486.78
484.10	8533.59
484.28	8648.28
484.46	9020.42
484.64	9025.11
484.82	8863.61
485.00	8982.98
485.18	9053.19
485.35	9233.41
485.53	9191.28
485.71	9310.65
485.89	9399.59
486.07	9266.18
486.25	9387.89
486.43	9401.93
486.61	9603.22
486.78	9600.88
486.96	10064.30
487.14	10052.60
487.32	9848.97
487.50	9975.36
487.68	10125.16
487.85	10174.31
488.03	10106.43
488.21	10448.15
488.39	10408.36
488.57	10649.44
488.75	10595.61
488.92	10782.85
489.10	10619.01
489.28	10621.35
489.46	11131.59
489.64	11068.39
489.81	11267.34
489.99	11122.23
490.17	11393.73
490.35	11269.68
490.53	11398.41
490.70	11236.91
490.88	11339.90
491.06	11709.70
491.24	11571.61
491.41	11438.20
491.59	11829.07
491.77	11770.55
491.95	11915.67
492.13	11686.29
492.30	11929.71
492.48	12365.05
492.66	12292.49
492.84	12093.55
493.01	12273.77
493.19	12271.43
493.37	12407.18
493.54	12505.48
493.72	12514.84
493.90	12638.89
494.08	12828.48
494.25	12842.52
494.43	13291.90
494.61	13102.32
494.79	13062.53
494.96	13179.56
495.14	13268.50
495.32	13324.67
495.49	13532.98
495.67	13334.03
495.85	13675.75
496.02	13650.00
496.20	13785.76
496.38	13846.61
496.55	13750.65
496.73	14012.79
496.91	13858.31
497.09	14218.75
497.26	13987.04
497.44	13855.97
497.62	14052.58
497.79	14230.46
497.97	14260.88
498.14	14754.74
498.32	14831.97
498.50	14501.96
498.67	14611.96
498.85	14679.84
499.03	14951.34
499.20	14883.47
499.38	14984.11
499.56	15286.04
499.73	14949.00
499.91	15101.14
500.08	15501.37
500.26	15133.90
500.44	15363.28
500.61	15033.26
500.79	15318.81
500.97	15494.35
501.14	15449.88
501.32	15529.45
501.49	15524.77
501.67	15616.05
501.84	15484.98
502.02	15559.88
502.20	16020.97
502.37	15861.81
502.55	15829.04
502.72	15967.13
502.90	16208.21
503.07	15777.55
503.25	16163.74
503.43	16072.46
503.60	16311.19
503.78	16329.92
503.95	16292.47
504.13	16156.72
504.30	16348.64
504.48	16313.53
504.65	16538.23
504.83	16641.21
505.01	16807.39
505.18	16683.34
505.36	17221.66
505.53	16538.23
505.71	16898.67
505.88	16884.62
506.06	16524.18
506.23	17036.76
506.41	17256.77
506.58	17015.69
506.76	17193.58
506.93	17277.83
507.11	17341.03
507.28	17551.68
507.46	17254.43
507.63	17530.61
507.81	17493.16
507.98	17547.00
508.16	17334.01
508.33	17415.93
508.50	17706.15
508.68	17664.02
508.85	17937.87
509.03	17837.22
509.20	17869.99
509.38	17928.50
509.55	18317.03
509.73	17963.61
509.90	18092.34
510.08	17987.02
510.25	18125.11
510.42	18204.69
510.60	18321.71
510.77	18569.81
510.95	18471.51
511.12	18649.39
511.30	18370.86
511.47	18382.57
511.64	18431.72
511.82	18834.29
511.99	18640.03
512.17	18867.06
512.34	18621.30
512.51	18728.97
512.69	18813.23
512.86	18806.20
513.04	18888.12
513.21	19183.03
513.38	19145.58
513.56	19091.75
513.73	19103.45
513.90	19208.78
514.08	19208.78
514.25	19360.91
514.43	19463.90
514.60	19529.43
514.77	19625.39
514.95	19400.70
515.12	19637.09
515.29	19307.08
515.47	19672.20
515.64	19646.46
515.81	19690.93
515.99	19824.34
516.16	19978.81
516.33	19868.81
516.51	19939.02
516.68	19747.10
516.85	20091.16
517.03	19988.18
517.20	20109.88
517.37	20009.24
517.54	20306.49
517.72	20119.24
517.89	19955.41
518.06	20219.89
518.24	20467.98
518.41	20327.55
518.58	20444.58
518.75	20425.86
518.93	20849.49
519.10	20575.65
519.27	20645.87
519.45	20613.10
519.62	20528.84
519.79	20744.17
519.96	20655.23
520.14	20950.14
520.31	20608.42
520.48	20805.02
520.65	21067.16
520.83	21523.57
521.00	20987.58
521.17	20842.47
521.34	21083.55
521.52	21563.36
521.69	21436.97
521.86	21600.80
522.03	21390.16
522.20	21305.90
522.38	21408.88
522.55	21348.03
522.72	21275.47
522.89	21385.47
523.07	21975.29
523.24	21631.23
523.41	21933.16
523.58	21757.62
523.75	22132.11
523.92	21549.31
524.10	22108.70
524.27	22169.55
524.44	22375.52
524.61	22115.72
524.78	22157.85
524.96	21757.62
525.13	22104.02
525.30	22424.67
525.47	22099.34
525.64	22417.65
525.81	22473.82
525.98	22494.89
526.16	22558.08
526.33	22471.48
526.50	22977.04
526.67	22602.55
526.84	22466.80
527.01	22380.20
527.18	22632.98
527.36	22824.90
527.53	22745.33
527.70	22927.89
527.87	22703.20
528.04	22794.48
528.21	22860.01
528.38	22927.89
528.55	22881.08
528.72	22869.37
528.89	23065.98
529.07	23016.83
529.24	23108.11
529.41	23054.28
529.58	23007.47
529.75	23161.94
529.92	22991.08
530.09	22845.97
530.26	23300.03
530.43	23531.75
530.60	23073.00
530.77	23454.51
530.94	23564.51
531.11	23309.40
531.28	23463.87
531.46	23550.47
531.63	23428.76
531.80	23618.35
531.97	23735.37
532.14	23833.68
532.31	23611.32
532.48	23812.61
532.65	23630.05
532.82	23529.41
532.99	23534.09
533.16	23449.83
533.33	24063.05
533.50	24121.56
533.67	23838.36
533.84	23941.34
534.01	23903.89
534.18	24123.90
534.35	23819.63
534.52	23819.63
534.69	24453.92
534.86	24332.21
535.03	24182.42
535.20	24318.17
535.37	24226.89
535.54	23761.12
535.71	24070.07
535.88	24772.23
536.05	24266.67
536.22	24418.81
536.38	24821.38
536.55	24411.79
536.72	24645.84
536.89	24318.17
537.06	24767.55
537.23	24676.27
537.40	24582.65
537.57	24868.19
537.74	24805.00
537.91	25015.65
538.08	24535.84
538.25	24720.74
538.42	24673.93
538.59	25057.78
538.75	24800.32
538.92	24978.20
539.09	25010.96
539.26	25177.14
539.43	24919.68
539.60	25472.05
539.77	25102.25
539.94	25064.80
540.11	24982.88
540.28	25411.20
540.44	25188.85
540.61	24648.18
540.78	25181.82
540.95	25340.98
541.12	25153.74
541.29	25429.92
541.46	25235.66
541.62	25193.53
541.79	25479.07
541.96	25055.43
542.13	25528.22
542.30	25509.50
542.47	25790.36
542.63	25617.16
542.80	25734.19
542.97	25834.83
543.14	25862.92
543.31	25853.56
543.48	25956.54
543.64	25923.77
543.81	26221.02
543.98	26160.17
544.15	25891.01
544.32	26045.48
544.48	26267.83
544.65	26150.81
544.82	25905.05
544.99	26178.89
545.16	26426.99
545.32	26228.04
545.49	26546.36
545.66	26305.28
545.83	26565.08
546.00	26389.54
546.16	26111.02
546.33	26096.97
546.50	25954.20
546.67	26366.13
546.83	26012.71
547.00	26281.88
547.17	26232.72
547.34	26654.02
547.50	26263.15
547.67	26792.11
547.84	26656.36
548.00	26670.40
548.17	26803.82
548.34	26742.96
548.51	26810.84
548.67	26754.66
548.84	27166.60
549.01	26883.39
549.18	26859.99
549.34	26611.89
549.51	26527.63
549.68	26895.10
549.84	26731.26
550.01	27307.03
550.18	26944.25
550.34	27278.94
550.51	26876.37
550.68	27447.46
550.84	26862.33
551.01	26565.08
551.18	26948.93
551.34	26909.14
551.51	27014.46
551.68	26932.54
551.84	27342.14
552.01	27360.86
552.18	27346.82
552.34	27552.79
552.51	27173.62
552.68	27264.90
552.84	27262.56
553.01	26829.56
553.18	27426.40
553.34	27520.02
553.51	27316.39
553.67	27597.26
553.84	27693.22
554.01	27686.20
554.17	27580.87
554.34	27496.61
554.51	27601.94
554.67	27786.84
554.84	27489.59
555.00	27758.75
555.17	27847.69
555.33	27922.59
555.50	27798.54
555.67	27875.78
555.83	27524.70
556.00	28032.60
556.16	28004.51
556.33	27676.83
556.50	27578.53
556.66	28006.85
556.83	28257.29
556.99	28130.90
557.16	28243.24
557.32	28261.97
557.49	28226.86
557.65	28034.94
557.82	27824.29
557.98	27707.26
558.15	28114.52
558.32	28301.76
558.48	28156.64
558.65	28215.16
558.81	28224.52
558.98	28011.53
559.14	28140.26
559.31	28114.52
559.47	28156.64
559.64	28109.83
559.80	28166.01
559.97	28514.75
560.13	27978.76
560.30	28257.29
560.46	28355.59
560.63	28233.88
560.79	28620.07
560.96	28505.38
561.12	28032.60
561.29	28425.81
561.45	27953.02
561.61	28783.91
561.78	28601.35
561.94	28538.15
562.11	28678.58
562.27	28526.45
562.44	28676.24
562.60	28292.40
562.77	28411.76
562.93	28030.26
563.10	28107.49
563.26	28519.43
563.42	28966.47
563.59	28589.64
563.75	28701.99
563.92	28606.03
564.08	28463.25
564.24	28489.00
564.41	28730.08
564.57	28931.36
564.74	28566.24
564.90	28577.94
565.07	28833.06
565.23	28608.37
565.39	28943.06
565.56	28783.91
565.72	28561.56
565.88	28835.40
566.05	28711.35
566.21	28301.76
566.38	28758.16
566.54	28535.81
566.70	28903.28
566.87	28809.65
567.03	29193.50
567.19	28603.69
567.36	28444.53
567.52	28922.00
567.68	28814.34
567.85	28800.29
568.01	29095.20
568.17	28858.81
568.34	29247.33
568.50	28849.44
568.66	28999.24
568.83	28842.42
568.99	28655.18
569.15	28814.34
569.32	28886.89
569.48	29132.65
569.64	29312.87
569.81	29003.92
569.97	28582.62
570.13	28828.38
570.30	29111.58
570.46	28823.70
570.62	28975.83
570.78	28758.16
570.95	28943.06
571.11	29015.62
571.27	28617.73
571.43	28795.61
571.60	28954.77
571.76	29081.16
571.92	28858.81
572.09	29067.11
572.25	29291.80
572.41	29252.02
572.57	29291.80
572.74	29427.56
572.90	28978.17
573.06	28804.97
573.22	29069.45
573.38	29268.40
573.55	29097.54
573.71	29537.56
573.87	29333.93
574.03	29017.96
574.20	29420.53
574.36	29385.43
574.52	29130.31
574.68	28914.98
574.84	29366.70
575.01	29071.79
575.17	29343.30
575.33	28954.77
575.49	29446.28
575.65	29116.26
575.82	29488.41
575.98	28774.55
576.14	29294.14
576.30	29008.60
576.46	29139.67
576.62	29249.67
576.79	29223.93
576.95	29432.24
577.11	29404.15
577.27	29357.34
577.43	29235.63
577.59	29310.53
577.75	28882.21
577.92	29130.31
578.08	29048.39
578.24	29179.46
578.40	29450.96
578.56	29146.69
578.72	29603.10
578.88	29441.60
579.04	29411.17
579.21	29200.52
579.37	29355.00
579.53	29446.28
579.69	29362.02
579.85	29083.50
580.01	29317.55
580.17	29060.09
580.33	29153.71
580.49	28933.70
580.65	29067.11
580.82	29113.92
580.98	29242.65
581.14	29200.52
581.30	29544.58
581.46	29670.97
581.62	29472.03
581.78	29275.42
581.94	29364.36
582.10	29450.96
582.26	29352.66
582.42	29158.39
582.58	29713.10
582.74	29394.79
582.90	29282.44
583.06	29673.31
583.22	29696.72
583.38	29219.25
583.54	29689.70
583.70	29212.23
583.86	29137.33
584.02	29074.13
584.18	29275.42
584.34	29806.72
584.50	29659.27
584.66	29537.56
584.82	29453.30
584.98	29376.06
585.14	29542.24
585.30	29188.82
585.46	29287.12
585.62	29315.21
585.78	29476.71
585.94	29223.93
586.10	29769.27
586.26	29586.71
586.42	29591.39
586.58	29813.74
586.74	29390.11
586.90	29411.17
587.06	29270.74
587.22	29427.56
587.38	28989.88
587.54	30162.48
587.70	29874.60
587.86	29504.79
588.02	29366.70
588.18	29771.61
588.34	29476.71
588.49	29563.31
588.65	29481.39
588.81	29635.86
588.97	29333.93
589.13	29912.05
589.29	29132.65
589.45	29762.25
589.61	29935.45
589.77	29795.02
589.93	29729.48
590.08	30169.51
590.24	29301.17
590.40	29504.79
590.56	30010.35
590.72	29425.22
590.88	29298.83
591.04	29408.83
591.20	29914.39
591.35	30024.39
591.51	30380.15
591.67	29944.81
591.83	29947.15
591.99	29874.60
592.15	29827.79
592.31	29694.38
592.46	29582.03
592.62	29682.67
592.78	29731.83
592.94	29998.65
593.10	29738.85
593.26	29596.07
593.41	29933.11
593.57	29883.96
593.73	30096.95
593.89	29919.07
594.05	29764.59
594.20	30160.14
594.36	29755.23
594.52	29813.74
594.68	29907.37
594.84	29984.60
594.99	29956.52
595.15	29734.17
595.31	30560.37
595.47	29769.27
595.62	30040.78
595.78	29916.73
595.94	29799.70
596.10	30169.51
596.25	29811.40
596.41	29825.45
596.57	29928.43
596.73	30059.50
596.88	29935.45
597.04	29764.59
597.20	30141.42
597.36	29919.07
597.51	30094.61
597.67	29762.25
597.83	29804.38
597.99	30155.46
598.14	29865.24
598.30	29813.74
598.46	30094.61
598.61	29930.77
598.77	29947.15
598.93	30263.13
599.09	29970.56
599.24	30726.55
599.40	30153.12
599.56	29947.15
599.71	30127.38
599.87	29982.26
600.03	29935.45
600.18	29865.24
600.34	29844.17
600.50	30106.31
600.65	29970.56
600.81	30157.80
600.97	30288.87
601.12	30246.74
601.28	30576.76
601.44	30382.49
601.59	30403.56
601.75	29898.00
601.91	30139.08
602.06	30211.64
602.22	29738.85
602.37	30064.18
602.53	29951.84
602.69	30249.08
602.84	29898.00
603.00	30176.53
603.16	30036.09
603.31	30181.21
603.47	30036.09
603.62	29699.06
603.78	29654.59
603.94	29593.73
604.09	29958.86
604.25	29895.66
604.40	29626.50
604.56	30136.74
604.71	30071.20
604.87	30235.04
605.03	30031.41
605.18	29832.47
605.34	30024.39
605.49	29818.42
605.65	30029.07
605.80	29621.82
605.96	29813.74
606.12	30047.80
606.27	30059.50
606.43	29919.07
606.58	30181.21
606.74	29830.13
606.89	30080.56
607.05	30188.23
607.20	30375.47
607.36	30298.23
607.51	30452.71
607.67	29542.24
607.82	29752.89
607.98	30005.67
608.13	29525.86
608.29	29762.25
608.44	29968.22
608.60	30251.42
608.75	29898.00
608.91	29862.90
609.06	30141.42
609.22	29500.11
609.37	29804.38
609.53	29645.23
609.68	29710.76
609.84	29619.48
609.99	29553.94
610.15	29893.32
610.30	29699.06
610.46	29827.79
610.61	29869.92
610.76	29720.12
610.92	29912.05
611.07	29919.07
611.23	29387.77
611.38	29495.43
611.54	29631.18
611.69	29270.74
611.84	29415.85
612.00	29516.50
612.15	29532.88
612.31	29563.31
612.46	29553.94
612.62	29465.00
612.77	29626.50
612.92	29795.02
613.08	29275.42
613.23	29795.02
613.39	29378.40
613.54	29572.67
613.69	29439.26
613.85	29490.75
614.00	29394.79
614.15	29642.88
614.31	29359.68
614.46	29481.39
614.62	29502.45
614.77	29563.31
614.92	29682.67
615.08	29628.84
615.23	29788.00
615.38	29242.65
615.54	29132.65
615.69	29156.05
615.84	29235.63
616.00	29329.25
616.15	29315.21
616.30	29205.20
616.46	29099.88
616.61	29455.64
616.76	29174.78
616.92	29219.25
617.07	29355.00
617.22	29032.00
617.37	29219.25
617.53	28952.43
617.68	29249.67
617.83	28861.15
617.99	29153.71
618.14	29088.18
618.29	28858.81
618.45	29102.22
618.60	28980.51
618.75	29228.61
618.90	29357.34
619.06	28884.55
619.21	28634.11
619.36	28772.21
619.51	28655.18
619.67	28713.69
619.82	28549.85
619.97	28868.17
620.12	28521.77
620.28	28872.85
620.43	29102.22
620.58	28980.51
620.73	28907.96
620.89	28905.62
621.04	29170.10
621.19	28828.38
621.34	28699.65
621.49	28599.01
621.65	28694.97
621.80	28884.55
621.95	28198.77
622.10	28549.85
622.25	28797.95
622.41	28603.69
622.56	28720.71
622.71	28720.71
622.86	29064.77
623.01	28826.04
623.16	28379.00
623.32	28547.51
623.47	28491.34
623.62	28458.57
623.77	28521.77
623.92	28580.28
624.07	28439.85
624.23	28315.80
624.38	28474.96
624.53	28205.80
624.68	28727.74
624.83	28709.01
624.98	28423.47
625.13	28362.61
625.29	28336.87
625.44	28526.45
625.59	28294.74
625.74	28180.05
625.89	28133.24
626.04	28259.63
626.19	28580.28
626.34	28128.56
626.49	28313.46
626.65	28203.46
626.80	28018.55
626.95	28404.74
627.10	28638.80
627.25	28027.92
627.40	28315.80
627.55	27953.02
627.70	27552.79
627.85	27791.52
628.00	28006.85
628.15	28081.75
628.30	27826.63
628.45	27831.31
628.60	27651.09
628.76	28224.52
628.91	28016.21
629.06	27917.91
629.21	28016.21
629.36	27735.35
629.51	27740.03
629.66	27946.00
629.81	27953.02
629.96	27641.73
630.11	27461.51
630.26	27597.26
630.41	27639.39
630.56	27566.83
630.71	27674.49
630.86	27480.23
631.01	27908.55
631.16	27938.97
631.31	27351.50
631.46	27623.00
631.61	27517.68
631.76	27714.28
631.91	27466.19
632.06	27702.58
632.21	27140.85
632.36	27438.10
632.51	27372.57
632.66	27599.60
632.81	27264.90
632.96	27421.72
633.10	27372.57
633.25	27707.26
633.40	27667.47
633.55	27435.76
633.70	27225.11
633.85	27117.45
634.00	27042.55
634.15	27335.12
634.30	27321.07
634.45	27115.11
634.60	27108.08
634.75	27089.36
634.90	27171.28
635.05	27372.57
635.19	27190.00
635.34	27456.82
635.49	27337.46
635.64	27145.53
635.79	27157.24
635.94	27037.87
636.09	27302.35
636.24	26637.64
636.39	27037.87
636.53	27290.65
636.68	26742.96
636.83	27143.19
636.98	27005.10
637.13	26761.69
637.28	27054.25
637.43	27232.13
637.57	26920.84
637.72	26745.30
637.87	27342.14
638.02	26721.90
638.17	26850.63
638.32	26277.19
638.46	26808.50
638.61	26813.18
638.76	26974.67
638.91	26466.78
639.06	26862.33
639.20	26593.17
639.35	26644.66
639.50	27126.81
639.65	27152.55
639.80	26766.37
639.94	26623.59
640.09	26487.84
640.24	26639.98
640.39	26431.67
640.54	26586.15
640.68	26450.39
640.83	26249.11
640.98	26174.21
641.13	26221.02
641.27	26670.40
641.42	26466.78
641.57	26389.54
641.72	26483.16
641.86	26464.44
642.01	26506.57
642.16	26356.77
642.31	26583.80
642.45	26321.66
642.60	26045.48
642.75	26122.72
642.90	26214.00
643.04	26031.44
643.19	26260.81
643.34	26363.79
643.48	26033.78
643.63	26230.38
643.78	26078.25
643.93	26162.51
644.07	26249.11
644.22	26469.12
644.37	25965.90
644.51	26143.78
644.66	26178.89
644.81	25933.14
644.95	26015.05
645.10	25986.97
645.25	26242.09
645.39	25996.33
645.54	25914.41
645.69	26410.60
645.83	25942.50
645.98	26225.70
646.13	25862.92
646.27	26122.72
646.42	26029.10
646.57	26160.17
646.71	25851.22
646.86	25734.19
647.00	25930.80
647.15	25820.79
647.30	25727.17
647.44	25783.34
647.59	25514.18
647.74	25741.21
647.88	25848.88
648.03	25895.69
648.17	25797.38
648.32	25926.11
648.47	25795.04
648.61	25715.47
648.76	25755.26
648.90	25654.61
649.05	25493.12
649.20	25771.64
649.34	25570.35
649.49	25458.01
649.63	25289.49
649.78	25345.66
649.92	25584.40
650.07	25769.30
650.21	25453.33
650.36	25633.55
650.51	25245.02
650.65	25525.88
650.80	25617.16
650.94	25195.87
651.09	25214.59
651.23	25104.59
651.38	25472.05
651.52	25240.34
651.67	25149.06
651.81	24971.18
651.96	25242.68
652.10	25263.74
652.25	25163.10
652.39	25610.14
652.54	25460.35
652.68	25301.19
652.83	25771.64
652.97	25308.21
653.12	25207.57
653.26	25057.78
653.41	25123.31
653.55	25263.74
653.70	24917.34
653.84	25060.12
653.99	24734.78
654.13	24985.22
654.27	24671.59
654.42	25034.37
654.56	24765.21
654.71	24910.32
654.85	25249.70
655.00	25214.59
655.14	24884.58
655.29	25130.33
655.43	25057.78
655.57	24638.82
655.72	24631.80
655.86	24437.53
656.01	24482.00
656.15	24812.02
656.30	24662.22
656.44	24872.87
656.58	24861.17
656.73	24713.72
656.87	24549.88
657.01	24868.19
657.16	24599.03
657.30	24996.92
657.45	24842.45
657.59	24835.42
657.73	24474.98
657.88	24840.11
658.02	24545.20
658.16	24556.90
658.31	24423.49
658.45	24259.65
658.60	24292.42
658.74	24271.36
658.88	24556.90
659.03	24477.32
659.17	24648.18
659.31	24334.55
659.46	24554.56
659.60	24577.97
659.74	24395.40
659.89	24261.99
660.03	24376.68
660.17	24133.26
660.32	24180.07
660.46	24056.03
660.60	24166.03
660.74	23852.40
660.89	24372.00
661.03	23632.39
661.17	23889.85
661.32	23833.68
661.46	24091.13
661.60	24039.64
661.74	24053.69
661.89	23667.50
662.03	23882.83
662.17	24060.71
662.31	23573.88
662.46	23878.15
662.60	23653.45
662.74	23459.19
662.88	23625.37
663.03	23498.98
663.17	23756.44
663.31	23147.90
663.45	23260.24
663.60	23236.84
663.74	23211.09
663.88	23573.88
664.02	23379.61
664.17	23452.17
664.31	23103.43
664.45	23042.57
664.59	22979.38
664.73	23501.32
664.88	23157.26
665.02	22771.07
665.16	22855.33
665.30	23190.03
665.44	23007.47
665.59	23056.62
665.73	22911.50
665.87	22991.08
666.01	23110.45
666.15	22682.13
666.29	22869.37
666.44	23023.85
666.58	22916.19
666.72	22576.81
666.86	22822.56
667.00	22831.93
667.14	22539.36
667.28	22719.58
667.43	22537.02
667.57	22850.65
667.71	22485.53
667.85	22693.83
667.99	22370.84
668.13	22686.81
668.27	22466.80
668.41	22712.56
668.56	22324.03
668.70	22485.53
668.84	22614.26
668.98	22216.36
669.12	22153.17
669.26	22216.36
669.40	22272.54
669.54	22054.87
669.68	22171.89
669.82	22036.14
669.96	22092.32
670.10	21774.00
670.25	21830.18
670.39	21631.23
670.53	21738.90
670.67	21769.32
670.81	21781.03
670.95	21848.90
671.09	21919.12
671.23	21766.98
671.37	21572.72
671.51	21937.84
671.65	21762.30
671.79	21788.05
671.93	21771.66
672.07	21701.45
672.21	21624.21
672.35	21036.74
672.49	20971.20
672.63	21064.82
672.77	21628.89
672.91	21209.93
673.05	21233.34
673.19	21135.04
673.33	21207.59
673.47	21130.36
673.61	21341.00
673.75	21022.69
673.89	21097.59
674.03	21195.89
674.17	21160.78
674.31	20908.01
674.45	20870.56
674.59	20819.07
674.73	20931.41
674.87	20634.16
675.01	20718.42
675.15	20290.10
675.29	20535.86
675.43	20606.08
675.56	20552.24
675.70	20423.51
675.84	20236.27
675.98	19927.32
676.12	20563.95
676.26	20531.18
676.40	20699.70
676.54	20123.93
676.68	20250.32
676.82	19908.60
676.96	19843.06
677.10	20233.93
677.23	20105.20
677.37	19552.84
677.51	19761.14
677.65	19742.42
677.79	19524.75
677.93	19559.86
678.07	19463.90
678.21	19414.74
678.34	19356.23
678.48	19267.29
678.62	19325.80
678.76	19274.31
678.90	19000.47
679.04	19213.46
679.18	19412.40
679.31	19220.48
679.45	18895.14
679.59	18593.22
679.73	18532.36
679.87	18462.15
680.00	18862.38
680.14	18581.51
680.28	18684.50
680.42	18478.53
680.56	18773.44
680.70	18525.34
680.83	18324.05
680.97	18377.89
681.11	18515.98
681.25	18415.34
681.39	18120.43
681.52	18333.42
681.66	18281.92
681.80	18127.45
681.94	17778.71
682.07	18171.92
682.21	17961.27
682.35	17745.94
682.49	17479.12
682.62	17881.69
682.76	17848.93
682.90	17839.56
683.04	17921.48
683.17	17451.03
683.31	17811.48
683.45	17802.11
683.59	17394.86
683.72	17282.52
683.86	17338.69
684.00	17259.11
684.13	17282.52
684.27	17118.68
684.41	16973.56
684.55	16929.09
684.68	16922.07
684.82	16791.00
684.96	16821.43
685.09	16774.62
685.23	17097.61
685.37	16615.46
685.50	16748.87
685.64	16748.87
685.78	16610.78
685.91	16622.48
686.05	16659.93
686.19	16610.78
686.32	16376.73
686.46	16196.51
686.60	16060.76
686.73	16084.16
686.87	16095.86
687.01	16098.20
687.14	16313.53
687.28	15765.85
687.42	16042.03
687.55	16119.27
687.69	15932.03
687.82	15681.59
687.96	15925.00
688.10	15641.80
688.23	15641.80
688.37	15822.02
688.50	15723.72
688.64	15665.21
688.78	15602.01
688.91	15360.94
689.05	15330.51
689.18	15452.22
689.32	14839.00
689.46	15290.72
689.59	15227.53
689.73	15110.50
689.86	14848.36
690.00	15047.30
690.13	14782.82
690.27	14728.99
690.41	14839.00
690.54	14682.18
690.68	14843.68
690.81	15044.96
690.95	14743.03
691.08	14764.10
691.22	14600.26
691.35	14602.60
691.49	14506.64
691.62	14480.89
691.76	14324.08
691.89	14361.53
692.03	14118.11
692.16	13891.08
692.30	13841.93
692.43	14022.15
692.57	14031.51
692.70	14029.17
692.84	13839.59
692.97	13720.22
693.11	13813.84
693.24	13549.36
693.38	13956.61
693.51	13671.07
693.65	13486.17
693.78	13540.00
693.92	13844.27
694.05	13687.45
694.19	13432.33
694.32	13282.54
694.45	13497.87
694.59	13137.43
694.72	13102.32
694.86	13085.94
694.99	12915.08
695.13	12898.69
695.26	12968.91
695.39	12884.65
695.53	13004.02
695.66	13062.53
695.80	12868.27
695.93	12875.29
696.07	12786.35
696.20	12585.06
696.33	12650.60
696.47	12500.80
696.60	12533.57
696.73	12285.47
696.87	12573.36
697.00	12596.76
697.14	12241.00
697.27	12231.64
697.40	12091.21
697.54	11997.59
697.67	12070.14
697.80	11981.20
697.94	11971.84
698.07	11953.12
698.21	11693.32
698.34	11927.37
698.47	11978.86
698.61	11779.92
698.74	11845.45
698.87	11674.59
699.01	11674.59
699.14	11307.13
699.27	11646.51
699.40	11658.21
699.54	11398.41
699.67	11316.49
699.80	11108.18
699.94	11147.97
700.07	11213.51
700.20	11052.01
700.34	10897.53
700.47	10988.82
700.60	10729.02
700.73	11014.56
700.87	10939.66
701.00	10911.58
701.13	10860.09
701.26	10937.32
701.40	10981.79
701.53	10729.02
701.66	10789.87
701.79	10719.65
701.93	10511.35
702.06	10628.37
702.19	10359.21
702.32	10501.98
702.46	10429.43
702.59	10324.10
702.72	10303.04
702.85	10171.97
702.99	10317.08
703.12	10178.99
703.25	10260.91
703.38	10244.52
703.51	10076.01
703.65	10146.22
703.78	10125.16
703.91	10139.20
704.04	9839.61
704.17	10153.24
704.31	9743.65
704.44	9863.02
704.57	9748.33
704.70	9687.48
704.83	9650.03
704.96	9720.24
705.10	9254.48
705.23	9535.34
>>>>>End Processed Spectral Data<<<<<
