SpectraSuite Data File
++++++++++++++++++++++++++++++++++++
Date: Fri Oct 18 13:58:11 GMT-05:00 2013
User: bianchi
Dark Spectrum Present: No
Reference Spectrum Present: No
Number of Sampled Component Spectra: 1
Spectrometers: USB2+H05261
Integration Time (usec): 50000 (USB2+H05261)
Spectra Averaged: 1 (USB2+H05261)
Boxcar Smoothing: 0 (USB2+H05261)
Correct for Electrical Dark: No (USB2+H05261)
Strobe/Lamp Enabled: No (USB2+H05261)
Correct for Detector Non-linearity: No (USB2+H05261)
Correct for Stray Light: No (USB2+H05261)
Number of Pixels in Processed Spectrum: 2048
>>>>>Begin Processed Spectral Data<<<<<
365.73	0.00
365.92	0.00
366.12	0.00
366.32	0.00
366.52	0.00
366.72	0.00
366.91	0.00
367.11	0.00
367.31	0.00
367.51	0.00
367.70	0.00
367.90	0.00
368.10	0.00
368.30	0.00
368.49	0.00
368.69	0.00
368.89	0.00
369.09	0.00
369.28	0.00
369.48	0.00
369.68	0.00
369.87	0.00
370.07	0.00
370.27	0.00
370.47	0.00
370.66	65.54
370.86	74.90
371.06	102.98
371.25	79.58
371.45	138.09
371.65	135.75
371.84	74.90
372.04	231.71
372.24	205.97
372.44	252.78
372.63	194.26
372.83	184.90
373.03	203.63
373.22	191.92
373.42	182.56
373.62	236.39
373.81	184.90
374.01	229.37
374.21	269.16
374.40	212.99
374.60	276.18
374.79	269.16
374.99	299.59
375.19	215.33
375.38	217.67
375.58	180.22
375.78	259.80
375.97	299.59
376.17	269.16
376.37	280.86
376.56	306.61
376.76	177.88
376.95	269.16
377.15	271.50
377.35	339.38
377.54	297.25
377.74	201.29
377.93	243.42
378.13	292.57
378.33	266.82
378.52	292.57
378.72	365.12
378.91	271.50
379.11	290.23
379.31	248.10
379.50	280.86
379.70	390.87
379.89	308.95
380.09	205.97
380.28	325.33
380.48	304.27
380.68	205.97
380.87	346.40
381.07	297.25
381.26	292.57
381.46	320.65
381.65	222.35
381.85	400.23
382.04	334.70
382.24	334.70
382.43	416.62
382.63	313.63
382.83	386.19
383.02	351.08
383.22	383.85
383.41	381.51
383.61	344.06
383.80	374.49
384.00	402.57
384.19	367.46
384.39	330.02
384.58	327.68
384.78	437.68
384.97	430.66
385.17	360.44
385.36	315.97
385.56	411.93
385.75	367.46
385.95	425.98
386.14	397.89
386.34	390.87
386.53	365.12
386.72	409.59
386.92	411.93
387.11	411.93
387.31	491.51
387.50	421.30
387.70	470.45
387.89	461.09
388.09	449.38
388.28	411.93
388.48	421.30
388.67	440.02
388.86	433.00
389.06	479.81
389.25	472.79
389.45	470.45
389.64	435.34
389.84	547.69
390.03	526.62
390.22	524.28
390.42	449.38
390.61	528.96
390.81	514.92
391.00	503.22
391.19	550.03
391.39	496.19
391.58	496.19
391.78	519.60
391.97	526.62
392.16	477.47
392.36	568.75
392.55	547.69
392.75	482.15
392.94	557.05
393.13	559.39
393.33	500.87
393.52	564.07
393.71	622.58
393.91	641.31
394.10	524.28
394.29	709.18
394.49	585.13
394.68	704.50
394.88	620.24
395.07	667.05
395.26	557.05
395.46	629.60
395.65	653.01
395.84	547.69
396.04	688.12
396.23	662.37
396.42	674.07
396.62	650.67
396.81	662.37
397.00	730.25
397.19	645.99
397.39	683.44
397.58	671.73
397.77	692.80
397.97	758.33
398.16	706.84
398.35	751.31
398.55	699.82
398.74	676.41
398.93	685.78
399.12	821.53
399.32	620.24
399.51	685.78
399.70	706.84
399.90	788.76
400.09	767.70
400.28	826.21
400.47	718.54
400.67	753.65
400.86	823.87
401.05	840.25
401.24	807.48
401.44	858.98
401.63	887.06
401.82	868.34
402.01	896.43
402.21	835.57
402.40	882.38
402.59	826.21
402.78	842.59
402.97	802.80
403.17	961.96
403.36	896.43
403.55	905.79
403.74	947.92
403.93	898.77
404.13	976.00
404.32	905.79
404.51	856.64
404.70	903.45
404.89	931.53
405.09	1029.84
405.28	931.53
405.47	1041.54
405.66	1006.43
405.85	957.28
406.05	1034.52
406.24	1004.09
406.43	1039.20
406.62	1036.86
406.81	1036.86
407.00	968.98
407.20	1032.18
407.39	1062.60
407.58	1039.20
407.77	1170.27
407.96	1090.69
408.15	1123.46
408.34	1088.35
408.54	1149.20
408.73	1156.22
408.92	1160.91
409.11	1142.18
409.30	1221.76
409.49	1123.46
409.68	1151.54
409.87	1158.57
410.07	1214.74
410.26	1186.65
410.45	1240.48
410.64	1327.08
410.83	1238.14
411.02	1221.76
411.21	1240.48
411.40	1310.70
411.59	1334.11
411.78	1177.29
411.98	1324.74
412.17	1296.66
412.36	1313.04
412.55	1341.13
412.74	1336.45
412.93	1371.55
413.12	1359.85
413.31	1465.18
413.50	1462.83
413.69	1409.00
413.88	1418.36
414.07	1399.64
414.26	1542.41
414.45	1521.35
414.64	1495.60
414.83	1500.28
415.02	1547.09
415.22	1631.35
415.41	1575.18
415.60	1614.97
415.79	1652.42
415.98	1652.42
416.17	1652.42
416.36	1624.33
416.55	1626.67
416.74	1666.46
416.93	1682.85
417.12	1708.59
417.31	1607.95
417.50	1710.93
417.69	1827.96
417.88	1732.00
418.07	1741.36
418.26	1863.07
418.45	1755.40
418.64	1834.98
418.83	1860.73
419.02	1811.57
419.21	1912.22
419.39	1856.04
419.58	1952.01
419.77	1856.04
419.96	1888.81
420.15	1902.86
420.34	1909.88
420.53	1907.54
420.72	1900.52
420.91	1886.47
421.10	2083.08
421.29	2008.18
421.48	1963.71
421.67	1973.07
421.86	1947.33
422.05	2045.63
422.24	2094.78
422.43	1947.33
422.61	2106.48
422.80	1966.05
422.99	2111.16
423.18	1996.48
423.37	2022.22
423.56	2012.86
423.75	1933.28
423.94	2087.76
424.13	1961.37
424.32	1952.01
424.50	1921.58
424.69	2069.03
424.88	2143.93
425.07	2047.97
425.26	2033.93
425.45	2104.14
425.64	2132.23
425.83	2097.12
426.01	2165.00
426.20	2176.70
426.39	2104.14
426.58	2188.40
426.77	2169.68
426.96	2106.48
427.15	2047.97
427.33	2230.53
427.52	2111.16
427.71	2186.06
427.90	2167.34
428.09	2263.30
428.28	2319.47
428.46	2298.41
428.65	2132.23
428.84	2284.36
429.03	2190.74
429.22	2296.07
429.40	2249.25
429.59	2235.21
429.78	2218.83
429.97	2216.49
430.16	2279.68
430.34	2457.56
430.53	2310.11
430.72	2279.68
430.91	2380.32
431.10	2375.64
431.28	2415.43
431.47	2338.20
431.66	2380.32
431.85	2459.90
432.03	2534.80
432.22	2661.19
432.41	2368.62
432.60	2675.23
432.79	2516.08
432.97	2513.74
433.16	2579.27
433.35	2569.91
433.54	2635.44
433.72	2647.15
433.91	2462.24
434.10	2736.09
434.28	2586.29
434.47	2562.89
434.66	2621.40
434.85	2731.41
435.03	2635.44
435.22	2532.46
435.41	2736.09
435.59	2614.38
435.78	2736.09
435.97	2782.90
436.16	2640.12
436.34	2747.79
436.53	2745.45
436.72	2832.05
436.90	2750.13
437.09	2832.05
437.28	2782.90
437.46	2953.76
437.65	2862.48
437.84	2834.39
438.02	2773.53
438.21	2796.94
438.40	2684.59
438.58	2775.88
438.77	2974.82
438.96	2883.54
439.14	2972.48
439.33	3098.87
439.52	2972.48
439.70	3068.44
439.89	2967.80
440.08	3012.27
440.26	3075.46
440.45	3023.97
440.63	3115.25
440.82	3229.94
441.01	3225.26
441.19	3351.65
441.38	3239.30
441.57	3403.14
441.75	3288.45
441.94	3330.58
442.12	3339.94
442.31	3478.04
442.50	3466.33
442.68	3463.99
442.87	3403.14
443.05	3349.31
443.24	3487.40
443.43	3559.95
443.61	3440.59
443.80	3522.51
443.98	3344.63
444.17	3309.52
444.35	3433.57
444.54	3620.81
444.73	3414.84
444.91	3482.72
445.10	3501.44
445.28	3328.24
445.47	3325.90
445.65	3391.44
445.84	3480.38
446.02	3524.85
446.21	3658.26
446.39	3508.46
446.58	3616.13
446.77	3501.44
446.95	3463.99
447.14	3604.42
447.32	3604.42
447.51	3548.25
447.69	3459.31
447.88	3585.70
448.06	3548.25
448.25	3529.53
448.43	3667.62
448.62	3634.85
448.80	3578.68
448.99	3515.48
449.17	3672.30
449.36	3574.00
449.54	3763.58
449.73	3712.09
449.91	3798.69
450.10	3758.90
450.28	3812.73
450.46	3871.25
450.65	3768.26
450.83	3730.81
451.02	3857.20
451.20	3913.38
451.39	3908.69
451.57	3796.35
451.76	3777.62
451.94	3896.99
452.13	3901.67
452.31	3934.44
452.49	3723.79
452.68	3913.38
452.86	4023.38
453.05	3950.82
453.23	3988.27
453.42	3957.85
453.60	3866.56
453.78	4081.89
453.97	3992.95
454.15	3976.57
454.34	3978.91
454.52	4070.19
454.70	4201.26
454.89	4163.81
455.07	4156.79
455.26	4201.26
455.44	4252.75
455.62	4210.62
455.81	4191.90
455.99	4269.14
456.17	4287.86
456.36	4287.86
456.54	4208.28
456.73	4189.56
456.91	4315.95
457.09	4390.84
457.28	4447.02
457.46	4346.37
457.64	4327.65
457.83	4348.72
458.01	4334.67
458.19	4440.00
458.38	4451.70
458.56	4554.68
458.74	4486.81
458.93	4510.21
459.11	4582.77
459.29	4461.06
459.48	4484.47
459.66	4664.69
459.84	4615.54
460.03	4690.43
460.21	4671.71
460.39	4512.55
460.57	4744.27
460.76	4807.46
460.94	4779.37
461.12	4568.73
461.31	4779.37
461.49	4681.07
461.67	4676.39
461.85	4727.88
462.04	4711.50
462.22	4898.74
462.40	4718.52
462.59	4842.57
462.77	4856.61
462.95	4980.66
463.13	4819.16
463.32	5008.75
463.50	5032.15
463.68	4884.70
463.86	4929.17
464.05	4788.74
464.23	4978.32
464.41	4961.94
464.59	4849.59
464.78	5156.20
464.96	5074.28
465.14	4973.64
465.32	5088.32
465.50	5205.35
465.69	5200.67
465.87	5188.97
466.05	4973.64
466.23	5036.83
466.41	5268.55
466.60	5315.36
466.78	4985.34
466.96	5210.03
467.14	5198.33
467.32	5184.29
467.51	5338.76
467.69	5214.71
467.87	5320.04
468.05	5247.48
468.23	5231.10
468.41	5233.44
468.60	5177.26
468.78	5437.06
468.96	5284.93
469.14	5357.49
469.32	5451.11
469.50	5298.97
469.69	5528.35
469.87	5500.26
470.05	5652.39
470.23	5584.52
470.41	5462.81
470.59	5696.86
470.77	5610.26
470.95	5678.14
471.14	5678.14
471.32	5575.16
471.50	5734.31
471.68	5816.23
471.86	5860.70
472.04	5888.79
472.22	5867.72
472.40	5785.80
472.58	5727.29
472.77	5849.00
472.95	5891.13
473.13	5998.79
473.31	5813.89
473.49	6010.50
473.67	6052.63
473.85	6066.67
474.03	6274.98
474.21	6235.19
474.39	6120.50
474.57	6164.97
474.75	6223.48
474.93	6345.19
475.12	6237.53
475.30	6368.60
475.48	6520.73
475.66	6361.58
475.84	6511.37
476.02	6392.00
476.20	6366.26
476.38	6572.22
476.56	6729.04
476.74	6614.35
476.92	6562.86
477.10	6689.25
477.28	6696.27
477.46	6750.10
477.64	6810.96
477.82	6904.58
478.00	7026.29
478.18	7148.00
478.36	7112.89
478.54	7094.16
478.72	7288.43
478.90	7403.11
479.08	7229.91
479.26	7438.22
479.44	7414.82
479.62	7372.69
479.80	7698.02
479.98	7534.18
480.16	7644.19
480.34	7674.62
480.52	7805.69
480.70	7824.41
480.88	7843.14
481.06	7770.58
481.24	7775.26
481.41	7915.69
481.59	8313.58
481.77	8142.72
481.95	8212.94
482.13	8217.62
482.31	8208.26
482.49	8351.03
482.67	8229.32
482.85	8486.78
483.03	8704.45
483.21	8688.07
483.39	8575.72
483.57	8681.05
483.74	8912.76
483.92	8917.44
484.10	8861.27
484.28	9090.64
484.46	9078.94
484.64	9355.12
484.82	9156.18
485.00	9324.69
485.18	9472.15
485.35	9701.52
485.53	9738.97
485.71	9748.33
485.89	9961.32
486.07	9654.71
486.25	9778.76
486.43	9792.80
486.61	10047.92
486.78	10033.88
486.96	10197.71
487.14	10303.04
487.32	10478.58
487.50	10265.59
487.68	10527.73
487.85	10658.80
488.03	10600.29
488.21	10974.77
488.39	10677.52
488.57	10874.13
488.75	10794.55
488.92	10934.98
489.10	11332.87
489.28	11035.63
489.46	11314.15
489.64	11246.27
489.81	11489.69
489.99	11517.78
490.17	11679.27
490.35	11665.23
490.53	11772.89
490.70	11669.91
490.88	11508.41
491.06	12074.82
491.24	12009.29
491.41	12098.23
491.59	12271.43
491.77	12142.70
491.95	12601.44
492.13	12231.64
492.30	12681.02
492.48	12723.15
492.66	12556.97
492.84	12671.66
493.01	12901.03
493.19	12994.65
493.37	13067.21
493.54	13050.83
493.72	13018.06
493.90	13041.46
494.08	13341.05
494.25	13448.72
494.43	13364.46
494.61	13497.87
494.79	13591.49
494.96	13837.25
495.14	13549.36
495.32	13954.27
495.49	13827.88
495.67	14216.41
495.85	14134.50
496.02	14251.52
496.20	14260.88
496.38	14417.70
496.55	14256.20
496.73	14576.86
496.91	14483.24
497.09	14403.66
497.26	14911.55
497.44	14745.38
497.62	14792.19
497.79	14693.88
497.97	14939.64
498.14	15199.44
498.32	15283.70
498.50	15190.08
498.67	15255.61
498.85	15288.38
499.03	15515.41
499.20	15456.90
499.38	15351.57
499.56	15536.48
499.73	15824.36
499.91	15815.00
500.08	15665.21
500.26	15707.34
500.44	15723.72
500.61	15906.28
500.79	15962.45
500.97	15882.88
501.14	16198.85
501.32	16290.13
501.49	16304.17
501.67	16065.44
501.84	16393.11
502.02	16552.27
502.20	16430.56
502.37	16587.38
502.55	16589.72
502.72	16517.16
502.90	16669.30
503.07	16552.27
503.25	16755.90
503.43	16673.98
503.60	17020.38
503.78	16821.43
503.95	17092.93
504.13	17027.40
504.30	17076.55
504.48	16966.54
504.65	17401.88
504.83	17345.71
505.01	17422.95
505.18	17392.52
505.36	17530.61
505.53	17387.84
505.71	17624.23
505.88	17715.51
506.06	17724.88
506.23	17816.16
506.41	17830.20
506.58	17926.16
506.76	17907.44
506.93	17689.77
507.11	18019.78
507.28	17776.37
507.46	18111.07
507.63	18082.98
507.81	18265.54
507.98	18216.39
508.16	18623.64
508.33	18424.70
508.50	18253.84
508.68	18508.96
508.85	18588.53
509.03	18644.71
509.20	18728.97
509.38	18602.58
509.55	18757.05
509.73	18682.16
509.90	18721.95
510.08	19000.47
510.25	18822.59
510.42	19049.62
510.60	19426.45
510.77	19073.03
510.95	19433.47
511.12	18902.17
511.30	19140.90
511.47	19253.25
511.64	19271.97
511.82	19515.39
511.99	19197.07
512.17	19417.08
512.34	19424.11
512.51	19667.52
512.69	19754.12
512.86	19637.09
513.04	20046.69
513.21	19812.63
513.38	20276.06
513.56	19974.13
513.73	19988.18
513.90	19955.41
514.08	19812.63
514.25	20116.90
514.43	20194.14
514.60	20652.89
514.77	20505.43
514.95	20365.00
515.12	20278.40
515.29	20343.94
515.47	20479.69
515.64	20779.28
515.81	20336.91
515.99	20547.56
516.16	20643.52
516.33	20669.27
516.51	20613.10
516.68	20587.35
516.85	20463.30
517.03	20781.62
517.20	20980.56
517.37	21092.91
517.54	20996.95
517.72	21111.63
517.89	21102.27
518.06	21240.36
518.24	21135.04
518.41	21350.37
518.58	21549.31
518.75	21282.49
518.93	21516.54
519.10	21406.54
519.27	21338.66
519.45	21549.31
519.62	21579.74
519.79	21446.33
519.96	21699.11
520.14	21420.58
520.31	21490.80
520.48	21715.49
520.65	21872.31
520.83	21933.16
521.00	21834.86
521.17	21813.79
521.34	21757.62
521.52	21895.71
521.69	22214.02
521.86	22377.86
522.03	22431.69
522.20	22609.58
522.38	22101.68
522.55	22167.21
522.72	22223.39
522.89	22497.23
523.07	22424.67
523.24	22539.36
523.41	22658.73
523.58	22434.03
523.75	22640.00
523.92	22710.22
524.10	23012.15
524.27	22984.06
524.44	22527.66
524.61	23213.43
524.78	23058.96
524.96	23091.73
525.13	22806.18
525.30	22991.08
525.47	23274.29
525.64	23208.75
525.81	23208.75
525.98	23391.31
526.16	23566.85
526.33	23445.15
526.50	23541.11
526.67	23250.88
526.84	23513.02
527.01	23431.10
527.18	23187.69
527.36	23836.02
527.53	23346.84
527.70	23960.06
527.87	23976.45
528.04	23985.81
528.21	23714.31
528.38	24041.98
528.55	23861.76
528.72	23449.83
528.89	24189.44
529.07	24114.54
529.24	23946.02
529.41	24077.09
529.58	24226.89
529.75	23990.49
529.92	24053.69
530.09	24023.26
530.26	24086.45
530.43	24154.33
530.60	24189.44
530.77	24428.17
530.94	24341.57
531.11	24257.31
531.28	24449.24
531.46	24561.58
531.63	24659.88
531.80	24664.57
531.97	24549.88
532.14	24912.66
532.31	24584.99
532.48	24800.32
532.65	24910.32
532.82	24709.04
532.99	24774.57
533.16	25076.50
533.33	24961.81
533.50	25158.42
533.67	25076.50
533.84	24886.92
534.01	24613.07
534.18	24950.11
534.35	25226.29
534.52	24938.41
534.69	25497.80
534.86	25785.68
535.03	25090.54
535.20	25378.43
535.37	25465.03
535.54	25242.68
535.71	25174.80
535.88	25411.20
536.05	25238.00
536.22	25575.03
536.38	25516.52
536.55	25841.85
536.72	26003.35
536.89	25706.10
537.06	25764.62
537.23	25851.22
537.40	25783.34
537.57	25671.00
537.74	26150.81
537.91	26003.35
538.08	26096.97
538.25	25811.43
538.42	26111.02
538.59	25860.58
538.75	25549.29
538.92	25900.37
539.09	25851.22
539.26	26206.98
539.43	26127.40
539.60	26354.43
539.77	26221.02
539.94	26256.13
540.11	26342.73
540.28	26544.02
540.44	26134.42
540.61	26328.69
540.78	26281.88
540.95	26583.80
541.12	26398.90
541.29	26422.31
541.46	26593.17
541.62	26387.20
541.79	26717.22
541.96	26108.68
542.13	26216.34
542.30	26579.12
542.47	26700.83
542.63	26679.77
542.80	26836.58
542.97	27105.74
543.14	26871.69
543.31	26426.99
543.48	26988.72
543.64	27292.99
543.81	27033.19
543.98	27248.52
544.15	27374.91
544.32	27260.22
544.48	27318.73
544.65	27246.18
544.82	27531.72
544.99	26888.07
545.16	27374.91
545.32	27147.87
545.49	27882.80
545.66	27718.96
545.83	27674.49
546.00	27693.22
546.16	27433.42
546.33	27480.23
546.50	27405.33
546.67	27510.66
546.83	27363.20
547.00	27749.39
547.17	27758.75
547.34	27683.86
547.50	27646.41
547.67	28025.57
547.84	27337.46
548.00	27740.03
548.17	27913.23
548.34	27971.74
548.51	27718.96
548.67	27779.82
548.84	27718.96
549.01	28133.24
549.18	27873.44
549.34	28156.64
549.51	28144.94
549.68	28231.54
549.84	27852.38
550.01	28219.84
550.18	28222.18
550.34	28142.60
550.51	28238.56
550.68	28175.37
550.84	28098.13
551.01	28116.86
551.18	27796.20
551.34	27817.27
551.51	28254.95
551.68	28519.43
551.84	28414.10
552.01	28350.91
552.18	28472.62
552.34	28292.40
552.51	28608.37
552.68	28795.61
552.84	28545.17
553.01	28896.25
553.18	28889.23
553.34	28730.08
553.51	28634.11
553.67	28751.14
553.84	28830.72
554.01	28795.61
554.17	28716.03
554.34	28809.65
554.51	28718.37
554.67	28767.52
554.84	28842.42
555.00	29069.45
555.17	28739.44
555.33	29219.25
555.50	28517.09
555.67	29057.75
555.83	28730.08
556.00	29165.42
556.16	29076.48
556.33	29034.35
556.50	29235.63
556.66	29249.67
556.83	29465.00
556.99	29198.18
557.16	29476.71
557.32	29413.51
557.49	29373.72
557.65	29331.59
557.82	28847.10
557.98	29305.85
558.15	29097.54
558.32	29340.96
558.48	29165.42
558.65	29685.01
558.81	29549.26
558.98	29188.82
559.14	29270.74
559.31	29099.88
559.47	29244.99
559.64	29244.99
559.80	29504.79
559.97	29596.07
560.13	29296.49
560.30	29577.35
560.46	29560.97
560.63	29406.49
560.79	29544.58
560.96	29682.67
561.12	29802.04
561.29	29392.45
561.45	29549.26
561.61	29338.62
561.78	29537.56
561.94	29401.81
562.11	29677.99
562.27	30005.67
562.44	29586.71
562.60	29706.08
562.77	29605.44
562.93	30000.99
563.10	29837.15
563.26	29535.22
563.42	29867.58
563.59	29958.86
563.75	29666.29
563.92	29820.77
564.08	29764.59
564.24	30017.37
564.41	29832.47
564.57	29710.76
564.74	29788.00
564.90	30232.70
565.07	29788.00
565.23	30211.64
565.39	29816.08
565.56	30015.03
565.72	29837.15
565.88	30110.99
566.05	29872.26
566.21	30026.73
566.38	29979.92
566.54	29769.27
566.70	30043.12
566.87	30132.06
567.03	30213.98
567.19	30291.21
567.36	30466.75
567.52	30089.93
567.68	30221.00
567.85	29872.26
568.01	30328.66
568.17	29963.54
568.34	30485.48
568.50	30185.89
568.66	30223.34
568.83	30199.93
568.99	30256.11
569.15	30328.66
569.32	30424.62
569.48	30052.48
569.64	30094.61
569.81	30232.70
569.97	29993.97
570.13	29921.41
570.30	30314.62
570.46	30235.04
570.62	30387.18
570.78	30239.72
570.95	30401.22
571.11	30506.54
571.27	29993.97
571.43	30558.03
571.60	30293.55
571.76	30354.41
571.92	30462.07
572.09	30710.17
572.25	30342.70
572.41	30635.27
572.57	30614.21
572.74	30742.94
572.90	30417.60
573.06	30246.74
573.22	30490.16
573.38	30204.61
573.55	30373.13
573.71	30768.68
573.87	30724.21
574.03	30644.63
574.20	30738.26
574.36	30321.64
574.52	30632.93
574.68	30302.92
574.84	30661.02
575.01	30373.13
575.17	30450.37
575.33	30361.43
575.49	30799.11
575.65	30597.82
575.82	30749.96
575.98	30462.07
576.14	30913.80
576.30	30298.23
576.46	30543.99
576.62	30609.53
576.79	30101.63
576.95	30714.85
577.11	30485.48
577.27	30394.20
577.43	31122.10
577.59	30663.36
577.75	30754.64
577.92	30654.00
578.08	30508.88
578.24	30600.16
578.40	30604.84
578.56	30455.05
578.72	30401.22
578.88	30724.21
579.04	31049.55
579.21	30698.47
579.37	30515.90
579.53	30834.22
579.69	30623.57
579.85	30331.00
580.01	30714.85
580.17	30464.41
580.33	30689.10
580.49	30979.33
580.65	31084.65
580.82	30504.20
580.98	30679.74
581.14	31016.78
581.30	31136.15
581.46	30445.69
581.62	30618.89
581.78	30923.16
581.94	30787.41
582.10	30785.07
582.26	30782.73
582.42	30712.51
582.58	30874.01
582.74	30913.80
582.90	30689.10
583.06	31131.47
583.22	30518.25
583.38	30759.32
583.54	30871.67
583.70	30565.06
583.86	30817.83
584.02	30651.66
584.18	31377.22
584.34	30740.60
584.50	31084.65
584.66	30899.75
584.82	30569.74
584.98	30623.57
585.14	30754.64
585.30	30352.07
585.46	30529.95
585.62	30796.77
585.78	30995.71
585.94	30616.55
586.10	30885.71
586.26	30778.04
586.42	31316.37
586.58	31096.36
586.74	31136.15
586.90	30597.82
587.06	30642.29
587.22	30991.03
587.38	30480.80
587.54	30747.62
587.70	31077.63
587.86	31152.53
588.02	31566.81
588.18	31440.42
588.34	31154.87
588.49	31012.10
588.65	30972.31
588.81	31154.87
588.97	30728.89
589.13	30684.42
589.29	30899.75
589.45	30932.52
589.61	31187.64
589.77	31571.49
589.93	31358.50
590.08	31299.98
590.24	31159.55
590.40	31187.64
590.56	31101.04
590.72	31140.83
590.88	30553.35
591.04	31344.45
591.20	31377.22
591.35	31466.16
591.51	31613.62
591.67	31594.89
591.83	31363.18
591.99	31063.59
592.15	31512.97
592.31	31353.82
592.46	31239.13
592.62	31316.37
592.78	31367.86
592.94	31367.86
593.10	31388.92
593.26	31653.40
593.41	31421.69
593.57	31440.42
593.73	31281.26
593.89	31845.33
594.05	31206.36
594.20	31601.91
594.36	31482.55
594.52	30962.95
594.68	31063.59
594.84	30902.09
594.99	31498.93
595.15	31377.22
595.31	31587.87
595.47	31145.51
595.62	31414.67
595.78	31318.71
595.94	31524.68
596.10	31438.08
596.25	31199.34
596.41	31222.75
596.57	31470.84
596.73	31072.95
596.88	31339.77
597.04	31831.29
597.20	31438.08
597.36	31807.88
597.51	31648.72
597.67	30969.97
597.83	31379.56
597.99	31377.22
598.14	31370.20
598.30	31356.16
598.46	31360.84
598.61	31828.95
598.77	31625.32
598.93	31674.47
599.09	31538.72
599.24	31819.58
599.40	31714.26
599.56	31910.86
599.71	31559.78
599.87	31571.49
600.03	31365.52
600.18	31494.25
600.34	31543.40
600.50	31475.52
600.65	31480.21
600.81	31871.07
600.97	31655.75
601.12	32184.71
601.28	31501.27
601.44	31672.13
601.59	31873.42
601.75	31693.19
601.91	31218.07
602.06	31299.98
602.22	31381.90
602.37	31290.62
602.53	31552.76
602.69	31597.23
602.84	31070.61
603.00	31491.91
603.16	31997.46
603.31	31831.29
603.47	31351.48
603.62	31194.66
603.78	31358.50
603.94	31402.97
604.09	31487.23
604.25	31388.92
604.40	31655.75
604.56	31105.72
604.71	31515.31
604.87	31267.22
605.03	31754.05
605.18	31688.51
605.34	31850.01
605.49	31239.13
605.65	31531.70
605.80	31171.25
605.96	31365.52
606.12	31213.38
606.27	31332.75
606.43	31615.96
606.58	31693.19
606.74	31531.70
606.89	31686.17
607.05	31721.28
607.20	31967.04
607.36	31517.65
607.51	31861.71
607.67	31318.71
607.82	30941.88
607.98	31400.63
608.13	31337.43
608.29	31550.42
608.44	31487.23
608.60	31131.47
608.75	31604.25
608.91	31442.76
609.06	31199.34
609.22	31768.09
609.37	31187.64
609.53	31297.64
609.68	31175.94
609.84	30991.03
609.99	31335.09
610.15	31260.20
610.30	30902.09
610.46	31124.44
610.61	31328.07
610.76	31630.00
610.92	31192.32
611.07	31063.59
611.23	30955.93
611.38	31094.02
611.54	30876.35
611.69	30918.48
611.84	31131.47
612.00	31197.00
612.15	30862.30
612.31	31234.45
612.46	30941.88
612.62	31147.85
612.77	31299.98
612.92	31299.98
613.08	31234.45
613.23	31168.91
613.39	31026.14
613.54	30691.44
613.69	31171.25
613.85	30930.18
614.00	30979.33
614.15	31014.44
614.31	31012.10
614.46	31164.23
614.62	30787.41
614.77	31161.89
614.92	31110.40
615.08	30904.43
615.23	31051.89
615.38	30717.19
615.54	30749.96
615.69	30862.30
615.84	30555.69
616.00	30417.60
616.15	30848.26
616.30	30984.01
616.46	30857.62
616.61	30953.58
616.76	30862.30
616.92	30525.27
617.07	30918.48
617.22	30794.43
617.37	30749.96
617.53	30628.25
617.68	30665.70
617.83	30546.33
617.99	30511.22
618.14	30899.75
618.29	30375.47
618.45	30497.18
618.60	30658.68
618.75	30316.96
618.90	30455.05
619.06	30651.66
619.21	30352.07
619.36	30492.50
619.51	29998.65
619.67	30431.65
619.82	30288.87
619.97	29935.45
620.12	30239.72
620.28	30153.12
620.43	30689.10
620.58	30714.85
620.73	30609.53
620.89	30773.36
621.04	30455.05
621.19	30487.82
621.34	30272.49
621.49	30171.85
621.65	30316.96
621.80	30075.88
621.95	30384.83
622.10	30106.31
622.25	30092.27
622.41	30113.33
622.56	30232.70
622.71	30391.86
622.86	29666.29
623.01	30043.12
623.16	30059.50
623.32	30089.93
623.47	30279.51
623.62	30047.80
623.77	29893.32
623.92	30155.46
624.07	29869.92
624.23	29912.05
624.38	29919.07
624.53	29804.38
624.68	30169.51
624.83	29933.11
624.98	30050.14
625.13	30078.22
625.29	30026.73
625.44	29736.51
625.59	29706.08
625.74	29542.24
625.89	29373.72
626.04	29762.25
626.19	29577.35
626.34	29273.08
626.49	29280.10
626.65	29273.08
626.80	29848.85
626.95	29582.03
627.10	29736.51
627.25	29717.78
627.40	29270.74
627.55	29369.04
627.70	29427.56
627.85	29486.07
628.00	29593.73
628.15	29186.48
628.30	29160.73
628.45	29303.51
628.60	29390.11
628.76	29378.40
628.91	29530.54
629.06	29457.98
629.21	29392.45
629.36	29495.43
629.51	29347.98
629.66	29359.68
629.81	29142.01
629.96	29062.43
630.11	28973.49
630.26	29057.75
630.41	28882.21
630.56	28978.17
630.71	29364.36
630.86	28959.45
631.01	29130.31
631.16	29118.60
631.31	29277.76
631.46	28926.68
631.61	28959.45
631.76	28898.59
631.91	29085.84
632.06	29085.84
632.21	28985.19
632.36	28837.74
632.51	28992.22
632.66	28987.53
632.81	28884.55
632.96	28938.38
633.10	28861.15
633.25	28716.03
633.40	28961.79
633.55	29209.89
633.70	28713.69
633.85	28772.21
634.00	28589.64
634.15	28914.98
634.30	28650.50
634.45	28659.86
634.60	28615.39
634.75	28493.68
634.90	28283.03
635.05	28886.89
635.19	28383.68
635.34	29032.00
635.49	28584.96
635.64	28498.36
635.79	28617.73
635.94	28201.11
636.09	28355.59
636.24	28449.21
636.39	28425.81
636.53	28615.39
636.68	28465.60
636.83	28063.02
636.98	28575.60
637.13	28297.08
637.28	28472.62
637.43	28404.74
637.57	28409.42
637.72	28451.55
637.87	28545.17
638.02	28388.36
638.17	28158.99
638.32	28198.77
638.46	27915.57
638.61	28025.57
638.76	27962.38
638.91	28004.51
639.06	28552.20
639.20	28158.99
639.35	28484.32
639.50	28304.10
639.65	28596.67
639.80	28545.17
639.94	28034.94
640.09	28418.78
640.24	28273.67
640.39	27885.14
640.54	27751.73
640.68	27789.18
640.83	27789.18
640.98	27630.02
641.13	27740.03
641.27	27971.74
641.42	27707.26
641.57	27594.92
641.72	27873.44
641.86	27367.88
642.01	27941.32
642.16	27620.66
642.31	27660.45
642.45	28149.62
642.60	27606.62
642.75	27653.43
642.90	27372.57
643.04	27718.96
643.19	27363.20
643.34	27555.13
643.48	27522.36
643.63	27810.25
643.78	27833.65
643.93	27798.54
644.07	27875.78
644.22	27697.90
644.37	27693.22
644.51	27903.87
644.66	27463.85
644.81	27412.35
644.95	27410.01
645.10	27246.18
645.25	27508.32
645.39	27466.19
645.54	27498.95
645.69	27372.57
645.83	27562.15
645.98	27328.10
646.13	27433.42
646.27	27761.09
646.42	27267.24
646.57	27285.97
646.71	27136.17
646.86	27030.85
647.00	27489.59
647.15	27138.51
647.30	26899.78
647.44	27040.21
647.59	26874.03
647.74	26789.77
647.88	27278.94
648.03	27351.50
648.17	27524.70
648.32	27138.51
648.47	27662.79
648.61	26890.41
648.76	27325.75
648.90	27323.41
649.05	27381.93
649.20	27182.98
649.34	26569.76
649.49	26689.13
649.63	26799.13
649.78	26883.39
649.92	26782.75
650.07	27157.24
650.21	26630.62
650.36	26979.36
650.51	26518.27
650.65	27021.48
650.80	27063.61
650.94	26382.52
651.09	26672.74
651.23	26700.83
651.38	26728.92
651.52	26682.11
651.67	26618.91
651.81	26824.88
651.96	26691.47
652.10	27030.85
652.25	26621.25
652.39	26740.62
652.54	26731.26
652.68	26590.83
652.83	26871.69
652.97	26962.97
653.12	26106.34
653.26	26637.64
653.41	26740.62
653.55	26501.89
653.70	26398.90
653.84	26618.91
653.99	26384.86
654.13	26595.51
654.27	26352.09
654.42	26546.36
654.56	26361.45
654.71	26682.11
654.85	26651.68
655.00	26562.74
655.14	26710.19
655.29	26380.18
655.43	26403.58
655.57	26115.70
655.72	26410.60
655.86	26368.48
656.01	26033.78
656.15	26040.80
656.30	26122.72
656.44	26087.61
656.58	26111.02
656.73	26040.80
656.87	26436.35
657.01	25652.27
657.16	25905.05
657.30	26125.06
657.45	26094.63
657.59	25930.80
657.73	26211.66
657.88	26073.57
658.02	25792.70
658.16	25993.99
658.31	25827.81
658.45	25820.79
658.60	25642.91
658.74	25776.32
658.88	25472.05
659.03	25895.69
659.17	25708.44
659.31	25865.26
659.46	25558.65
659.60	25912.07
659.74	25696.74
659.89	25511.84
660.03	25645.25
660.17	25488.43
660.32	25788.02
660.46	25282.47
660.60	25385.45
660.74	25127.99
660.89	25259.06
661.03	25373.75
661.17	25305.87
661.32	24989.90
661.46	25507.16
661.60	25240.34
661.74	25436.94
661.89	25132.67
662.03	25275.45
662.17	25223.95
662.31	24936.07
662.46	25394.81
662.60	25230.98
662.74	24957.13
662.88	25165.44
663.03	24472.64
663.17	24645.84
663.31	24711.38
663.45	24851.81
663.60	24634.14
663.74	24479.66
663.88	24379.02
664.02	24718.40
664.17	24919.68
664.31	24694.99
664.45	24741.80
664.59	24694.99
664.73	24641.16
664.88	24517.11
665.02	24547.54
665.16	24535.84
665.30	24308.80
665.44	24290.08
665.59	23929.64
665.73	24325.19
665.87	23915.59
666.01	24013.90
666.15	24315.83
666.29	24278.38
666.44	24301.78
666.58	24027.94
666.72	24196.46
666.86	24215.18
667.00	24208.16
667.14	23864.10
667.28	23910.91
667.43	23807.93
667.57	23791.55
667.71	23997.51
667.85	23721.33
667.99	23782.18
668.13	23695.58
668.27	23686.22
668.41	23587.92
668.56	23365.57
668.70	23852.40
668.84	23796.23
668.98	23623.03
669.12	23754.10
669.26	23508.34
669.40	23498.98
669.54	23314.08
669.68	23391.31
669.82	23175.98
669.96	23372.59
670.10	22733.62
670.25	23297.69
670.39	23220.45
670.53	23161.94
670.67	23098.75
670.81	22986.40
670.95	23124.49
671.09	23276.63
671.23	23136.20
671.37	23206.41
671.51	22883.42
671.65	22750.01
671.79	22803.84
671.93	23065.98
672.07	22761.71
672.21	22717.24
672.35	22345.09
672.49	22728.94
672.63	22630.64
672.77	22162.53
672.91	22466.80
673.05	22324.03
673.19	22647.02
673.33	22515.95
673.47	22686.81
673.61	22483.19
673.75	22373.18
673.89	22347.44
674.03	22408.29
674.17	21879.33
674.31	22188.28
674.45	22010.40
674.59	22178.92
674.73	21771.66
674.87	21664.00
675.01	21680.38
675.15	21575.06
675.29	21603.14
675.43	21575.06
675.56	21734.21
675.70	21654.64
675.84	21633.57
675.98	21240.36
676.12	21633.57
676.26	21675.70
676.40	21649.96
676.54	21734.21
676.68	21462.71
676.82	21020.35
676.96	21029.71
677.10	20774.60
677.23	20842.47
677.37	20816.72
677.51	21015.67
677.65	20680.97
677.79	20833.11
677.93	20566.29
678.07	20849.49
678.21	20666.93
678.34	20503.09
678.48	20709.06
678.62	20379.04
678.76	20423.51
678.90	20224.57
679.04	20304.15
679.18	20573.31
679.31	20013.92
679.45	19988.18
679.59	19917.96
679.73	19831.36
679.87	19693.27
680.00	19484.96
680.14	19953.07
680.28	19651.14
680.42	19529.43
680.56	19824.34
680.70	19726.04
680.83	19761.14
680.97	19463.90
681.11	19470.92
681.25	19262.61
681.39	19517.73
681.52	19197.07
681.66	19213.46
681.80	18981.74
681.94	19119.84
682.07	19035.58
682.21	18939.62
682.35	18750.03
682.49	18838.97
682.62	18834.29
682.76	18651.73
682.90	18874.08
683.04	18614.28
683.17	18602.58
683.31	18649.39
683.45	18850.67
683.59	18588.53
683.72	18600.24
683.86	18494.91
684.00	18675.13
684.13	17937.87
684.27	18221.07
684.41	18090.00
684.55	17937.87
684.68	18099.36
684.82	17645.30
684.96	17937.87
685.09	17928.50
685.23	17535.29
685.37	17661.68
685.50	17987.02
685.64	17523.59
685.78	17820.84
685.91	17825.52
686.05	17764.67
686.19	17462.74
686.32	17436.99
686.46	17116.34
686.60	17151.45
686.73	17331.67
686.87	17048.46
687.01	17053.14
687.14	16833.13
687.28	16891.65
687.42	16844.84
687.55	16439.92
687.69	16692.70
687.82	16926.75
687.96	16805.05
688.10	16432.90
688.23	16437.58
688.37	16570.99
688.50	16517.16
688.64	16503.12
688.78	16418.86
688.91	16182.46
689.05	16563.97
689.18	15957.77
689.32	15796.28
689.46	15941.39
689.59	16025.65
689.73	16130.97
689.86	15651.16
690.00	15599.67
690.13	15599.67
690.27	15908.62
690.41	15985.86
690.54	15634.78
690.68	15527.11
690.81	15697.97
690.95	15634.78
691.08	15679.25
691.22	15641.80
691.35	15260.29
691.49	15393.70
691.62	15260.29
691.76	15290.72
691.89	15152.63
692.03	14979.43
692.16	14693.88
692.30	14927.94
692.43	14810.91
692.57	15047.30
692.70	14885.81
692.84	14712.61
692.97	14740.69
693.11	14654.09
693.24	14707.93
693.38	14548.77
693.51	14406.00
693.65	14455.15
693.78	14558.13
693.92	14494.94
694.05	14445.79
694.19	14078.32
694.32	14265.57
694.45	14066.62
694.59	13760.01
694.72	14043.21
694.86	13554.04
694.99	13575.11
695.13	13769.37
695.26	13631.28
695.39	13734.26
695.53	13638.30
695.66	13998.74
695.80	13554.04
695.93	13446.38
696.07	13657.03
696.20	13469.78
696.33	13495.53
696.47	13301.26
696.60	13280.20
696.73	13078.91
696.87	13118.70
697.00	12910.40
697.14	12833.16
697.27	12807.41
697.40	12978.27
697.54	12564.00
697.67	12954.87
697.80	12774.64
697.94	12697.41
698.07	12669.32
698.21	12552.29
698.34	12645.91
698.47	12634.21
698.61	12379.09
698.74	12358.03
698.87	12580.38
699.01	12222.28
699.14	12491.44
699.27	12194.19
699.40	11985.88
699.54	12149.72
699.67	11894.60
699.80	12149.72
699.94	11925.03
700.07	11838.43
700.20	11660.55
700.34	11510.75
700.47	11639.48
700.60	11859.49
700.73	11784.60
700.87	11485.01
701.00	11604.38
701.13	11428.84
701.26	11499.05
701.40	11529.48
701.53	11389.05
701.66	11662.89
701.79	11325.85
701.93	11180.74
702.06	11370.32
702.19	11087.12
702.32	11239.25
702.46	11030.94
702.59	11084.78
702.72	10846.04
702.85	10839.02
702.99	10904.56
703.12	10717.31
703.25	10803.91
703.38	11037.97
703.51	10703.27
703.65	10558.16
703.78	10614.33
703.91	10490.28
704.04	10654.12
704.17	10656.46
704.31	10106.43
704.44	10553.48
704.57	10237.50
704.70	10281.97
704.83	10094.73
704.96	10193.03
705.10	10085.37
705.23	10092.39
>>>>>End Processed Spectral Data<<<<<
