SpectraSuite Data File
++++++++++++++++++++++++++++++++++++
Date: Fri Oct 18 13:57:55 GMT-05:00 2013
User: bianchi
Dark Spectrum Present: No
Reference Spectrum Present: No
Number of Sampled Component Spectra: 1
Spectrometers: USB2+H05261
Integration Time (usec): 50000 (USB2+H05261)
Spectra Averaged: 1 (USB2+H05261)
Boxcar Smoothing: 0 (USB2+H05261)
Correct for Electrical Dark: No (USB2+H05261)
Strobe/Lamp Enabled: No (USB2+H05261)
Correct for Detector Non-linearity: No (USB2+H05261)
Correct for Stray Light: No (USB2+H05261)
Number of Pixels in Processed Spectrum: 2048
>>>>>Begin Processed Spectral Data<<<<<
365.73	0.00
365.92	0.00
366.12	0.00
366.32	0.00
366.52	0.00
366.72	0.00
366.91	0.00
367.11	0.00
367.31	0.00
367.51	0.00
367.70	0.00
367.90	0.00
368.10	0.00
368.30	0.00
368.49	0.00
368.69	0.00
368.89	0.00
369.09	0.00
369.28	0.00
369.48	0.00
369.68	0.00
369.87	0.00
370.07	0.00
370.27	0.00
370.47	0.00
370.66	105.32
370.86	131.07
371.06	91.28
371.25	110.01
371.45	91.28
371.65	100.64
371.84	133.41
372.04	156.82
372.24	208.31
372.44	131.07
372.63	203.63
372.83	250.44
373.03	257.46
373.22	201.29
373.42	145.11
373.62	201.29
373.81	170.86
374.01	189.58
374.21	285.55
374.40	259.80
374.60	304.27
374.79	205.97
374.99	311.29
375.19	257.46
375.38	259.80
375.58	299.59
375.78	250.44
375.97	259.80
376.17	297.25
376.37	276.18
376.56	287.89
376.76	255.12
376.95	313.63
377.15	297.25
377.35	285.55
377.54	229.37
377.74	271.50
377.93	278.52
378.13	266.82
378.33	320.65
378.52	271.50
378.72	215.33
378.91	322.99
379.11	332.36
379.31	304.27
379.50	227.03
379.70	397.89
379.89	285.55
380.09	241.08
380.28	339.38
380.48	294.91
380.68	287.89
380.87	276.18
381.07	297.25
381.26	315.97
381.46	257.46
381.65	294.91
381.85	339.38
382.04	292.57
382.24	397.89
382.43	322.99
382.63	348.74
382.83	313.63
383.02	360.44
383.22	444.70
383.41	362.78
383.61	362.78
383.80	411.93
384.00	346.40
384.19	414.27
384.39	437.68
384.58	407.25
384.78	414.27
384.97	393.21
385.17	365.12
385.36	395.55
385.56	322.99
385.75	325.33
385.95	440.02
386.14	351.08
386.34	437.68
386.53	421.30
386.72	503.22
386.92	493.85
387.11	430.66
387.31	376.83
387.50	379.17
387.70	402.57
387.89	500.87
388.09	397.89
388.28	503.22
388.48	470.45
388.67	528.96
388.86	447.04
389.06	442.36
389.25	482.15
389.45	423.64
389.64	456.40
389.84	496.19
390.03	552.37
390.22	535.98
390.42	442.36
390.61	468.11
390.81	533.64
391.00	533.64
391.19	594.50
391.39	580.45
391.58	533.64
391.78	599.18
391.97	521.94
392.16	554.71
392.36	526.62
392.55	531.30
392.75	510.24
392.94	589.82
393.13	631.94
393.33	571.09
393.52	634.29
393.71	571.09
393.91	528.96
394.10	641.31
394.29	704.50
394.49	648.33
394.68	664.71
394.88	624.92
395.07	554.71
395.26	645.99
395.46	617.90
395.65	676.41
395.84	613.22
396.04	634.29
396.23	739.61
396.42	725.57
396.62	702.16
396.81	603.86
397.00	554.71
397.19	594.50
397.39	734.93
397.58	748.97
397.77	648.33
397.97	765.36
398.16	746.63
398.35	739.61
398.55	774.72
398.74	746.63
398.93	737.27
399.12	765.36
399.32	704.50
399.51	720.88
399.70	727.91
399.90	812.17
400.09	737.27
400.28	835.57
400.47	786.42
400.67	861.32
400.86	854.30
401.05	823.87
401.24	793.44
401.44	711.52
401.63	826.21
401.82	919.83
402.01	774.72
402.21	884.72
402.40	866.00
402.59	765.36
402.78	894.08
402.97	861.32
403.17	940.90
403.36	1041.54
403.55	877.70
403.74	912.81
403.93	884.72
404.13	938.55
404.32	931.53
404.51	968.98
404.70	917.49
404.89	1036.86
405.09	1036.86
405.28	889.40
405.47	999.41
405.66	1071.97
405.85	983.02
406.05	1018.13
406.24	994.73
406.43	1029.84
406.62	1062.60
406.81	1156.22
407.00	1170.27
407.20	1008.77
407.39	1128.14
407.58	1071.97
407.77	1097.71
407.96	1090.69
408.15	1125.80
408.34	1090.69
408.54	1177.29
408.73	1088.35
408.92	1174.95
409.11	1179.63
409.30	1193.67
409.49	1233.46
409.68	1181.97
409.87	1219.42
410.07	1284.95
410.26	1163.25
410.45	1256.87
410.64	1196.01
410.83	1196.01
411.02	1291.98
411.21	1378.58
411.40	1317.72
411.59	1217.08
411.78	1373.89
411.98	1390.28
412.17	1322.40
412.36	1313.04
412.55	1411.34
412.74	1371.55
412.93	1427.73
413.12	1430.07
413.31	1397.30
413.50	1462.83
413.69	1465.18
413.88	1549.43
414.07	1462.83
414.26	1479.22
414.45	1483.90
414.64	1401.98
414.83	1614.97
415.02	1460.49
415.22	1530.71
415.41	1640.72
415.60	1624.33
415.79	1774.13
415.98	1703.91
416.17	1732.00
416.36	1593.90
416.55	1621.99
416.74	1633.69
416.93	1706.25
417.12	1701.57
417.31	1687.53
417.50	1732.00
417.69	1769.44
417.88	1809.23
418.07	1760.08
418.26	1802.21
418.45	1743.70
418.64	1935.62
418.83	1912.22
419.02	1799.87
419.21	1757.74
419.39	1837.32
419.58	1879.45
419.77	1891.15
419.96	1886.47
420.15	1937.96
420.34	1949.67
420.53	1959.03
420.72	1942.64
420.91	1961.37
421.10	2052.65
421.29	2087.76
421.48	1930.94
421.67	2047.97
421.86	1998.82
422.05	2113.50
422.24	2045.63
422.43	2045.63
422.61	2132.23
422.80	2139.25
422.99	2186.06
423.18	2054.99
423.37	2134.57
423.56	2005.84
423.75	2087.76
423.94	2113.50
424.13	1860.73
424.32	2139.25
424.50	2040.95
424.69	2038.61
424.88	2230.53
425.07	2024.56
425.26	2071.37
425.45	2092.44
425.64	2033.93
425.83	2111.16
426.01	2090.10
426.20	2066.69
426.39	2090.10
426.58	2143.93
426.77	2118.18
426.96	2129.89
427.15	2139.25
427.33	2127.55
427.52	2190.74
427.71	2246.91
427.90	2195.42
428.09	2216.49
428.28	2183.72
428.46	2207.13
428.65	2260.96
428.84	2342.88
429.03	2284.36
429.22	2265.64
429.40	2298.41
429.59	2275.00
429.78	2237.55
429.97	2321.81
430.16	2195.42
430.34	2380.32
430.53	2394.37
430.72	2385.01
430.91	2380.32
431.10	2361.60
431.28	2427.14
431.47	2537.14
431.66	2279.68
431.85	2431.82
432.03	2534.80
432.22	2459.90
432.41	2448.20
432.60	2375.64
432.79	2520.76
432.97	2612.04
433.16	2495.01
433.35	2492.67
433.54	2614.38
433.72	2661.19
433.91	2537.14
434.10	2562.89
434.28	2518.42
434.47	2630.76
434.66	2595.65
434.85	2736.09
435.03	2731.41
435.22	2715.02
435.41	2691.62
435.59	2679.91
435.78	2670.55
435.97	2719.70
436.16	2796.94
436.34	2733.75
436.53	2738.43
436.72	2719.70
436.90	2862.48
437.09	2782.90
437.28	2855.45
437.46	2754.81
437.65	2832.05
437.84	2939.71
438.02	2792.26
438.21	2839.07
438.40	2876.52
438.58	2993.55
438.77	3075.46
438.96	2850.77
439.14	3192.49
439.33	3049.72
439.52	3014.61
439.70	3019.29
439.89	3077.80
440.08	3239.30
440.26	3126.96
440.45	3253.34
440.63	3148.02
440.82	3302.50
441.01	3382.07
441.19	3361.01
441.38	3349.31
441.57	3288.45
441.75	3321.22
441.94	3283.77
442.12	3412.50
442.31	3417.18
442.50	3330.58
442.68	3262.71
442.87	3353.99
443.05	3398.46
443.24	3431.23
443.43	3361.01
443.61	3492.08
443.80	3550.59
443.98	3517.83
444.17	3243.98
444.35	3538.89
444.54	3641.87
444.73	3585.70
444.91	3524.85
445.10	3552.93
445.28	3637.19
445.47	3466.33
445.65	3534.21
445.84	3658.26
446.02	3517.83
446.21	3562.30
446.39	3463.99
446.58	3606.77
446.77	3602.08
446.95	3461.65
447.14	3611.45
447.32	3513.14
447.51	3588.04
447.69	3695.71
447.88	3646.55
448.06	3569.32
448.25	3588.04
448.43	3688.68
448.62	3496.76
448.80	3531.87
448.99	3698.05
449.17	3712.09
449.36	3637.19
449.54	3808.05
449.73	3796.35
449.91	3768.26
450.10	3922.74
450.28	3843.16
450.46	3953.16
450.65	3978.91
450.83	3857.20
451.02	3747.20
451.20	4030.40
451.39	3873.59
451.57	3763.58
451.76	3915.72
451.94	3859.54
452.13	3950.82
452.31	3960.19
452.49	3836.14
452.68	4011.68
452.86	3913.38
453.05	4046.79
453.23	4124.02
453.42	3985.93
453.60	3852.52
453.78	3957.85
453.97	3892.31
454.15	4004.66
454.34	4126.36
454.52	4131.05
454.70	4084.23
454.89	4154.45
455.07	4147.43
455.26	4208.28
455.44	4236.37
455.62	4194.24
455.81	4177.86
455.99	4259.78
456.17	4294.88
456.36	4264.46
456.54	4243.39
456.73	4346.37
456.91	4456.38
457.09	4400.21
457.28	4400.21
457.46	4386.16
457.64	4547.66
457.83	4545.32
458.01	4465.74
458.19	4428.29
458.38	4311.27
458.56	4622.56
458.74	4524.26
458.93	4535.96
459.11	4547.66
459.29	4568.73
459.48	4542.98
459.66	4706.82
459.84	4760.65
460.03	4688.09
460.21	4634.26
460.39	4723.20
460.57	4545.32
460.76	4812.14
460.94	4873.00
461.12	4751.29
461.31	4835.55
461.49	4877.68
461.67	4723.20
461.85	4753.63
462.04	4863.63
462.22	4961.94
462.40	4784.06
462.59	4795.76
462.77	4842.57
462.95	4940.87
463.13	4964.28
463.32	5057.90
463.50	4873.00
463.68	4929.17
463.86	5057.90
464.05	4849.59
464.23	5104.71
464.41	4985.34
464.59	4854.27
464.78	5277.91
464.96	5137.48
465.14	5107.05
465.32	5032.15
465.50	5128.11
465.69	5198.33
465.87	5057.90
466.05	5111.73
466.23	5043.85
466.41	5275.57
466.60	5397.28
466.78	5057.90
466.96	5184.29
467.14	5305.99
467.32	5181.95
467.51	5423.02
467.69	5095.35
467.87	5273.23
468.05	5329.40
468.23	5156.20
468.41	5387.91
468.60	5373.87
468.78	5451.11
468.96	5254.50
469.14	5399.62
469.32	5577.50
469.50	5493.24
469.69	5497.92
469.87	5563.45
470.05	5633.67
470.23	5507.28
470.41	5593.88
470.59	5584.52
470.77	5584.52
470.95	5650.05
471.14	5804.53
471.32	5731.97
471.50	5755.38
471.68	5657.07
471.86	5699.20
472.04	5816.23
472.22	5860.70
472.40	5877.09
472.58	5788.14
472.77	5902.83
472.95	6118.16
473.13	6141.57
473.31	6054.97
473.49	5968.37
473.67	5987.09
473.85	6061.99
474.03	6092.41
474.21	6401.37
474.39	6258.59
474.57	6298.38
474.75	6256.25
474.93	6342.85
475.12	6352.21
475.30	6518.39
475.48	6361.58
475.66	6354.55
475.84	6466.90
476.02	6558.18
476.20	6628.40
476.38	6562.86
476.56	6832.02
476.74	6738.40
476.92	6813.30
477.10	6689.25
477.28	6801.60
477.46	6808.62
477.64	6932.67
477.82	7019.27
478.00	7169.06
478.18	7108.21
478.36	7302.47
478.54	7276.73
478.72	7337.58
478.90	7250.98
479.08	7400.77
479.26	7543.55
479.44	7576.31
479.62	7557.59
479.80	7782.28
479.98	7712.07
480.16	7756.54
480.34	7850.16
480.52	7882.92
480.70	7852.50
480.88	7808.03
481.06	8109.96
481.24	8102.93
481.41	8180.17
481.59	8301.88
481.77	8451.67
481.95	8449.33
482.13	8416.57
482.31	8205.92
482.49	8610.83
482.67	8542.96
482.85	8737.22
483.03	8723.18
483.21	8695.09
483.39	8760.63
483.57	8985.32
483.74	8954.89
483.92	8856.59
484.10	8987.66
484.28	9235.75
484.46	9231.07
484.64	9387.89
484.82	9167.88
485.00	9671.09
485.18	9575.13
485.35	9727.27
485.53	9516.62
485.71	9813.87
485.89	9865.36
486.07	9738.97
486.25	9942.60
486.43	10083.03
486.61	9940.26
486.78	10059.62
486.96	10134.52
487.14	10593.26
487.32	10296.02
487.50	10560.50
487.68	10427.09
487.85	10796.89
488.03	10787.53
488.21	11147.97
488.39	11066.05
488.57	10951.37
488.75	10993.50
488.92	11290.74
489.10	11262.66
489.28	11180.74
489.46	11461.60
489.64	11236.91
489.81	11749.49
489.99	11604.38
490.17	11653.53
490.35	11707.36
490.53	11946.09
490.70	12217.60
490.88	11976.52
491.06	12116.95
491.24	12051.42
491.41	12266.75
491.59	12606.13
491.77	12498.46
491.95	12498.46
492.13	12692.73
492.30	12493.78
492.48	12592.08
492.66	12666.98
492.84	12737.20
493.01	13092.96
493.19	13193.60
493.37	13394.89
493.54	13034.44
493.72	13439.36
493.90	13432.33
494.08	13341.05
494.25	13336.37
494.43	13500.21
494.61	13701.50
494.79	13834.91
494.96	13898.10
495.14	13980.02
495.32	14288.97
495.49	14029.17
495.67	13865.33
495.85	14420.04
496.02	14303.01
496.20	14516.00
496.38	14403.66
496.55	14342.80
496.73	14518.34
496.91	14579.20
497.09	14644.73
497.26	14796.87
497.44	14600.26
497.62	14860.06
497.79	15126.88
497.97	14932.62
498.14	15204.12
498.32	15154.97
498.50	15297.74
498.67	15344.55
498.85	15559.88
499.03	15484.98
499.20	15440.51
499.38	15459.24
499.56	15709.68
499.73	15829.04
499.91	15887.56
500.08	15932.03
500.26	15859.47
500.44	16070.12
500.61	15789.25
500.79	16154.38
500.97	16460.99
501.14	16489.07
501.32	16465.67
501.49	16142.67
501.67	16767.60
501.84	16280.77
502.02	16776.96
502.20	16730.15
502.37	16828.45
502.55	16727.81
502.72	16634.19
502.90	16601.42
503.07	16973.56
503.25	16908.03
503.43	17069.53
503.60	17039.10
503.78	17102.29
503.95	16858.88
504.13	17046.12
504.30	17041.44
504.48	17149.11
504.65	17303.58
504.83	17474.44
505.01	17673.39
505.18	17514.23
505.36	17687.43
505.53	17771.69
505.71	17607.85
505.88	17776.37
506.06	17563.38
506.23	17771.69
506.41	17720.20
506.58	18092.34
506.76	17802.11
506.93	18036.17
507.11	18185.96
507.28	18272.56
507.46	18171.92
507.63	18333.42
507.81	18728.97
507.98	18583.85
508.16	18347.46
508.33	18471.51
508.50	18394.27
508.68	18586.19
508.85	18675.13
509.03	18927.91
509.20	18817.91
509.38	19063.66
509.55	19098.77
509.73	18693.86
509.90	19091.75
510.08	19073.03
510.25	18920.89
510.42	19335.17
510.60	19330.48
510.77	19250.91
510.95	19220.48
511.12	19482.62
511.30	19211.12
511.47	19424.11
511.64	19606.67
511.82	19445.17
511.99	20058.39
512.17	19798.59
512.34	19829.02
512.51	20044.35
512.69	19789.23
512.86	19974.13
513.04	20116.90
513.21	19953.07
513.38	20016.26
513.56	20177.76
513.73	20152.01
513.90	20191.80
514.08	20236.27
514.25	20130.95
514.43	20577.99
514.60	20575.65
514.77	20563.95
514.95	20671.61
515.12	20645.87
515.29	20339.26
515.47	20739.49
515.64	20442.24
515.81	20821.41
515.99	20844.81
516.16	21247.38
516.33	20826.09
516.51	21163.12
516.68	21355.05
516.85	21233.34
517.03	21252.06
517.20	21268.45
517.37	21490.80
517.54	21404.20
517.72	21289.51
517.89	21448.67
518.06	21568.04
518.24	21556.33
518.41	21355.05
518.58	21561.02
518.75	21867.63
518.93	21776.34
519.10	21671.02
519.27	21984.65
519.45	21401.86
519.62	21591.44
519.79	21827.84
519.96	21940.18
520.14	22036.14
520.31	21872.31
520.48	22104.02
520.65	22167.21
520.83	21933.16
521.00	22312.33
521.17	21986.99
521.34	22188.28
521.52	22232.75
521.69	22696.17
521.86	22735.96
522.03	22700.86
522.20	22562.76
522.38	22008.06
522.55	22810.86
522.72	22436.38
522.89	22707.88
523.07	22927.89
523.24	22822.56
523.41	22668.09
523.58	22581.49
523.75	22848.31
523.92	22469.14
524.10	23241.52
524.27	23262.58
524.44	23002.78
524.61	23260.24
524.78	23356.21
524.96	23278.97
525.13	23274.29
525.30	23590.26
525.47	23377.27
525.64	23648.77
525.81	23557.49
525.98	23454.51
526.16	23728.35
526.33	23709.63
526.50	23466.21
526.67	23644.09
526.84	23594.94
527.01	23747.08
527.18	23845.38
527.36	24133.26
527.53	24086.45
527.70	24013.90
527.87	24147.31
528.04	24154.33
528.21	24259.65
528.38	24018.58
528.55	24348.59
528.72	24210.50
528.89	24383.70
529.07	24142.63
529.24	24435.19
529.41	24582.65
529.58	24746.48
529.75	24191.78
529.92	24144.97
530.09	24151.99
530.26	24367.32
530.43	24683.29
530.60	24538.18
530.77	24517.11
530.94	24861.17
531.11	24538.18
531.28	24500.73
531.46	24570.94
531.63	24879.89
531.80	24669.25
531.97	25273.10
532.14	24840.11
532.31	25130.33
532.48	24985.22
532.65	25275.45
532.82	25088.20
532.99	24620.10
533.16	24739.46
533.33	25329.28
533.50	25455.67
533.67	25392.47
533.84	25151.40
534.01	24994.58
534.18	25411.20
534.35	25605.46
534.52	25425.24
534.69	25448.64
534.86	25773.98
535.03	25263.74
535.20	25582.06
535.37	25883.98
535.54	25879.30
535.71	25593.76
535.88	25610.14
536.05	25692.06
536.22	25898.03
536.38	26162.51
536.55	26068.89
536.72	25750.57
536.89	25930.80
537.06	25923.77
537.23	26082.93
537.40	25923.77
537.57	26087.61
537.74	25912.07
537.91	26143.78
538.08	26305.28
538.25	25879.30
538.42	26103.99
538.59	26338.05
538.75	25935.48
538.92	26284.22
539.09	26511.25
539.26	26555.72
539.43	26185.91
539.60	26836.58
539.77	26132.08
539.94	26686.79
540.11	26370.82
540.28	26562.74
540.44	26892.76
540.61	26499.55
540.78	26452.73
540.95	26761.69
541.12	26560.40
541.29	26850.63
541.46	26810.84
541.62	26948.93
541.79	26859.99
541.96	26464.44
542.13	26628.27
542.30	27213.41
542.47	26934.88
542.63	27068.30
542.80	27398.31
542.97	27377.25
543.14	27454.48
543.31	27438.10
543.48	27154.90
543.64	27702.58
543.81	27482.57
543.98	27229.79
544.15	27475.55
544.32	27821.95
544.48	27817.27
544.65	27548.11
544.82	27658.11
544.99	27445.12
545.16	27695.56
545.32	27562.15
545.49	28067.70
545.66	27718.96
545.83	27630.02
546.00	27962.38
546.16	27843.01
546.33	27641.73
546.50	27360.86
546.67	27819.61
546.83	27742.37
547.00	27864.08
547.17	28032.60
547.34	27976.42
547.50	27971.74
547.67	28486.66
547.84	27866.42
548.00	28142.60
548.17	28257.29
548.34	28077.07
548.51	28231.54
548.67	28320.48
548.84	28460.91
549.01	27985.79
549.18	28526.45
549.34	28292.40
549.51	28189.41
549.68	28423.47
549.84	28189.41
550.01	28599.01
550.18	28257.29
550.34	28683.27
550.51	28531.13
550.68	29010.94
550.84	28245.58
551.01	28463.25
551.18	28737.10
551.34	28554.54
551.51	28584.96
551.68	28929.02
551.84	28652.84
552.01	28205.80
552.18	28828.38
552.34	28945.41
552.51	28996.90
552.68	28893.91
552.84	28673.90
553.01	29053.07
553.18	29230.95
553.34	29228.61
553.51	29027.32
553.67	29160.73
553.84	29366.70
554.01	29032.00
554.17	28975.83
554.34	29177.12
554.51	28851.78
554.67	29214.57
554.84	29041.37
555.00	29067.11
555.17	29142.01
555.33	29277.76
555.50	29289.46
555.67	29324.57
555.83	29195.84
556.00	29240.31
556.16	29434.58
556.33	29502.45
556.50	29659.27
556.66	29380.74
556.83	29305.85
556.99	29729.48
557.16	29572.67
557.32	29795.02
557.49	30125.04
557.65	29518.84
557.82	29455.64
557.98	29502.45
558.15	29600.76
558.32	29699.06
558.48	29867.58
558.65	29516.50
558.81	29919.07
558.98	30068.86
559.14	29701.40
559.31	29422.87
559.47	29785.66
559.64	29888.64
559.80	29762.25
559.97	29853.53
560.13	29694.38
560.30	29642.88
560.46	30162.48
560.63	30162.48
560.79	29748.21
560.96	30026.73
561.12	29872.26
561.29	30026.73
561.45	29816.08
561.61	30054.82
561.78	30139.08
561.94	30106.31
562.11	29977.58
562.27	30309.94
562.44	30089.93
562.60	30110.99
562.77	29963.54
562.93	30080.56
563.10	29958.86
563.26	30270.15
563.42	30366.11
563.59	30328.66
563.75	30331.00
563.92	30202.27
564.08	29844.17
564.24	30356.75
564.41	29886.30
564.57	30368.45
564.74	30089.93
564.90	30363.77
565.07	30022.05
565.23	30548.67
565.39	30576.76
565.56	30515.90
565.72	30279.51
565.88	30094.61
566.05	30408.24
566.21	30562.72
566.38	30143.76
566.54	30366.11
566.70	30899.75
566.87	31084.65
567.03	30543.99
567.19	31035.50
567.36	30412.92
567.52	30192.91
567.68	30820.17
567.85	30295.89
568.01	30492.50
568.17	30316.96
568.34	30857.62
568.50	30480.80
568.66	30855.28
568.83	30972.31
568.99	30689.10
569.15	30663.36
569.32	30347.39
569.48	30368.45
569.64	30370.79
569.81	30651.66
569.97	30548.67
570.13	30930.18
570.30	30773.36
570.46	30740.60
570.62	30969.97
570.78	30415.26
570.95	30176.53
571.11	30766.34
571.27	30490.16
571.43	30635.27
571.60	31047.21
571.76	30604.84
571.92	30920.82
572.09	30958.27
572.25	31075.29
572.41	30808.47
572.57	31077.63
572.74	31037.84
572.90	30625.91
573.06	30539.31
573.22	30478.46
573.38	30883.37
573.55	30686.76
573.71	31157.21
573.87	31175.94
574.03	30824.86
574.20	30616.55
574.36	30471.43
574.52	30766.34
574.68	30796.77
574.84	30948.90
575.01	30656.34
575.17	30988.69
575.33	30632.93
575.49	31068.27
575.65	31058.91
575.82	31164.23
575.98	30852.94
576.14	30932.52
576.30	31075.29
576.46	31079.97
576.62	30735.92
576.79	30958.27
576.95	30986.35
577.11	30869.33
577.27	31002.74
577.43	31030.82
577.59	31171.25
577.75	31253.17
577.92	30651.66
578.08	30466.75
578.24	30602.50
578.40	31316.37
578.56	30883.37
578.72	30948.90
578.88	31002.74
579.04	31126.78
579.21	31119.76
579.37	30881.03
579.53	31426.37
579.69	30883.37
579.85	30890.39
580.01	31091.68
580.17	30522.93
580.33	30862.30
580.49	30946.56
580.65	31236.79
580.82	31508.29
580.98	31447.44
581.14	31185.30
581.30	30991.03
581.46	31101.04
581.62	31005.08
581.78	31063.59
581.94	31182.96
582.10	30878.69
582.26	31227.43
582.42	31023.80
582.58	31421.69
582.74	31180.62
582.90	31391.26
583.06	30981.67
583.22	30792.09
583.38	30953.58
583.54	31077.63
583.70	30965.29
583.86	30775.70
584.02	31321.05
584.18	31197.00
584.34	31096.36
584.50	31241.47
584.66	31187.64
584.82	30834.22
584.98	31070.61
585.14	31063.59
585.30	31072.95
585.46	31049.55
585.62	30876.35
585.78	31206.36
585.94	30838.90
586.10	31187.64
586.26	31707.24
586.42	31414.67
586.58	31400.63
586.74	31225.09
586.90	31082.31
587.06	31140.83
587.22	31330.41
587.38	31398.29
587.54	31166.57
587.70	31580.85
587.86	31812.56
588.02	31491.91
588.18	31386.58
588.34	31494.25
588.49	31337.43
588.65	31431.05
588.81	31274.24
588.97	31292.96
589.13	31426.37
589.29	31538.72
589.45	31494.25
589.61	31800.86
589.77	31585.53
589.93	32018.53
590.08	31512.97
590.24	31491.91
590.40	31824.26
590.56	31494.25
590.72	31929.59
590.88	31405.31
591.04	31325.73
591.20	32032.57
591.35	32210.45
591.51	31924.91
591.67	31419.35
591.83	31854.69
591.99	32041.93
592.15	31721.28
592.31	31796.18
592.46	31431.05
592.62	31627.66
592.78	31679.15
592.94	31700.22
593.10	31552.76
593.26	31630.00
593.41	31943.63
593.57	31896.82
593.73	31648.72
593.89	31651.06
594.05	31962.36
594.20	31756.39
594.36	31674.47
594.52	31459.14
594.68	31716.60
594.84	31665.11
594.99	32041.93
595.15	31775.11
595.31	31971.72
595.47	31732.98
595.62	31742.35
595.78	31735.32
595.94	31679.15
596.10	31740.00
596.25	31536.38
596.41	31674.47
596.57	31428.71
596.73	31704.90
596.88	31807.88
597.04	31761.07
597.20	32205.77
597.36	31793.84
597.51	31864.05
597.67	31679.15
597.83	32140.24
597.99	31852.35
598.14	31576.17
598.30	31913.20
598.46	31438.08
598.61	31833.63
598.77	31693.19
598.93	31784.48
599.09	31938.95
599.24	32250.24
599.40	32161.30
599.56	32077.04
599.71	31917.89
599.87	32126.19
600.03	32275.99
600.18	32004.49
600.34	32079.38
600.50	31674.47
600.65	32039.59
600.81	31990.44
600.97	31803.20
601.12	32416.42
601.28	32231.52
601.44	32304.07
601.59	32114.49
601.75	31957.67
601.91	32086.40
602.06	31894.48
602.22	32023.21
602.37	31686.17
602.53	32325.14
602.69	31920.23
602.84	31992.78
603.00	32065.34
603.16	31756.39
603.31	31761.07
603.47	31889.80
603.62	31871.07
603.78	32456.21
603.94	31878.10
604.09	31606.59
604.25	31564.46
604.40	31732.98
604.56	32063.00
604.71	32030.23
604.87	31761.07
605.03	31913.20
605.18	32095.77
605.34	31515.31
605.49	31608.93
605.65	31789.16
605.80	31468.50
605.96	31630.00
606.12	31583.19
606.27	31714.26
606.43	31875.76
606.58	32156.62
606.74	31711.92
606.89	31697.88
607.05	32222.16
607.20	32137.90
607.36	32032.57
607.51	32140.24
607.67	31452.12
607.82	31529.36
607.98	31531.70
608.13	31943.63
608.29	31775.11
608.44	31583.19
608.60	31505.95
608.75	32308.76
608.91	31978.74
609.06	31754.05
609.22	31796.18
609.37	31494.25
609.53	31852.35
609.68	31285.94
609.84	31580.85
609.99	31789.16
610.15	31550.42
610.30	31456.80
610.46	31702.56
610.61	31597.23
610.76	31913.20
610.92	31751.71
611.07	31892.14
611.23	31508.29
611.38	31487.23
611.54	31552.76
611.69	31325.73
611.84	31087.00
612.00	31241.47
612.15	31374.88
612.31	31871.07
612.46	31662.77
612.62	31803.20
612.77	31826.60
612.92	31658.09
613.08	31508.29
613.23	31550.42
613.39	31386.58
613.54	30869.33
613.69	31435.74
613.85	30974.65
614.00	31503.61
614.15	31379.56
614.31	31363.18
614.46	31541.06
614.62	31417.01
614.77	31772.77
614.92	31400.63
615.08	31098.70
615.23	31372.54
615.38	31140.83
615.54	31213.38
615.69	31424.03
615.84	31342.11
616.00	31042.53
616.15	31030.82
616.30	31431.05
616.46	31360.84
616.61	31269.56
616.76	31098.70
616.92	31276.58
617.07	31330.41
617.22	31178.28
617.37	31098.70
617.53	31250.83
617.68	31140.83
617.83	31014.44
617.99	30923.16
618.14	31108.06
618.29	31323.39
618.45	30646.97
618.60	30834.22
618.75	31094.02
618.90	31007.42
619.06	31152.53
619.21	30565.06
619.36	31077.63
619.51	30906.77
619.67	30735.92
619.82	30735.92
619.97	30691.44
620.12	30625.91
620.28	30675.06
620.43	30794.43
620.58	31117.42
620.73	30984.01
620.89	31150.19
621.04	30696.13
621.19	30712.51
621.34	30726.55
621.49	30677.40
621.65	30316.96
621.80	30834.22
621.95	30459.73
622.10	30890.39
622.25	30649.32
622.41	30548.67
622.56	30920.82
622.71	30881.03
622.86	30412.92
623.01	30382.49
623.16	30525.27
623.32	30410.58
623.47	30380.15
623.62	30354.41
623.77	30265.47
623.92	30546.33
624.07	30644.63
624.23	30087.59
624.38	30478.46
624.53	30543.99
624.68	30838.90
624.83	30881.03
624.98	30565.06
625.13	30120.35
625.29	30370.79
625.44	30103.97
625.59	30113.33
625.74	30064.18
625.89	29589.05
626.04	29909.71
626.19	29923.75
626.34	30221.00
626.49	29750.55
626.65	30015.03
626.80	30534.63
626.95	30171.85
627.10	30253.76
627.25	30136.74
627.40	29937.79
627.55	29804.38
627.70	29692.04
627.85	29898.00
628.00	29921.41
628.15	29876.94
628.30	29563.31
628.45	29633.52
628.60	29677.99
628.76	30363.77
628.91	29919.07
629.06	29783.32
629.21	29804.38
629.36	29680.33
629.51	29628.84
629.66	29610.12
629.81	29521.18
629.96	29663.95
630.11	29694.38
630.26	29277.76
630.41	29528.20
630.56	29345.64
630.71	29898.00
630.86	29516.50
631.01	29116.26
631.16	29888.64
631.31	29289.46
631.46	29181.80
631.61	29783.32
631.76	29649.91
631.91	29369.04
632.06	29202.86
632.21	29390.11
632.36	29394.79
632.51	29120.95
632.66	29654.59
632.81	29071.79
632.96	29479.05
633.10	28968.81
633.25	29085.84
633.40	29584.37
633.55	29020.30
633.70	28891.57
633.85	28987.53
634.00	28973.49
634.15	29064.77
634.30	29387.77
634.45	28959.45
634.60	29195.84
634.75	29092.86
634.90	29233.29
635.05	29336.27
635.19	29050.73
635.34	29223.93
635.49	29076.48
635.64	29460.32
635.79	29074.13
635.94	28671.56
636.09	29076.48
636.24	28821.36
636.39	28826.04
636.53	28926.68
636.68	28531.13
636.83	28666.88
636.98	29221.59
637.13	28753.48
637.28	28786.25
637.43	28896.25
637.57	28814.34
637.72	29003.92
637.87	28861.15
638.02	28533.47
638.17	28329.84
638.32	28400.06
638.46	28816.68
638.61	28376.66
638.76	28161.33
638.91	28669.22
639.06	28762.84
639.20	28615.39
639.35	28844.76
639.50	28327.50
639.65	28826.04
639.80	28666.88
639.94	28694.97
640.09	28769.86
640.24	28360.27
640.39	28360.27
640.54	28325.16
640.68	28442.19
640.83	28498.36
640.98	28198.77
641.13	28060.68
641.27	28603.69
641.42	28287.71
641.57	28027.92
641.72	28474.96
641.86	28114.52
642.01	27971.74
642.16	28348.57
642.31	28140.26
642.45	28009.19
642.60	28098.13
642.75	27648.75
642.90	28252.61
643.04	27814.93
643.19	27786.84
643.34	27765.78
643.48	28034.94
643.63	28156.64
643.78	27875.78
643.93	28233.88
644.07	27786.84
644.22	27995.15
644.37	27910.89
644.51	28144.94
644.66	28070.04
644.81	27395.97
644.95	27662.79
645.10	27653.43
645.25	27723.65
645.39	28278.35
645.54	27971.74
645.69	27917.91
645.83	27962.38
645.98	27819.61
646.13	28034.94
646.27	28409.42
646.42	27875.78
646.57	27505.98
646.71	27283.62
646.86	27604.28
647.00	27817.27
647.15	27468.53
647.30	27356.18
647.44	27522.36
647.59	27393.63
647.74	27002.76
647.88	27452.14
648.03	27646.41
648.17	27260.22
648.32	27697.90
648.47	27707.26
648.61	27590.24
648.76	27370.22
648.90	27655.77
649.05	27529.38
649.20	27379.59
649.34	27271.92
649.49	26953.61
649.63	27447.46
649.78	27496.61
649.92	27208.73
650.07	27262.56
650.21	26871.69
650.36	27229.79
650.51	27047.23
650.65	27119.79
650.80	27236.81
650.94	27019.14
651.09	27040.21
651.23	27276.60
651.38	27297.67
651.52	26899.78
651.67	27164.26
651.81	27173.62
651.96	27131.49
652.10	26960.63
652.25	27241.50
652.39	27126.81
652.54	27220.43
652.68	27112.77
652.83	27056.59
652.97	27089.36
653.12	26923.18
653.26	26698.49
653.41	26761.69
653.55	26661.04
653.70	26714.87
653.84	26555.72
653.99	26782.75
654.13	26899.78
654.27	26338.05
654.42	26569.76
654.56	26850.63
654.71	27028.51
654.85	27007.44
655.00	26881.05
655.14	27051.91
655.29	26920.84
655.43	26778.07
655.57	26457.42
655.72	26450.39
655.86	26450.39
656.01	26551.04
656.15	26286.56
656.30	26712.53
656.44	26719.56
656.58	26466.78
656.73	26008.03
656.87	26569.76
657.01	26946.59
657.16	26300.60
657.30	26675.09
657.45	26480.82
657.59	26508.91
657.73	26148.46
657.88	26089.95
658.02	25881.64
658.16	26338.05
658.31	26225.70
658.45	26309.96
658.60	26291.24
658.74	26153.15
658.88	25841.85
659.03	26405.92
659.17	26099.31
659.31	26232.72
659.46	26298.26
659.60	26586.15
659.74	26333.37
659.89	26005.69
660.03	26192.94
660.17	26319.32
660.32	25626.53
660.46	25769.30
660.60	25532.90
660.74	25699.08
660.89	25839.51
661.03	25387.79
661.17	25528.22
661.32	25825.47
661.46	25486.09
661.60	25689.72
661.74	25781.00
661.89	25855.90
662.03	25689.72
662.17	25502.48
662.31	25460.35
662.46	25671.00
662.60	25343.32
662.74	25301.19
662.88	25273.10
663.03	25193.53
663.17	25214.59
663.31	25043.73
663.45	24774.57
663.60	25441.62
663.74	25076.50
663.88	25053.09
664.02	24823.72
664.17	25401.83
664.31	25296.51
664.45	25202.89
664.59	24790.95
664.73	24936.07
664.88	24943.09
665.02	24489.03
665.16	24694.99
665.30	24910.32
665.44	24592.01
665.59	24383.70
665.73	24694.99
665.87	24203.48
666.01	24489.03
666.15	24669.25
666.29	24793.29
666.44	24734.78
666.58	24418.81
666.72	24397.74
666.86	24730.10
667.00	24781.59
667.14	24554.56
667.28	23955.38
667.43	24334.55
667.57	24372.00
667.71	24231.57
667.85	24077.09
667.99	24013.90
668.13	24294.76
668.27	24072.41
668.41	24224.54
668.56	23924.96
668.70	23901.55
668.84	24063.05
668.98	24119.22
669.12	24051.34
669.26	23927.30
669.40	23899.21
669.54	23906.23
669.68	23927.30
669.82	23557.49
669.96	23468.55
670.10	23513.02
670.25	23655.79
670.39	23421.74
670.53	23548.13
670.67	22948.95
670.81	23393.65
670.95	23601.96
671.09	23510.68
671.23	23531.75
671.37	23386.63
671.51	23351.52
671.65	23178.33
671.79	23295.35
671.93	23653.45
672.07	22965.34
672.21	22939.59
672.35	22785.12
672.49	22668.09
672.63	22799.16
672.77	22527.66
672.91	22747.67
673.05	22955.97
673.19	22815.54
673.33	22733.62
673.47	22621.28
673.61	22691.49
673.75	22963.00
673.89	22115.72
674.03	22782.77
674.17	22207.00
674.31	22417.65
674.45	22424.67
674.59	22120.40
674.73	22742.99
674.87	22031.46
675.01	22061.89
675.15	21963.59
675.29	22008.06
675.43	22139.13
675.56	22125.08
675.70	22066.57
675.84	22010.40
675.98	21308.24
676.12	22199.98
676.26	21949.54
676.40	21788.05
676.54	21738.90
676.68	21589.10
676.82	21439.31
676.96	21261.43
677.10	21348.03
677.23	21301.22
677.37	20936.09
677.51	21081.21
677.65	21111.63
677.79	21125.68
677.93	21099.93
678.07	20971.20
678.21	21006.31
678.34	20622.46
678.48	20727.78
678.62	20528.84
678.76	20535.86
678.90	20830.77
679.04	20514.80
679.18	20783.96
679.31	20498.41
679.45	20336.91
679.59	19932.00
679.73	20215.21
679.87	20217.55
680.00	20046.69
680.14	19711.99
680.28	20339.26
680.42	20306.49
680.56	20086.48
680.70	20154.35
680.83	20006.90
680.97	19742.42
681.11	19786.89
681.25	19672.20
681.39	19672.20
681.52	19482.62
681.66	19653.48
681.80	19590.28
681.94	19124.52
682.07	19688.59
682.21	19257.93
682.35	19096.43
682.49	19194.73
682.62	19103.45
682.76	18974.72
682.90	19056.64
683.04	19168.99
683.17	19154.94
683.31	19194.73
683.45	19070.68
683.59	18855.36
683.72	18981.74
683.86	18490.23
684.00	18602.58
684.13	18319.37
684.27	18764.07
684.41	18040.85
684.55	18335.76
684.68	18099.36
684.82	18141.49
684.96	18167.24
685.09	18066.60
685.23	17991.70
685.37	17893.40
685.50	18024.47
685.64	17998.72
685.78	17858.29
685.91	17710.83
686.05	17886.37
686.19	17968.29
686.32	17848.93
686.46	17448.69
686.60	17287.20
686.73	17497.84
686.87	17565.72
687.01	17490.82
687.14	17018.04
687.28	17135.06
687.42	17046.12
687.55	16950.16
687.69	16793.34
687.82	16989.95
687.96	17149.11
688.10	16996.97
688.23	16671.64
688.37	16805.05
688.50	16692.70
688.64	16788.66
688.78	16879.94
688.91	16486.73
689.05	16547.59
689.18	16697.38
689.32	16166.08
689.46	16184.80
689.59	16123.95
689.73	16231.62
689.86	16123.95
690.00	16105.23
690.13	16056.08
690.27	15892.24
690.41	16128.63
690.54	15917.98
690.68	15999.90
690.81	15946.07
690.95	15964.79
691.08	15817.34
691.22	15733.08
691.35	15538.82
691.49	15782.23
691.62	15576.27
691.76	15367.96
691.89	15382.00
692.03	15061.35
692.16	15166.67
692.30	15236.89
692.43	14885.81
692.57	14754.74
692.70	14827.29
692.84	15007.52
692.97	14820.27
693.11	15009.86
693.24	14808.57
693.38	14637.71
693.51	14700.90
693.65	14736.01
693.78	14478.55
693.92	14698.56
694.05	14539.41
694.19	14396.64
694.32	14284.29
694.45	14361.53
694.59	14345.14
694.72	14228.12
694.86	14340.46
694.99	13877.04
695.13	14085.34
695.26	13797.46
695.39	13748.31
695.53	13870.01
695.66	13572.77
695.80	13778.73
695.93	13956.61
696.07	13738.94
696.20	13968.32
696.33	13497.87
696.47	13745.97
696.60	13341.05
696.73	13437.02
696.87	13624.26
697.00	13406.59
697.14	13280.20
697.27	12940.82
697.40	13114.02
697.54	12915.08
697.67	12980.61
697.80	13064.87
697.94	12858.90
698.07	12940.82
698.21	12851.88
698.34	12856.56
698.47	12683.36
698.61	12772.30
698.74	12709.11
698.87	12657.62
699.01	12683.36
699.14	12322.92
699.27	12238.66
699.40	12678.68
699.54	12262.07
699.67	12067.80
699.80	12238.66
699.94	11920.35
700.07	12126.32
700.20	12241.00
700.34	11976.52
700.47	11995.25
700.60	12013.97
700.73	11812.68
700.87	11997.59
701.00	11871.20
701.13	11609.06
701.26	12002.27
701.40	11543.52
701.53	11552.88
701.66	11541.18
701.79	11723.74
701.93	11632.46
702.06	11349.26
702.19	11419.47
702.32	11232.23
702.46	11044.99
702.59	10958.39
702.72	10836.68
702.85	10965.41
702.99	10986.47
703.12	10843.70
703.25	10839.02
703.38	10782.85
703.51	10682.20
703.65	10827.32
703.78	10555.82
703.91	10773.49
704.04	10682.20
704.17	10785.19
704.31	10593.26
704.44	10656.46
704.57	10626.03
704.70	10190.69
704.83	10494.96
704.96	10242.18
705.10	10160.27
705.23	10111.11
>>>>>End Processed Spectral Data<<<<<
