SpectraSuite Data File
++++++++++++++++++++++++++++++++++++
Date: Fri Oct 18 13:58:04 GMT-05:00 2013
User: bianchi
Dark Spectrum Present: No
Reference Spectrum Present: No
Number of Sampled Component Spectra: 1
Spectrometers: USB2+H05261
Integration Time (usec): 50000 (USB2+H05261)
Spectra Averaged: 1 (USB2+H05261)
Boxcar Smoothing: 0 (USB2+H05261)
Correct for Electrical Dark: No (USB2+H05261)
Strobe/Lamp Enabled: No (USB2+H05261)
Correct for Detector Non-linearity: No (USB2+H05261)
Correct for Stray Light: No (USB2+H05261)
Number of Pixels in Processed Spectrum: 2048
>>>>>Begin Processed Spectral Data<<<<<
365.73	0.00
365.92	0.00
366.12	0.00
366.32	0.00
366.52	0.00
366.72	0.00
366.91	0.00
367.11	0.00
367.31	0.00
367.51	0.00
367.70	0.00
367.90	0.00
368.10	0.00
368.30	0.00
368.49	0.00
368.69	0.00
368.89	0.00
369.09	0.00
369.28	0.00
369.48	0.00
369.68	0.00
369.87	0.00
370.07	0.00
370.27	0.00
370.47	0.00
370.66	112.35
370.86	166.18
371.06	159.16
371.25	166.18
371.45	98.30
371.65	124.05
371.84	196.60
372.04	189.58
372.24	173.20
372.44	133.41
372.63	182.56
372.83	238.73
373.03	168.52
373.22	191.92
373.42	112.35
373.62	191.92
373.81	227.03
374.01	308.95
374.21	264.48
374.40	168.52
374.60	234.05
374.79	271.50
374.99	285.55
375.19	198.95
375.38	229.37
375.58	257.46
375.78	217.67
375.97	308.95
376.17	315.97
376.37	266.82
376.56	325.33
376.76	306.61
376.95	266.82
377.15	278.52
377.35	294.91
377.54	208.31
377.74	243.42
377.93	273.84
378.13	322.99
378.33	388.53
378.52	257.46
378.72	339.38
378.91	278.52
379.11	318.31
379.31	273.84
379.50	264.48
379.70	306.61
379.89	311.29
380.09	287.89
380.28	339.38
380.48	290.23
380.68	243.42
380.87	299.59
381.07	304.27
381.26	294.91
381.46	369.80
381.65	327.68
381.85	367.46
382.04	304.27
382.24	318.31
382.43	330.02
382.63	339.38
382.83	257.46
383.02	353.42
383.22	362.78
383.41	346.40
383.61	390.87
383.80	395.55
384.00	369.80
384.19	327.68
384.39	367.46
384.58	313.63
384.78	348.74
384.97	339.38
385.17	318.31
385.36	351.08
385.56	425.98
385.75	444.70
385.95	360.44
386.14	365.12
386.34	337.04
386.53	358.10
386.72	402.57
386.92	442.36
387.11	402.57
387.31	402.57
387.50	369.80
387.70	418.96
387.89	440.02
388.09	397.89
388.28	468.11
388.48	395.55
388.67	489.17
388.86	430.66
389.06	547.69
389.25	564.07
389.45	540.66
389.64	395.55
389.84	447.04
390.03	603.86
390.22	559.39
390.42	526.62
390.61	507.90
390.81	552.37
391.00	463.43
391.19	528.96
391.39	521.94
391.58	545.34
391.78	552.37
391.97	568.75
392.16	531.30
392.36	606.20
392.55	538.32
392.75	634.29
392.94	564.07
393.13	578.11
393.33	561.73
393.52	521.94
393.71	498.53
393.91	575.77
394.10	543.00
394.29	526.62
394.49	606.20
394.68	580.45
394.88	531.30
395.07	601.52
395.26	631.94
395.46	575.77
395.65	641.31
395.84	638.97
396.04	741.95
396.23	631.94
396.42	706.84
396.62	716.20
396.81	697.48
397.00	634.29
397.19	645.99
397.39	711.52
397.58	727.91
397.77	711.52
397.97	641.31
398.16	662.37
398.35	676.41
398.55	634.29
398.74	685.78
398.93	746.63
399.12	779.40
399.32	746.63
399.51	706.84
399.70	718.54
399.90	737.27
400.09	819.19
400.28	812.17
400.47	763.01
400.67	791.10
400.86	802.80
401.05	772.38
401.24	816.85
401.44	774.72
401.63	828.55
401.82	770.04
402.01	777.06
402.21	805.14
402.40	816.85
402.59	751.31
402.78	882.38
402.97	770.04
403.17	880.04
403.36	898.77
403.55	858.98
403.74	938.55
403.93	1062.60
404.13	929.19
404.32	898.77
404.51	917.49
404.70	999.41
404.89	858.98
405.09	1093.03
405.28	894.08
405.47	992.39
405.66	877.70
405.85	985.37
406.05	889.40
406.24	891.74
406.43	978.34
406.62	1055.58
406.81	1057.92
407.00	1076.65
407.20	1032.18
407.39	1036.86
407.58	1076.65
407.77	1057.92
407.96	1046.22
408.15	1114.10
408.34	966.64
408.54	1076.65
408.73	1102.39
408.92	1123.46
409.11	1165.59
409.30	1086.01
409.49	1114.10
409.68	1191.33
409.87	1163.25
410.07	1158.57
410.26	1191.33
410.45	1149.20
410.64	1226.44
410.83	1167.93
411.02	1151.54
411.21	1299.00
411.40	1238.14
411.59	1324.74
411.78	1252.19
411.98	1273.25
412.17	1287.29
412.36	1245.16
412.55	1352.83
412.74	1467.52
412.93	1369.21
413.12	1334.11
413.31	1465.18
413.50	1409.00
413.69	1345.81
413.88	1612.63
414.07	1476.88
414.26	1467.52
414.45	1448.79
414.64	1453.47
414.83	1453.47
415.02	1584.54
415.22	1612.63
415.41	1526.03
415.60	1678.16
415.79	1572.84
415.98	1600.93
416.17	1675.82
416.36	1696.89
416.55	1633.69
416.74	1586.88
416.93	1629.01
417.12	1657.10
417.31	1743.70
417.50	1661.78
417.69	1713.27
417.88	1724.97
418.07	1722.63
418.26	1699.23
418.45	1816.26
418.64	1863.07
418.83	1748.38
419.02	1741.36
419.21	1916.90
419.39	1874.77
419.58	1769.44
419.77	1830.30
419.96	1905.20
420.15	1912.22
420.34	1996.48
420.53	1973.07
420.72	1956.69
420.91	1928.60
421.10	2026.90
421.29	1989.46
421.48	1858.39
421.67	1968.39
421.86	2062.01
422.05	2008.18
422.24	1902.86
422.43	1963.71
422.61	1914.56
422.80	1968.39
422.99	2078.40
423.18	2045.63
423.37	2155.63
423.56	2059.67
423.75	1937.96
423.94	2062.01
424.13	1944.99
424.32	2076.06
424.50	2052.65
424.69	2022.22
424.88	2162.66
425.07	2043.29
425.26	2069.03
425.45	2057.33
425.64	1975.41
425.83	2050.31
426.01	2010.52
426.20	2157.97
426.39	2132.23
426.58	2092.44
426.77	2083.08
426.96	2120.53
427.15	2118.18
427.33	2113.50
427.52	2136.91
427.71	2157.97
427.90	2197.76
428.09	2125.21
428.28	2186.06
428.46	2122.87
428.65	2214.15
428.84	2317.13
429.03	2251.60
429.22	2150.95
429.40	2251.60
429.59	2293.72
429.78	2223.51
429.97	2076.06
430.16	2218.83
430.34	2263.30
430.53	2328.83
430.72	2333.51
430.91	2377.98
431.10	2359.26
431.28	2340.54
431.47	2342.88
431.66	2485.65
431.85	2406.07
432.03	2436.50
432.22	2497.35
432.41	2513.74
432.60	2469.27
432.79	2473.95
432.97	2497.35
433.16	2574.59
433.35	2438.84
433.54	2581.61
433.72	2525.44
433.91	2551.18
434.10	2506.71
434.28	2558.21
434.47	2548.84
434.66	2546.50
434.85	2569.91
435.03	2696.30
435.22	2600.34
435.41	2649.49
435.59	2609.70
435.78	2635.44
435.97	2696.30
436.16	2663.53
436.34	2651.83
436.53	2834.39
436.72	2752.47
436.90	2637.78
437.09	2752.47
437.28	2736.09
437.46	2785.24
437.65	2740.77
437.84	2803.96
438.02	2810.98
438.21	2796.94
438.40	2839.07
438.58	2836.73
438.77	2977.16
438.96	2857.79
439.14	2825.03
439.33	2977.16
439.52	3038.02
439.70	3091.85
439.89	3089.51
440.08	3059.08
440.26	2946.73
440.45	3047.38
440.63	3229.94
440.82	3150.36
441.01	3286.11
441.19	3087.17
441.38	3234.62
441.57	3302.50
441.75	3258.03
441.94	3328.24
442.12	3272.07
442.31	3447.61
442.50	3201.85
442.68	3335.26
442.87	3368.03
443.05	3449.95
443.24	3492.08
443.43	3459.31
443.61	3391.44
443.80	3513.14
443.98	3311.86
444.17	3227.60
444.35	3496.76
444.54	3461.65
444.73	3424.20
444.91	3536.55
445.10	3485.06
445.28	3459.31
445.47	3480.38
445.65	3452.29
445.84	3501.44
446.02	3555.27
446.21	3531.87
446.39	3459.31
446.58	3625.49
446.77	3550.59
446.95	3499.10
447.14	3510.80
447.32	3480.38
447.51	3583.36
447.69	3585.70
447.88	3604.42
448.06	3555.27
448.25	3506.12
448.43	3531.87
448.62	3590.38
448.80	3653.58
448.99	3637.19
449.17	3630.17
449.36	3599.74
449.54	3754.22
449.73	3728.47
449.91	3705.07
450.10	3688.68
450.28	3913.38
450.46	3719.11
450.65	3936.78
450.83	3981.25
451.02	3845.50
451.20	4060.83
451.39	4023.38
451.57	3833.80
451.76	3833.80
451.94	3819.75
452.13	3878.27
452.31	3950.82
452.49	3801.03
452.68	3927.42
452.86	3953.16
453.05	3915.72
453.23	4016.36
453.42	3908.69
453.60	3922.74
453.78	3943.80
453.97	4007.00
454.15	3974.23
454.34	3915.72
454.52	4102.96
454.70	3913.38
454.89	4072.53
455.07	3997.64
455.26	4074.87
455.44	4044.45
455.62	4142.75
455.81	4060.83
455.99	4154.45
456.17	4255.09
456.36	4215.30
456.54	4255.09
456.73	4243.39
456.91	4266.80
457.09	4290.20
457.28	4414.25
457.46	4388.50
457.64	4540.64
457.83	4496.17
458.01	4259.78
458.19	4388.50
458.38	4315.95
458.56	4414.25
458.74	4573.41
458.93	4421.27
459.11	4540.64
459.29	4276.16
459.48	4552.34
459.66	4365.10
459.84	4528.94
460.03	4737.24
460.21	4678.73
460.39	4582.77
460.57	4617.88
460.76	4762.99
460.94	4683.41
461.12	4606.17
461.31	4730.22
461.49	4793.42
461.67	4575.75
461.85	4891.72
462.04	4652.98
462.22	5184.29
462.40	4863.63
462.59	4901.08
462.77	4807.46
462.95	4751.29
463.13	4863.63
463.32	4889.38
463.50	5006.41
463.68	4975.98
463.86	4950.23
464.05	4903.42
464.23	4926.83
464.41	5170.24
464.59	4816.82
464.78	5153.86
464.96	5004.07
465.14	4924.49
465.32	5142.16
465.50	5163.22
465.69	5125.77
465.87	5085.98
466.05	5100.03
466.23	5022.79
466.41	5207.69
466.60	5163.22
466.78	5093.01
466.96	5001.72
467.14	5132.79
467.32	5118.75
467.51	5224.08
467.69	4980.66
467.87	5128.11
468.05	5226.42
468.23	5270.89
468.41	5224.08
468.60	5364.51
468.78	5394.93
468.96	5261.52
469.14	5336.42
469.32	5504.94
469.50	5322.38
469.69	5289.61
469.87	5537.71
470.05	5296.63
470.23	5416.00
470.41	5619.63
470.59	5467.49
470.77	5392.59
470.95	5671.12
471.14	5603.24
471.32	5467.49
471.50	5731.97
471.68	5790.49
471.86	5619.63
472.04	5675.80
472.22	5771.76
472.40	5701.54
472.58	5879.43
472.77	5654.73
472.95	5867.72
473.13	6036.24
473.31	5921.56
473.49	6050.28
473.67	5856.02
473.85	6097.10
474.03	6094.76
474.21	6054.97
474.39	6045.60
474.57	6277.32
474.75	6246.89
474.93	6314.77
475.12	6157.95
475.30	6164.97
475.48	6349.87
475.66	6359.24
475.84	6553.50
476.02	6319.45
476.20	6380.30
476.38	6689.25
476.56	6633.08
476.74	6764.15
476.92	6600.31
477.10	6410.73
477.28	6707.98
477.46	6703.29
477.64	6661.16
477.82	6937.35
478.00	7133.95
478.18	7133.95
478.36	7068.42
478.54	7155.02
478.72	7122.25
478.90	7318.86
479.08	7293.11
479.26	7377.37
479.44	7566.95
479.62	7431.20
479.80	7585.68
479.98	7531.84
480.16	7588.02
480.34	7627.81
480.52	7728.45
480.70	7719.09
480.88	7665.25
481.06	7829.09
481.24	7887.61
481.41	7948.46
481.59	8145.06
481.77	8095.91
481.95	8154.43
482.13	8196.56
482.31	8046.76
482.49	8376.78
482.67	8332.31
482.85	8409.54
483.03	8397.84
483.21	8678.71
483.39	8760.63
483.57	8606.15
483.74	8753.60
483.92	8889.35
484.10	8961.91
484.28	9118.73
484.46	9109.36
484.64	9425.34
484.82	9181.92
485.00	9397.25
485.18	9439.38
485.35	9474.49
485.53	9703.86
485.71	9713.22
485.89	9678.12
486.07	9823.23
486.25	9469.81
486.43	9809.19
486.61	9893.44
486.78	10104.09
486.96	10092.39
487.14	10272.61
487.32	10139.20
487.50	10452.83
487.68	10525.39
487.85	10413.04
488.03	10705.61
488.21	10656.46
488.39	10766.46
488.57	10738.38
488.75	10902.22
488.92	11171.38
489.10	11234.57
489.28	11323.51
489.46	11197.12
489.64	11215.85
489.81	11655.87
489.99	11445.22
490.17	11564.59
490.35	11541.18
490.53	11590.33
490.70	11728.42
490.88	11712.04
491.06	11903.96
491.24	12039.72
491.41	12159.08
491.59	11936.73
491.77	12116.95
491.95	12372.07
492.13	12341.64
492.30	12524.21
492.48	12585.06
492.66	12348.67
492.84	12657.62
493.01	12545.27
493.19	12856.56
493.37	13226.37
493.54	12985.29
493.72	13114.02
493.90	13247.43
494.08	13032.10
494.25	13167.85
494.43	13160.83
494.61	13603.19
494.79	13638.30
494.96	13582.13
495.14	13650.00
495.32	13589.15
495.49	13980.02
495.67	14176.62
495.85	13757.67
496.02	14246.84
496.20	13958.96
496.38	13919.17
496.55	14251.52
496.73	14410.68
496.91	14466.85
497.09	14476.21
497.26	14595.58
497.44	14698.56
497.62	14626.01
497.79	14846.02
497.97	14803.89
498.14	14752.40
498.32	15129.22
498.50	15171.35
498.67	15026.24
498.85	15183.06
499.03	14965.39
499.20	15166.67
499.38	15169.01
499.56	15515.41
499.73	15529.45
499.91	15454.56
500.08	15786.91
500.26	15845.43
500.44	15728.40
500.61	15840.75
500.79	16074.80
500.97	16313.53
501.14	15826.70
501.32	16152.04
501.49	16100.55
501.67	16067.78
501.84	16191.83
502.02	16217.57
502.20	16238.64
502.37	16685.68
502.55	16400.13
502.72	16437.58
502.90	16287.79
503.07	16409.50
503.25	16526.52
503.43	16690.36
503.60	16886.97
503.78	16783.98
503.95	16912.71
504.13	16683.34
504.30	16929.09
504.48	16999.31
504.65	17013.35
504.83	17209.96
505.01	17263.79
505.18	17179.53
505.36	17603.17
505.53	17366.78
505.71	17706.15
505.88	17067.19
506.06	17324.65
506.23	17692.11
506.41	17507.21
506.58	17790.41
506.76	17820.84
506.93	17584.44
507.11	17551.68
507.28	18003.40
507.46	18029.15
507.63	18111.07
507.81	18438.74
507.98	18094.68
508.16	18122.77
508.33	18207.03
508.50	18050.21
508.68	18366.18
508.85	18450.44
509.03	18361.50
509.20	18492.57
509.38	18743.01
509.55	18560.45
509.73	18703.22
509.90	18333.42
510.08	18574.49
510.25	18644.71
510.42	18897.49
510.60	18735.99
510.77	19084.73
510.95	19178.35
511.12	18785.14
511.30	18848.33
511.47	19166.65
511.64	18904.51
511.82	19220.48
511.99	19353.89
512.17	19339.85
512.34	19374.95
512.51	19613.69
512.69	19466.24
512.86	19866.47
513.04	19782.21
513.21	19822.00
513.38	19735.40
513.56	20091.16
513.73	19644.12
513.90	19751.78
514.08	19908.60
514.25	20135.63
514.43	20133.29
514.60	20386.07
514.77	20133.29
514.95	20231.59
515.12	20168.40
515.29	20203.50
515.47	20484.37
515.64	20575.65
515.81	20493.73
515.99	20496.07
516.16	20795.66
516.33	20627.14
516.51	20910.35
516.68	20872.90
516.85	20659.91
517.03	20638.84
517.20	21022.69
517.37	20774.60
517.54	21165.46
517.72	21001.63
517.89	21088.23
518.06	20908.01
518.24	20772.25
518.41	21137.38
518.58	21032.05
518.75	21174.83
518.93	21319.94
519.10	21542.29
519.27	21591.44
519.45	21099.93
519.62	21439.31
519.79	21291.85
519.96	21474.42
520.14	21401.86
520.31	21603.14
520.48	21612.51
520.65	21535.27
520.83	21912.10
521.00	21752.94
521.17	21373.77
521.34	21909.75
521.52	21603.14
521.69	21797.41
521.86	22104.02
522.03	22141.47
522.20	21846.56
522.38	22522.98
522.55	21830.18
522.72	22218.71
522.89	22338.07
523.07	22485.53
523.24	22464.46
523.41	22869.37
523.58	22295.94
523.75	22263.18
523.92	22553.40
524.10	22457.44
524.27	22537.02
524.44	22632.98
524.61	22831.93
524.78	22553.40
524.96	22623.62
525.13	22640.00
525.30	23147.90
525.47	23080.02
525.64	22946.61
525.81	23381.95
525.98	23269.61
526.16	23506.00
526.33	22986.40
526.50	23330.46
526.67	23019.17
526.84	23433.44
527.01	23374.93
527.18	23285.99
527.36	23417.06
527.53	23805.59
527.70	23543.45
527.87	23721.33
528.04	23349.18
528.21	23307.05
528.38	23608.98
528.55	23716.65
528.72	23620.69
528.89	23812.61
529.07	23449.83
529.24	23768.14
529.41	23604.30
529.58	23562.17
529.75	23847.72
529.92	23843.04
530.09	24065.39
530.26	23889.85
530.43	24245.61
530.60	24140.29
530.77	24093.47
530.94	24091.13
531.11	24559.24
531.28	24107.52
531.46	24072.41
531.63	24662.22
531.80	24592.01
531.97	24423.49
532.14	24519.45
532.31	24430.51
532.48	24334.55
532.65	24891.60
532.82	24596.69
532.99	24905.64
533.16	24671.59
533.33	24446.90
533.50	25067.14
533.67	24606.05
533.84	24753.51
534.01	24680.95
534.18	24645.84
534.35	25116.29
534.52	24767.55
534.69	25127.99
534.86	24673.93
535.03	24865.85
535.20	24755.85
535.37	25261.40
535.54	25280.13
535.71	25186.50
535.88	25214.59
536.05	25359.70
536.22	25317.57
536.38	25841.85
536.55	25560.99
536.72	25839.51
536.89	25364.39
537.06	25324.60
537.23	25832.49
537.40	25729.51
537.57	25663.97
537.74	25713.13
537.91	25607.80
538.08	25862.92
538.25	25539.93
538.42	25778.66
538.59	25951.86
538.75	25783.34
538.92	25500.14
539.09	25476.73
539.26	25671.00
539.43	25752.91
539.60	25968.24
539.77	25940.16
539.94	25944.84
540.11	25916.75
540.28	25970.58
540.44	26298.26
540.61	25703.76
540.78	25816.11
540.95	26052.50
541.12	26279.54
541.29	26426.99
541.46	26307.62
541.62	26307.62
541.79	26293.58
541.96	26068.89
542.13	25860.58
542.30	26319.32
542.47	26672.74
542.63	26525.29
542.80	26745.30
542.97	26991.06
543.14	26969.99
543.31	26602.53
543.48	26691.47
543.64	26747.64
543.81	26888.07
543.98	27208.73
544.15	27220.43
544.32	27124.47
544.48	27222.77
544.65	26955.95
544.82	26876.37
544.99	26782.75
545.16	27042.55
545.32	26682.11
545.49	27049.57
545.66	27185.32
545.83	27012.12
546.00	27611.30
546.16	27349.16
546.33	27012.12
546.50	27206.39
546.67	27517.68
546.83	27014.46
547.00	27543.42
547.17	27412.35
547.34	27360.86
547.50	27187.66
547.67	27527.04
547.84	27498.95
548.00	27814.93
548.17	27660.45
548.34	27524.70
548.51	27812.59
548.67	27791.52
548.84	28180.05
549.01	27704.92
549.18	27967.06
549.34	27999.83
549.51	27651.09
549.68	27325.75
549.84	27974.08
550.01	27950.68
550.18	27950.68
550.34	27786.84
550.51	27978.76
550.68	28526.45
550.84	28002.17
551.01	27772.80
551.18	27964.72
551.34	27835.99
551.51	28098.13
551.68	28091.11
551.84	27817.27
552.01	28044.30
552.18	28175.37
552.34	28027.92
552.51	28662.20
552.68	28051.32
552.84	28566.24
553.01	28294.74
553.18	28610.71
553.34	28479.64
553.51	28367.29
553.67	28519.43
553.84	28891.57
554.01	28608.37
554.17	28655.18
554.34	28528.79
554.51	28634.11
554.67	28732.42
554.84	28481.98
555.00	28673.90
555.17	28325.16
555.33	28594.32
555.50	28456.23
555.67	28739.44
555.83	28924.34
556.00	28514.75
556.16	28802.63
556.33	29001.58
556.50	28826.04
556.66	29195.84
556.83	28931.36
556.99	28893.91
557.16	29441.60
557.32	29127.97
557.49	28861.15
557.65	29097.54
557.82	28861.15
557.98	28898.59
558.15	28716.03
558.32	28954.77
558.48	29188.82
558.65	29418.19
558.81	29048.39
558.98	29392.45
559.14	29329.25
559.31	29081.16
559.47	29200.52
559.64	29324.57
559.80	29062.43
559.97	29411.17
560.13	28987.53
560.30	29340.96
560.46	29682.67
560.63	29324.57
560.79	29364.36
560.96	29516.50
561.12	29214.57
561.29	29076.48
561.45	29490.75
561.61	29411.17
561.78	29701.40
561.94	29965.88
562.11	29567.99
562.27	29886.30
562.44	29509.47
562.60	29261.38
562.77	29598.41
562.93	29324.57
563.10	30085.25
563.26	29764.59
563.42	29764.59
563.59	29738.85
563.75	29539.90
563.92	29493.09
564.08	29935.45
564.24	29654.59
564.41	29427.56
564.57	29289.46
564.74	29617.14
564.90	29951.84
565.07	30279.51
565.23	29771.61
565.39	29490.75
565.56	29514.16
565.72	29696.72
565.88	29766.93
566.05	29628.84
566.21	29825.45
566.38	29652.25
566.54	29755.23
566.70	30071.20
566.87	30096.95
567.03	29797.36
567.19	30368.45
567.36	30155.46
567.52	29902.68
567.68	30132.06
567.85	29923.75
568.01	29947.15
568.17	30068.86
568.34	29968.22
568.50	30181.21
568.66	30307.60
568.83	30295.89
568.99	30005.67
569.15	29780.98
569.32	29881.62
569.48	29811.40
569.64	30096.95
569.81	30281.85
569.97	29530.54
570.13	30302.92
570.30	29991.62
570.46	30455.05
570.62	30221.00
570.78	30132.06
570.95	29898.00
571.11	29783.32
571.27	29572.67
571.43	29792.68
571.60	30319.30
571.76	30134.40
571.92	30010.35
572.09	30270.15
572.25	30230.36
572.41	30323.98
572.57	30333.34
572.74	30118.01
572.90	30431.65
573.06	30174.19
573.22	30270.15
573.38	30450.37
573.55	30071.20
573.71	30265.47
573.87	30455.05
574.03	30038.44
574.20	30359.09
574.36	30291.21
574.52	30174.19
574.68	30265.47
574.84	30059.50
575.01	30368.45
575.17	30377.81
575.33	30221.00
575.49	30206.95
575.65	30361.43
575.82	30761.66
575.98	30157.80
576.14	30150.78
576.30	30253.76
576.46	30363.77
576.62	30403.56
576.79	30457.39
576.95	30036.09
577.11	30335.68
577.27	30448.03
577.43	30443.35
577.59	30464.41
577.75	30349.73
577.92	30106.31
578.08	30312.28
578.24	30204.61
578.40	30361.43
578.56	30543.99
578.72	30696.13
578.88	30520.59
579.04	30733.57
579.21	30106.31
579.37	30066.52
579.53	30466.75
579.69	30436.33
579.85	30462.07
580.01	30321.64
580.17	30073.54
580.33	30244.40
580.49	30270.15
580.65	30693.79
580.82	30579.10
580.98	30469.09
581.14	30424.62
581.30	30588.46
581.46	30614.21
581.62	30462.07
581.78	30478.46
581.94	30429.30
582.10	30513.56
582.26	30490.16
582.42	30553.35
582.58	30532.29
582.74	30799.11
582.90	30480.80
583.06	30794.43
583.22	30249.08
583.38	30555.69
583.54	30616.55
583.70	30817.83
583.86	30642.29
584.02	30433.99
584.18	30529.95
584.34	30445.69
584.50	30775.70
584.66	30567.40
584.82	30387.18
584.98	30689.10
585.14	30452.71
585.30	30274.83
585.46	30480.80
585.62	30567.40
585.78	30712.51
585.94	30452.71
586.10	31145.51
586.26	30522.93
586.42	30796.77
586.58	30684.42
586.74	30670.38
586.90	30838.90
587.06	30279.51
587.22	30866.98
587.38	30192.91
587.54	31161.89
587.70	30787.41
587.86	30642.29
588.02	30899.75
588.18	31353.82
588.34	30958.27
588.49	30609.53
588.65	30548.67
588.81	30656.34
588.97	30749.96
589.13	30352.07
589.29	30679.74
589.45	30558.03
589.61	31384.24
589.77	30958.27
589.93	30986.35
590.08	31079.97
590.24	30813.15
590.40	31068.27
590.56	31388.92
590.72	30621.23
590.88	30646.97
591.04	30749.96
591.20	31386.58
591.35	31199.34
591.51	31248.49
591.67	31442.76
591.83	31269.56
591.99	31281.26
592.15	30787.41
592.31	31147.85
592.46	30836.56
592.62	30607.19
592.78	30654.00
592.94	30780.39
593.10	30698.47
593.26	30948.90
593.41	31295.30
593.57	30845.92
593.73	31044.87
593.89	30855.28
594.05	30932.52
594.20	30932.52
594.36	31129.12
594.52	30724.21
594.68	30803.79
594.84	30710.17
594.99	31545.74
595.15	30885.71
595.31	31555.10
595.47	31117.42
595.62	31182.96
595.78	31166.57
595.94	31365.52
596.10	30848.26
596.25	30801.45
596.41	31243.81
596.57	30899.75
596.73	31040.18
596.88	31250.83
597.04	31503.61
597.20	31089.34
597.36	31145.51
597.51	31372.54
597.67	30848.26
597.83	30972.31
597.99	31152.53
598.14	31061.25
598.30	31115.08
598.46	30590.80
598.61	31222.75
598.77	30939.54
598.93	31161.89
599.09	31180.62
599.24	31587.87
599.40	31229.77
599.56	31143.17
599.71	31393.61
599.87	31658.09
600.03	30888.05
600.18	31065.93
600.34	30691.44
600.50	31068.27
600.65	31201.68
600.81	31227.43
600.97	31330.41
601.12	31445.10
601.28	31461.48
601.44	31651.06
601.59	31473.18
601.75	30923.16
601.91	31622.98
602.06	31014.44
602.22	31342.11
602.37	31377.22
602.53	31255.51
602.69	31302.32
602.84	31393.61
603.00	31578.51
603.16	31283.60
603.31	31325.73
603.47	31337.43
603.62	31002.74
603.78	31199.34
603.94	31037.84
604.09	31386.58
604.25	31461.48
604.40	31175.94
604.56	31299.98
604.71	31185.30
604.87	31307.01
605.03	31037.84
605.18	31246.15
605.34	31309.35
605.49	31143.17
605.65	31405.31
605.80	30845.92
605.96	30803.79
606.12	30895.07
606.27	31058.91
606.43	30890.39
606.58	31473.18
606.74	30981.67
606.89	31742.35
607.05	30902.09
607.20	31243.81
607.36	31077.63
607.51	30829.54
607.67	30785.07
607.82	31051.89
607.98	30967.63
608.13	30918.48
608.29	31035.50
608.44	31178.28
608.60	31283.60
608.75	31138.49
608.91	31068.27
609.06	30932.52
609.22	30962.95
609.37	30859.96
609.53	30836.56
609.68	31035.50
609.84	30941.88
609.99	30920.82
610.15	30625.91
610.30	31154.87
610.46	30937.20
610.61	31185.30
610.76	31225.09
610.92	31019.12
611.07	31129.12
611.23	30993.37
611.38	30881.03
611.54	30614.21
611.69	30745.28
611.84	30553.35
612.00	30614.21
612.15	30579.10
612.31	30904.43
612.46	30749.96
612.62	30925.50
612.77	30761.66
612.92	30724.21
613.08	30944.22
613.23	31204.02
613.39	30822.51
613.54	30150.78
613.69	30567.40
613.85	30787.41
614.00	30813.15
614.15	30808.47
614.31	30553.35
614.46	30635.27
614.62	30501.86
614.77	30728.89
614.92	30874.01
615.08	30981.67
615.23	30707.83
615.38	30436.33
615.54	30621.23
615.69	30242.06
615.84	30410.58
616.00	30452.71
616.15	30443.35
616.30	30412.92
616.46	30628.25
616.61	30555.69
616.76	30387.18
616.92	30529.95
617.07	30445.69
617.22	30527.61
617.37	29970.56
617.53	30153.12
617.68	30326.32
617.83	29942.47
617.99	30368.45
618.14	30316.96
618.29	30204.61
618.45	30321.64
618.60	30253.76
618.75	30218.66
618.90	30225.68
619.06	29916.73
619.21	30263.13
619.36	30242.06
619.51	30094.61
619.67	29736.51
619.82	30239.72
619.97	30031.41
620.12	29912.05
620.28	29839.49
620.43	30082.91
620.58	30221.00
620.73	30258.45
620.89	30043.12
621.04	30085.25
621.19	29933.11
621.34	29951.84
621.49	30134.40
621.65	30146.10
621.80	30125.04
621.95	29827.79
622.10	30089.93
622.25	29682.67
622.41	30099.29
622.56	29792.68
622.71	29912.05
622.86	29717.78
623.01	29930.77
623.16	29998.65
623.32	29720.12
623.47	29523.52
623.62	29858.21
623.77	29731.83
623.92	29570.33
624.07	29303.51
624.23	29663.95
624.38	29748.21
624.53	29792.68
624.68	29696.72
624.83	29846.51
624.98	29474.37
625.13	29724.80
625.29	29982.26
625.44	29553.94
625.59	29511.81
625.74	29528.20
625.89	29738.85
626.04	29167.76
626.19	28896.25
626.34	29345.64
626.49	29319.89
626.65	29090.52
626.80	29331.59
626.95	29170.10
627.10	29411.17
627.25	29355.00
627.40	29118.60
627.55	28830.72
627.70	29158.39
627.85	29111.58
628.00	28950.09
628.15	29530.54
628.30	28875.19
628.45	29127.97
628.60	28945.41
628.76	29235.63
628.91	28999.24
629.06	29085.84
629.21	29392.45
629.36	29142.01
629.51	29315.21
629.66	29214.57
629.81	28753.48
629.96	29078.82
630.11	28882.21
630.26	28978.17
630.41	28538.15
630.56	28645.82
630.71	29024.98
630.86	29064.77
631.01	28868.17
631.16	29048.39
631.31	28828.38
631.46	28678.58
631.61	29062.43
631.76	29085.84
631.91	28491.34
632.06	29062.43
632.21	28821.36
632.36	28561.56
632.51	28723.05
632.66	28718.37
632.81	28631.77
632.96	28678.58
633.10	28664.54
633.25	28266.65
633.40	28781.57
633.55	28591.98
633.70	28432.83
633.85	28765.18
634.00	28355.59
634.15	28414.10
634.30	28383.68
634.45	28290.06
634.60	28219.84
634.75	28327.50
634.90	28549.85
635.05	28180.05
635.19	28781.57
635.34	28428.15
635.49	28474.96
635.64	28685.61
635.79	28369.63
635.94	28423.47
636.09	28407.08
636.24	28201.11
636.39	28091.11
636.53	28128.56
636.68	28231.54
636.83	28252.61
636.98	28367.29
637.13	28353.25
637.28	28411.76
637.43	28074.73
637.57	28137.92
637.72	27913.23
637.87	28182.39
638.02	27742.37
638.17	27887.48
638.32	28070.04
638.46	27742.37
638.61	27782.16
638.76	27580.87
638.91	27604.28
639.06	28020.89
639.20	28084.09
639.35	27838.33
639.50	28130.90
639.65	28093.45
639.80	27747.05
639.94	28039.62
640.09	28065.36
640.24	27456.82
640.39	27623.00
640.54	27606.62
640.68	27482.57
640.83	27688.54
640.98	27351.50
641.13	27400.65
641.27	27578.53
641.42	27363.20
641.57	27461.51
641.72	27618.32
641.86	27410.01
642.01	27613.64
642.16	27690.88
642.31	27445.12
642.45	27550.45
642.60	27229.79
642.75	27241.50
642.90	27117.45
643.04	27295.33
643.19	27054.25
643.34	27335.12
643.48	27215.75
643.63	27491.93
643.78	27690.88
643.93	27501.29
644.07	27213.41
644.22	27335.12
644.37	27098.72
644.51	27395.97
644.66	27728.33
644.81	27288.31
644.95	27330.44
645.10	27267.24
645.25	27161.92
645.39	26974.67
645.54	27257.88
645.69	26960.63
645.83	27255.54
645.98	27440.44
646.13	27033.19
646.27	27040.21
646.42	26836.58
646.57	26759.34
646.71	26883.39
646.86	26728.92
647.00	26969.99
647.15	26698.49
647.30	26738.28
647.44	26562.74
647.59	27222.77
647.74	26918.50
647.88	26497.20
648.03	27199.37
648.17	27227.45
648.32	26998.08
648.47	27072.98
648.61	26789.77
648.76	27335.12
648.90	26855.31
649.05	26890.41
649.20	26731.26
649.34	26338.05
649.49	26263.15
649.63	26675.09
649.78	26859.99
649.92	26520.61
650.07	26820.20
650.21	26581.46
650.36	26527.63
650.51	26431.67
650.65	26410.60
650.80	26560.40
650.94	26565.08
651.09	26541.68
651.23	26609.55
651.38	26448.05
651.52	26316.98
651.67	26279.54
651.81	26466.78
651.96	26412.95
652.10	26352.09
652.25	26066.55
652.39	26422.31
652.54	26555.72
652.68	26340.39
652.83	26391.88
652.97	26483.16
653.12	26377.84
653.26	26361.45
653.41	26015.05
653.55	26132.08
653.70	25727.17
653.84	26111.02
653.99	26412.95
654.13	26080.59
654.27	26256.13
654.42	25813.77
654.56	25935.48
654.71	26089.95
654.85	26223.36
655.00	26206.98
655.14	26054.84
655.29	25949.52
655.43	26471.46
655.57	26080.59
655.72	25724.83
655.86	26054.84
656.01	26197.62
656.15	25811.43
656.30	25764.62
656.44	25626.53
656.58	25879.30
656.73	25785.68
656.87	25570.35
657.01	25645.25
657.16	26012.71
657.30	26272.51
657.45	26010.37
657.59	25986.97
657.73	25830.15
657.88	25832.49
658.02	25432.26
658.16	25474.39
658.31	25626.53
658.45	25827.81
658.60	25589.08
658.74	25263.74
658.88	25591.42
659.03	25401.83
659.17	25518.86
659.31	25408.86
659.46	25214.59
659.60	25153.74
659.74	25717.81
659.89	24985.22
660.03	25127.99
660.17	25289.49
660.32	25095.22
660.46	25282.47
660.60	25181.82
660.74	25149.06
660.89	25221.61
661.03	25043.73
661.17	24966.49
661.32	24634.14
661.46	25003.94
661.60	25106.93
661.74	25177.14
661.89	25163.10
662.03	24924.36
662.17	25090.54
662.31	24912.66
662.46	25008.62
662.60	24980.54
662.74	24931.39
662.88	24694.99
663.03	24643.50
663.17	24615.41
663.31	24793.29
663.45	24278.38
663.60	24561.58
663.74	24566.26
663.88	24465.62
664.02	24276.04
664.17	24671.59
664.31	24517.11
664.45	24428.17
664.59	24657.54
664.73	24484.34
664.88	23999.85
665.02	24105.18
665.16	23967.09
665.30	24123.90
665.44	24128.58
665.59	23915.59
665.73	23761.12
665.87	24133.26
666.01	24072.41
666.15	24034.96
666.29	24051.34
666.44	23756.44
666.58	23765.80
666.72	23854.74
666.86	23943.68
667.00	23896.87
667.14	23744.73
667.28	23693.24
667.43	23597.28
667.57	23714.31
667.71	23342.16
667.85	23538.77
667.99	23700.26
668.13	23594.94
668.27	23749.42
668.41	23751.76
668.56	23297.69
668.70	23697.92
668.84	23288.33
668.98	23559.83
669.12	23398.34
669.26	23513.02
669.40	22944.27
669.54	22885.76
669.68	23662.82
669.82	23026.19
669.96	23257.90
670.10	22810.86
670.25	23068.32
670.39	22555.74
670.53	22871.72
670.67	22965.34
670.81	22948.95
670.95	22977.04
671.09	22647.02
671.23	23019.17
671.37	22754.69
671.51	22705.54
671.65	22630.64
671.79	22661.07
671.93	22829.59
672.07	22616.60
672.21	22616.60
672.35	22340.41
672.49	22525.32
672.63	22153.17
672.77	21994.01
672.91	22155.51
673.05	22314.67
673.19	22326.37
673.33	22031.46
673.47	22141.47
673.61	22061.89
673.75	22157.85
673.89	22150.83
674.03	22078.27
674.17	21986.99
674.31	21762.30
674.45	21783.37
674.59	21858.26
674.73	21692.08
674.87	21687.40
675.01	21813.79
675.15	21422.92
675.29	21582.08
675.43	21179.51
675.56	21467.39
675.70	21415.90
675.84	21352.71
675.98	20908.01
676.12	21806.77
676.26	21151.42
676.40	21366.75
676.54	21135.04
676.68	21149.08
676.82	20688.00
676.96	21149.08
677.10	20809.70
677.23	20650.55
677.37	20737.15
677.51	20526.50
677.65	20748.85
677.79	20400.11
677.93	20521.82
678.07	20587.35
678.21	19981.15
678.34	20343.94
678.48	20156.69
678.62	20322.87
678.76	20723.10
678.90	20025.62
679.04	20039.67
679.18	19812.63
679.31	19826.68
679.45	19578.58
679.59	19489.64
679.73	19819.66
679.87	19541.13
680.00	19475.60
680.14	19742.42
680.28	19477.94
680.42	19770.51
680.56	19452.19
680.70	19438.15
680.83	19576.24
680.97	19386.66
681.11	19080.05
681.25	19171.33
681.39	19197.07
681.52	18906.85
681.66	18993.45
681.80	18963.02
681.94	18878.76
682.07	18771.10
682.21	18670.45
682.35	18448.10
682.49	18663.43
682.62	18618.96
682.76	18583.85
682.90	18548.75
683.04	18469.17
683.17	18682.16
683.31	18644.71
683.45	18200.01
683.59	18272.56
683.72	18354.48
683.86	18347.46
684.00	18010.42
684.13	18150.85
684.27	17942.55
684.41	17928.50
684.55	17832.54
684.68	17649.98
684.82	17479.12
684.96	17867.65
685.09	17549.34
685.23	17539.97
685.37	17682.75
685.50	17727.22
685.64	17577.42
685.78	17530.61
685.91	17635.94
686.05	17362.09
686.19	17584.44
686.32	17432.31
686.46	17114.00
686.60	16776.96
686.73	17053.14
686.87	16861.22
687.01	16844.84
687.14	16769.94
687.28	16947.82
687.42	16835.47
687.55	16578.01
687.69	16503.12
687.82	16184.80
687.96	16711.42
688.10	16563.97
688.23	16383.75
688.37	16414.18
688.50	16514.82
688.64	16250.34
688.78	16187.14
688.91	15910.96
689.05	16287.79
689.18	16051.39
689.32	15742.44
689.46	15854.79
689.59	15707.34
689.73	15779.89
689.86	15939.05
690.00	15536.48
690.13	15807.98
690.27	15492.01
690.41	15845.43
690.54	15578.61
690.68	15576.27
690.81	15578.61
690.95	15723.72
691.08	15653.50
691.22	15618.39
691.35	15176.03
691.49	15199.44
691.62	15246.25
691.76	15126.88
691.89	14963.04
692.03	14923.26
692.16	14768.78
692.30	14504.30
692.43	14656.43
692.57	14544.09
692.70	14658.78
692.84	14492.60
692.97	14417.70
693.11	14614.30
693.24	14471.53
693.38	14380.25
693.51	14370.89
693.65	14394.29
693.78	14462.17
693.92	14122.79
694.05	14359.19
694.19	13940.23
694.32	14279.61
694.45	13902.78
694.59	13745.97
694.72	13619.58
694.86	13532.98
694.99	13504.89
695.13	13832.57
695.26	13600.85
695.39	13270.84
695.53	13528.30
695.66	13345.73
695.80	13357.44
695.93	13455.74
696.07	13458.08
696.20	13315.31
696.33	13071.89
696.47	13142.11
696.60	13188.92
696.73	13109.34
696.87	13128.06
697.00	12952.52
697.14	12648.26
697.27	12645.91
697.40	12482.08
697.54	12603.78
697.67	12659.96
697.80	12493.78
697.94	12510.16
698.07	12325.26
698.21	12276.11
698.34	12585.06
698.47	12266.75
698.61	12411.86
698.74	12620.17
698.87	12278.45
699.01	12154.40
699.14	12084.19
699.27	12184.83
699.40	12201.21
699.54	12252.70
699.67	12067.80
699.80	11880.56
699.94	11967.16
700.07	11782.26
700.20	11496.71
700.34	11520.12
700.47	11634.80
700.60	11482.67
700.73	11754.17
700.87	11342.24
701.00	11267.34
701.13	11440.54
701.26	11360.96
701.40	11442.88
701.53	11262.66
701.66	11410.11
701.79	11192.44
701.93	11133.93
702.06	11187.76
702.19	11049.67
702.32	11033.29
702.46	10635.39
702.59	10752.42
702.72	10677.52
702.85	10963.07
702.99	10553.48
703.12	10619.01
703.25	10499.64
703.38	10726.68
703.51	10600.29
703.65	10438.79
703.78	10256.23
703.91	10537.09
704.04	10459.85
704.17	10352.19
704.31	10307.72
704.44	10197.71
704.57	10153.24
704.70	9902.81
704.83	9877.06
704.96	10038.56
705.10	9961.32
705.23	9895.78
>>>>>End Processed Spectral Data<<<<<
