SpectraSuite Data File
++++++++++++++++++++++++++++++++++++
Date: Fri Oct 18 13:58:09 GMT-05:00 2013
User: bianchi
Dark Spectrum Present: No
Reference Spectrum Present: No
Number of Sampled Component Spectra: 1
Spectrometers: USB2+H05261
Integration Time (usec): 50000 (USB2+H05261)
Spectra Averaged: 1 (USB2+H05261)
Boxcar Smoothing: 0 (USB2+H05261)
Correct for Electrical Dark: No (USB2+H05261)
Strobe/Lamp Enabled: No (USB2+H05261)
Correct for Detector Non-linearity: No (USB2+H05261)
Correct for Stray Light: No (USB2+H05261)
Number of Pixels in Processed Spectrum: 2048
>>>>>Begin Processed Spectral Data<<<<<
365.73	0.00
365.92	0.00
366.12	0.00
366.32	0.00
366.52	0.00
366.72	0.00
366.91	0.00
367.11	0.00
367.31	0.00
367.51	0.00
367.70	0.00
367.90	0.00
368.10	0.00
368.30	0.00
368.49	0.00
368.69	0.00
368.89	0.00
369.09	0.00
369.28	0.00
369.48	0.00
369.68	0.00
369.87	0.00
370.07	0.00
370.27	0.00
370.47	7.02
370.66	65.54
370.86	79.58
371.06	102.98
371.25	161.50
371.45	114.69
371.65	67.88
371.84	145.11
372.04	187.24
372.24	201.29
372.44	175.54
372.63	201.29
372.83	173.20
373.03	201.29
373.22	215.33
373.42	117.03
373.62	220.01
373.81	224.69
374.01	215.33
374.21	248.10
374.40	173.20
374.60	255.12
374.79	177.88
374.99	271.50
375.19	313.63
375.38	278.52
375.58	290.23
375.78	308.95
375.97	259.80
376.17	264.48
376.37	255.12
376.56	341.72
376.76	241.08
376.95	215.33
377.15	278.52
377.35	264.48
377.54	304.27
377.74	311.29
377.93	278.52
378.13	262.14
378.33	304.27
378.52	280.86
378.72	264.48
378.91	334.70
379.11	271.50
379.31	243.42
379.50	283.20
379.70	327.68
379.89	337.04
380.09	301.93
380.28	325.33
380.48	313.63
380.68	365.12
380.87	351.08
381.07	276.18
381.26	313.63
381.46	341.72
381.65	397.89
381.85	388.53
382.04	362.78
382.24	372.15
382.43	322.99
382.63	376.83
382.83	351.08
383.02	332.36
383.22	388.53
383.41	325.33
383.61	374.49
383.80	308.95
384.00	341.72
384.19	374.49
384.39	318.31
384.58	393.21
384.78	414.27
384.97	353.42
385.17	411.93
385.36	390.87
385.56	330.02
385.75	390.87
385.95	421.30
386.14	430.66
386.34	397.89
386.53	402.57
386.72	463.43
386.92	388.53
387.11	390.87
387.31	437.68
387.50	416.62
387.70	393.21
387.89	386.19
388.09	428.32
388.28	381.51
388.48	479.81
388.67	433.00
388.86	447.04
389.06	423.64
389.25	510.24
389.45	505.56
389.64	477.47
389.84	496.19
390.03	477.47
390.22	517.26
390.42	458.74
390.61	433.00
390.81	493.85
391.00	512.58
391.19	575.77
391.39	524.28
391.58	510.24
391.78	526.62
391.97	573.43
392.16	589.82
392.36	578.11
392.55	547.69
392.75	608.54
392.94	608.54
393.13	575.77
393.33	557.05
393.52	592.16
393.71	564.07
393.91	620.24
394.10	519.60
394.29	568.75
394.49	557.05
394.68	641.31
394.88	564.07
395.07	587.47
395.26	557.05
395.46	620.24
395.65	657.69
395.84	723.23
396.04	718.54
396.23	596.84
396.42	692.80
396.62	683.44
396.81	711.52
397.00	608.54
397.19	606.20
397.39	582.79
397.58	676.41
397.77	685.78
397.97	667.05
398.16	774.72
398.35	744.29
398.55	697.48
398.74	713.86
398.93	751.31
399.12	784.08
399.32	760.67
399.51	727.91
399.70	816.85
399.90	730.25
400.09	751.31
400.28	858.98
400.47	826.21
400.67	751.31
400.86	758.33
401.05	823.87
401.24	842.59
401.44	830.89
401.63	844.93
401.82	826.21
402.01	847.27
402.21	800.46
402.40	873.02
402.59	755.99
402.78	781.74
402.97	786.42
403.17	901.11
403.36	866.00
403.55	830.89
403.74	873.02
403.93	926.85
404.13	940.90
404.32	912.81
404.51	905.79
404.70	903.45
404.89	884.72
405.09	943.24
405.28	1011.11
405.47	1022.81
405.66	950.26
405.85	1027.50
406.05	1057.92
406.24	987.71
406.43	915.15
406.62	983.02
406.81	1111.75
407.00	966.64
407.20	973.66
407.39	1067.28
407.58	1050.90
407.77	1013.45
407.96	1029.84
408.15	1144.52
408.34	1160.91
408.54	1238.14
408.73	1107.07
408.92	1177.29
409.11	1181.97
409.30	1242.82
409.49	1167.93
409.68	1181.97
409.87	1111.75
410.07	1226.44
410.26	1172.61
410.45	1207.72
410.64	1207.72
410.83	1247.51
411.02	1188.99
411.21	1263.89
411.40	1137.50
411.59	1313.04
411.78	1322.40
411.98	1334.11
412.17	1404.32
412.36	1383.26
412.55	1336.45
412.74	1446.45
412.93	1409.00
413.12	1343.47
413.31	1411.34
413.50	1390.28
413.69	1430.07
413.88	1401.98
414.07	1516.67
414.26	1472.20
414.45	1418.36
414.64	1544.75
414.83	1551.78
415.02	1537.73
415.22	1572.84
415.41	1605.61
415.60	1668.80
415.79	1458.15
415.98	1706.25
416.17	1586.88
416.36	1612.63
416.55	1722.63
416.74	1617.31
416.93	1579.86
417.12	1762.42
417.31	1713.27
417.50	1685.19
417.69	1818.60
417.88	1802.21
418.07	1689.87
418.26	1825.62
418.45	1724.97
418.64	1853.70
418.83	1900.52
419.02	1881.79
419.21	1790.51
419.39	1743.70
419.58	1776.47
419.77	1783.49
419.96	1799.87
420.15	1860.73
420.34	1865.41
420.53	1804.55
420.72	1912.22
420.91	1961.37
421.10	1914.56
421.29	2071.37
421.48	1900.52
421.67	2062.01
421.86	2015.20
422.05	2031.58
422.24	2033.93
422.43	1961.37
422.61	2031.58
422.80	2092.44
422.99	2146.27
423.18	1919.24
423.37	1984.77
423.56	2036.27
423.75	2087.76
423.94	2085.42
424.13	1914.56
424.32	1940.30
424.50	2092.44
424.69	2076.06
424.88	2101.80
425.07	2017.54
425.26	2019.88
425.45	2076.06
425.64	2071.37
425.83	2062.01
426.01	2092.44
426.20	2012.86
426.39	2108.82
426.58	2216.49
426.77	2097.12
426.96	2092.44
427.15	2108.82
427.33	2235.21
427.52	2129.89
427.71	2174.36
427.90	2118.18
428.09	2190.74
428.28	2202.44
428.46	2249.25
428.65	2251.60
428.84	2228.19
429.03	2165.00
429.22	2188.40
429.40	2277.34
429.59	2204.78
429.78	2197.76
429.97	2169.68
430.16	2312.45
430.34	2228.19
430.53	2340.54
430.72	2345.22
430.91	2338.20
431.10	2361.60
431.28	2471.61
431.47	2406.07
431.66	2394.37
431.85	2352.24
432.03	2370.96
432.22	2417.77
432.41	2511.39
432.60	2427.14
432.79	2476.29
432.97	2586.29
433.16	2509.05
433.35	2586.29
433.54	2452.88
433.72	2487.99
433.91	2516.08
434.10	2612.04
434.28	2476.29
434.47	2553.52
434.66	2459.90
434.85	2628.42
435.03	2581.61
435.22	2511.39
435.41	2614.38
435.59	2736.09
435.78	2644.81
435.97	2619.06
436.16	2768.85
436.34	2712.68
436.53	2630.76
436.72	2766.51
436.90	2785.24
437.09	2857.79
437.28	2626.08
437.46	2724.38
437.65	2698.64
437.84	2698.64
438.02	2787.58
438.21	2864.82
438.40	2860.13
438.58	2803.96
438.77	2810.98
438.96	2892.90
439.14	2974.82
439.33	2878.86
439.52	2991.20
439.70	2967.80
439.89	3002.91
440.08	3089.51
440.26	3110.57
440.45	3176.11
440.63	3178.45
440.82	3176.11
441.01	3262.71
441.19	3105.89
441.38	3260.37
441.57	3251.00
441.75	3169.09
441.94	3379.73
442.12	3283.77
442.31	3302.50
442.50	3337.60
442.68	3281.43
442.87	3335.26
443.05	3473.36
443.24	3407.82
443.43	3529.53
443.61	3403.14
443.80	3585.70
443.98	3391.44
444.17	3276.75
444.35	3459.31
444.54	3475.70
444.73	3379.73
444.91	3478.04
445.10	3463.99
445.28	3538.89
445.47	3442.93
445.65	3365.69
445.84	3330.58
446.02	3489.74
446.21	3595.06
446.39	3473.36
446.58	3566.98
446.77	3454.63
446.95	3496.76
447.14	3552.93
447.32	3541.23
447.51	3564.64
447.69	3674.64
447.88	3602.08
448.06	3597.40
448.25	3595.06
448.43	3576.34
448.62	3503.78
448.80	3597.40
448.99	3527.19
449.17	3700.39
449.36	3658.26
449.54	3747.20
449.73	3735.50
449.91	3770.60
450.10	3653.58
450.28	3691.02
450.46	3707.41
450.65	3735.50
450.83	3861.88
451.02	3819.75
451.20	3922.74
451.39	3662.94
451.57	3847.84
451.76	3733.15
451.94	3824.44
452.13	3854.86
452.31	3791.67
452.49	3901.67
452.68	3911.04
452.86	3887.63
453.05	3957.85
453.23	3946.14
453.42	3953.16
453.60	3918.06
453.78	3929.76
453.97	3964.87
454.15	4114.66
454.34	3983.59
454.52	3889.97
454.70	4135.73
454.89	4004.66
455.07	4194.24
455.26	4163.81
455.44	4135.73
455.62	4163.81
455.81	4081.89
455.99	4098.28
456.17	4294.88
456.36	4212.96
456.54	4280.84
456.73	4339.35
456.91	4337.01
457.09	4297.22
457.28	4362.76
457.46	4203.60
457.64	4386.16
457.83	4322.97
458.01	4348.72
458.19	4428.29
458.38	4332.33
458.56	4458.72
458.74	4472.76
458.93	4397.87
459.11	4496.17
459.29	4521.92
459.48	4428.29
459.66	4557.02
459.84	4566.39
460.03	4571.07
460.21	4507.87
460.39	4545.32
460.57	4688.09
460.76	4617.88
460.94	4688.09
461.12	4695.11
461.31	4870.65
461.49	4777.03
461.67	4727.88
461.85	4858.95
462.04	4706.82
462.22	5027.47
462.40	4905.76
462.59	4905.76
462.77	4915.12
462.95	4933.85
463.13	4821.50
463.32	4833.21
463.50	4901.08
463.68	4929.17
463.86	4908.10
464.05	4924.49
464.23	4957.25
464.41	4957.25
464.59	4891.72
464.78	5034.49
464.96	5146.84
465.14	5013.43
465.32	4999.38
465.50	5097.69
465.69	5109.39
465.87	5027.47
466.05	4840.23
466.23	4999.38
466.41	5067.26
466.60	5160.88
466.78	5160.88
466.96	5163.22
467.14	4994.70
467.32	5142.16
467.51	5238.12
467.69	4894.06
467.87	5397.28
468.05	5228.76
468.23	5163.22
468.41	5184.29
468.60	5284.93
468.78	5294.29
468.96	5137.48
469.14	5462.81
469.32	5266.21
469.50	5256.84
469.69	5380.89
469.87	5509.62
470.05	5509.62
470.23	5401.96
470.41	5359.83
470.59	5406.64
470.77	5437.06
470.95	5572.82
471.14	5617.29
471.32	5483.88
471.50	5783.46
471.68	5851.34
471.86	5699.20
472.04	5757.72
472.22	5944.96
472.40	5827.93
472.58	5657.07
472.77	5802.19
472.95	5973.05
473.13	6059.65
473.31	5912.19
473.49	5795.17
473.67	6022.20
473.85	5989.43
474.03	5888.79
474.21	6029.22
474.39	6263.27
474.57	6195.40
474.75	6113.48
474.93	6174.33
475.12	6291.36
475.30	6328.81
475.48	6291.36
475.66	6363.92
475.84	6384.98
476.02	6504.35
476.20	6188.38
476.38	6703.29
476.56	6590.95
476.74	6530.09
476.92	6684.57
477.10	6810.96
477.28	6836.70
477.46	6614.35
477.64	6885.86
477.82	6920.96
478.00	7101.19
478.18	7014.59
478.36	6913.94
478.54	7133.95
478.72	7208.85
478.90	7344.60
479.08	7400.77
479.26	7459.29
479.44	7386.73
479.62	7344.60
479.80	7569.29
479.98	7524.82
480.16	7726.11
480.34	7478.01
480.52	7573.97
480.70	7779.94
480.88	7761.22
481.06	7922.71
481.24	7770.58
481.41	7906.33
481.59	8124.00
481.77	7857.18
481.95	8093.57
482.13	8395.50
482.31	8175.49
482.49	8381.46
482.67	8250.39
482.85	8477.42
483.03	8414.23
483.21	8685.73
483.39	8690.41
483.57	8667.00
483.74	8706.79
483.92	9062.55
484.10	8688.07
484.28	9029.79
484.46	9160.86
484.64	9291.93
484.82	9174.90
485.00	9191.28
485.18	9446.40
485.35	9621.94
485.53	9736.63
485.71	9563.43
485.89	9792.80
486.07	9458.10
486.25	9603.22
486.43	9863.02
486.61	9944.94
486.78	10080.69
486.96	10195.37
487.14	10146.22
487.32	10012.81
487.50	10270.27
487.68	10541.77
487.85	10738.38
488.03	10410.70
488.21	10806.25
488.39	10530.07
488.57	10775.83
488.75	10911.58
488.92	11080.10
489.10	11147.97
489.28	11049.67
489.46	11269.68
489.64	11255.64
489.81	11272.02
489.99	11590.33
490.17	11520.12
490.35	11779.92
490.53	11522.46
490.70	11838.43
490.88	11838.43
491.06	11988.22
491.24	11854.81
491.41	12009.29
491.59	12121.63
491.77	12236.32
491.95	12294.83
492.13	12400.16
492.30	12620.17
492.48	12294.83
492.66	12369.73
492.84	12556.97
493.01	12858.90
493.19	12795.71
493.37	12994.65
493.54	12936.14
493.72	13324.67
493.90	12936.14
494.08	13233.39
494.25	13277.86
494.43	13350.42
494.61	13579.79
494.79	13621.92
494.96	13509.57
495.14	13778.73
495.32	13874.70
495.49	13923.85
495.67	13916.83
495.85	13855.97
496.02	14209.39
496.20	13809.16
496.38	14083.00
496.55	14160.24
496.73	14291.31
496.91	14235.14
497.09	14450.47
497.26	14752.40
497.44	14209.39
497.62	14553.45
497.79	14817.93
497.97	14860.06
498.14	14920.92
498.32	14960.70
498.50	14913.89
498.67	15094.11
498.85	15211.14
499.03	15159.65
499.20	15484.98
499.38	15267.31
499.56	15382.00
499.73	15529.45
499.91	15646.48
500.08	15964.79
500.26	15557.54
500.44	15501.37
500.61	15817.34
500.79	15688.61
500.97	15882.88
501.14	16453.97
501.32	16063.10
501.49	16058.42
501.67	16123.95
501.84	16365.03
502.02	16191.83
502.20	16343.96
502.37	16423.54
502.55	16367.37
502.72	16767.60
502.90	16451.63
503.07	16535.88
503.25	16587.38
503.43	16779.30
503.60	16617.80
503.78	16830.79
503.95	16802.71
504.13	17078.89
504.30	16882.28
504.48	16905.69
504.65	16936.12
504.83	17055.48
505.01	17324.65
505.18	17338.69
505.36	17458.06
505.53	17380.82
505.71	17289.54
505.88	17502.53
506.06	17664.02
506.23	17591.47
506.41	17467.42
506.58	17472.10
506.76	17528.27
506.93	17860.63
507.11	17738.92
507.28	17933.18
507.46	18104.04
507.63	17907.44
507.81	17839.56
507.98	18181.28
508.16	18090.00
508.33	17867.65
508.50	18169.58
508.68	18146.17
508.85	18452.78
509.03	18569.81
509.20	18169.58
509.38	18647.05
509.55	18750.03
509.73	18604.92
509.90	18916.21
510.08	18633.00
510.25	18757.05
510.42	18913.87
510.60	18862.38
510.77	19281.33
510.95	19068.34
511.12	18913.87
511.30	18883.44
511.47	19119.84
511.64	19190.05
511.82	19248.57
511.99	19370.27
512.17	19461.55
512.34	19204.10
512.51	19400.70
512.69	19690.93
512.86	19438.15
513.04	19520.07
513.21	19761.14
513.38	19796.25
513.56	19953.07
513.73	19747.10
513.90	19995.20
514.08	19674.54
514.25	19999.88
514.43	20039.67
514.60	20168.40
514.77	19990.52
514.95	20006.90
515.12	20372.02
515.29	20095.84
515.47	20383.73
515.64	20673.95
515.81	20451.60
515.99	20898.64
516.16	20503.09
516.33	20795.66
516.51	20959.50
516.68	20435.22
516.85	20430.54
517.03	20821.41
517.20	20943.11
517.37	20861.19
517.54	20842.47
517.72	20910.35
517.89	20912.69
518.06	20889.28
518.24	21055.46
518.41	21219.30
518.58	21165.46
518.75	21338.66
518.93	21235.68
519.10	21219.30
519.27	21174.83
519.45	21542.29
519.62	21699.11
519.79	21518.89
519.96	21708.47
520.14	22043.17
520.31	21411.22
520.48	21497.82
520.65	21635.91
520.83	22001.04
521.00	21975.29
521.17	21568.04
521.34	21701.45
521.52	22015.08
521.69	22185.94
521.86	22265.52
522.03	22394.25
522.20	22054.87
522.38	21970.61
522.55	21867.63
522.72	22471.48
522.89	22408.29
523.07	22583.83
523.24	22457.44
523.41	22363.82
523.58	22195.30
523.75	22441.06
523.92	22389.56
524.10	22607.23
524.27	22897.46
524.44	22993.42
524.61	22782.77
524.78	22834.27
524.96	22658.73
525.13	22728.94
525.30	22810.86
525.47	22944.27
525.64	22845.97
525.81	23049.60
525.98	23005.13
526.16	23035.55
526.33	23314.08
526.50	23370.25
526.67	22974.70
526.84	23187.69
527.01	23192.37
527.18	23152.58
527.36	23190.03
527.53	23276.63
527.70	23356.21
527.87	23798.57
528.04	23477.91
528.21	23866.44
528.38	23744.73
528.55	23786.86
528.72	23807.93
528.89	23868.78
529.07	23931.98
529.24	23477.91
529.41	23910.91
529.58	23672.18
529.75	23721.33
529.92	23871.12
530.09	23857.08
530.26	23953.04
530.43	23946.02
530.60	24393.06
530.77	23997.51
530.94	24697.33
531.11	23674.52
531.28	24166.03
531.46	24505.41
531.63	24645.84
531.80	24435.19
531.97	24095.82
532.14	24938.41
532.31	24161.35
532.48	24865.85
532.65	24629.46
532.82	24676.27
532.99	24250.29
533.16	24641.16
533.33	24964.15
533.50	24816.70
533.67	24793.29
533.84	24730.10
534.01	24753.51
534.18	24746.48
534.35	25120.97
534.52	24648.18
534.69	25078.84
534.86	25088.20
535.03	25043.73
535.20	25078.84
535.37	25340.98
535.54	25340.98
535.71	25256.72
535.88	25242.68
536.05	25177.14
536.22	25462.69
536.38	25628.87
536.55	25205.23
536.72	25469.71
536.89	25392.47
537.06	25694.40
537.23	25804.41
537.40	25305.87
537.57	25404.17
537.74	25635.89
537.91	25937.82
538.08	25638.23
538.25	25596.10
538.42	25991.65
538.59	25869.94
538.75	25593.76
538.92	25628.87
539.09	25867.60
539.26	26153.15
539.43	26036.12
539.60	25949.52
539.77	25951.86
539.94	26125.06
540.11	25759.94
540.28	26237.41
540.44	26249.11
540.61	25883.98
540.78	26036.12
540.95	26111.02
541.12	25942.50
541.29	26178.89
541.46	26061.87
541.62	26029.10
541.79	26307.62
541.96	25860.58
542.13	26103.99
542.30	26176.55
542.47	26469.12
542.63	26726.58
542.80	26829.56
542.97	26733.60
543.14	27175.96
543.31	26815.52
543.48	26602.53
543.64	27197.02
543.81	26696.15
543.98	27101.06
544.15	27112.77
544.32	26932.54
544.48	27304.69
544.65	26995.74
544.82	26602.53
544.99	26855.31
545.16	27070.64
545.32	27314.05
545.49	27744.71
545.66	27190.00
545.83	27381.93
546.00	27278.94
546.16	27587.89
546.33	27159.58
546.50	27087.02
546.67	27524.70
546.83	26874.03
547.00	27398.31
547.17	27292.99
547.34	27459.16
547.50	27707.26
547.67	27578.53
547.84	27594.92
548.00	27335.12
548.17	27508.32
548.34	27789.18
548.51	27955.36
548.67	28123.88
548.84	27543.42
549.01	27676.83
549.18	27735.35
549.34	27658.11
549.51	28091.11
549.68	27414.69
549.84	27573.85
550.01	28315.80
550.18	27576.19
550.34	27630.02
550.51	28121.54
550.68	28074.73
550.84	27868.76
551.01	28084.09
551.18	27882.80
551.34	27733.01
551.51	28163.67
551.68	27999.83
551.84	28222.18
552.01	28280.69
552.18	28474.96
552.34	28233.88
552.51	28407.08
552.68	28327.50
552.84	28615.39
553.01	28238.56
553.18	28652.84
553.34	28290.06
553.51	28435.17
553.67	28629.43
553.84	28861.15
554.01	28723.05
554.17	28573.26
554.34	28652.84
554.51	28299.42
554.67	28826.04
554.84	28477.30
555.00	28489.00
555.17	28844.76
555.33	28683.27
555.50	28613.05
555.67	28727.74
555.83	28613.05
556.00	28790.93
556.16	28879.87
556.33	28662.20
556.50	29017.96
556.66	28917.32
556.83	28875.19
556.99	29242.65
557.16	29322.23
557.32	29156.05
557.49	29422.87
557.65	28659.86
557.82	29015.62
557.98	29046.05
558.15	28898.59
558.32	29036.69
558.48	29233.29
558.65	29411.17
558.81	29104.56
558.98	29242.65
559.14	29525.86
559.31	29116.26
559.47	29020.30
559.64	28896.25
559.80	29048.39
559.97	29521.18
560.13	29259.04
560.30	29191.16
560.46	29385.43
560.63	29252.02
560.79	29523.52
560.96	29539.90
561.12	29397.13
561.29	29656.93
561.45	29256.70
561.61	29404.15
561.78	29380.74
561.94	29596.07
562.11	29935.45
562.27	29670.97
562.44	29558.63
562.60	29717.78
562.77	29476.71
562.93	29516.50
563.10	29455.64
563.26	29467.34
563.42	29738.85
563.59	29617.14
563.75	30029.07
563.92	29780.98
564.08	29186.48
564.24	29701.40
564.41	29479.05
564.57	29694.38
564.74	29858.21
564.90	30113.33
565.07	29890.98
565.23	30054.82
565.39	29898.00
565.56	29919.07
565.72	29914.39
565.88	29991.62
566.05	29832.47
566.21	29773.95
566.38	29846.51
566.54	29797.36
566.70	29907.37
566.87	29832.47
567.03	29862.90
567.19	30015.03
567.36	29926.09
567.52	29837.15
567.68	30045.46
567.85	30171.85
568.01	29855.87
568.17	30059.50
568.34	29893.32
568.50	29776.30
568.66	29958.86
568.83	30265.47
568.99	29752.89
569.15	30195.25
569.32	29982.26
569.48	29886.30
569.64	30225.68
569.81	29860.55
569.97	30071.20
570.13	30022.05
570.30	29696.72
570.46	29881.62
570.62	30167.16
570.78	30080.56
570.95	29862.90
571.11	30078.22
571.27	29984.60
571.43	30064.18
571.60	30073.54
571.76	30005.67
571.92	30092.27
572.09	30370.79
572.25	30242.06
572.41	30436.33
572.57	30429.30
572.74	30422.28
572.90	29963.54
573.06	30424.62
573.22	30618.89
573.38	30349.73
573.55	30045.46
573.71	30452.71
573.87	30808.47
574.03	30148.44
574.20	30288.87
574.36	29804.38
574.52	30197.59
574.68	30426.96
574.84	30391.86
575.01	30403.56
575.17	30546.33
575.33	30457.39
575.49	30333.34
575.65	30511.22
575.82	30794.43
575.98	30438.67
576.14	30483.14
576.30	30291.21
576.46	30188.23
576.62	30094.61
576.79	30188.23
576.95	30590.80
577.11	30232.70
577.27	30342.70
577.43	30684.42
577.59	30319.30
577.75	30228.02
577.92	29888.64
578.08	30417.60
578.24	30621.23
578.40	30382.49
578.56	30345.05
578.72	30230.36
578.88	30646.97
579.04	30829.54
579.21	30651.66
579.37	30799.11
579.53	30813.15
579.69	30237.38
579.85	30391.86
580.01	30190.57
580.17	30185.89
580.33	30586.12
580.49	30700.81
580.65	30375.47
580.82	30890.39
580.98	30450.37
581.14	30838.90
581.30	30637.61
581.46	30504.20
581.62	30445.69
581.78	30211.64
581.94	30527.61
582.10	30302.92
582.26	30593.14
582.42	30604.84
582.58	30345.05
582.74	30876.35
582.90	30799.11
583.06	30494.84
583.22	30436.33
583.38	30335.68
583.54	30190.57
583.70	30499.52
583.86	30998.06
584.02	30721.87
584.18	30843.58
584.34	30417.60
584.50	31220.41
584.66	30504.20
584.82	30228.02
584.98	30745.28
585.14	30038.44
585.30	30110.99
585.46	30459.73
585.62	30731.23
585.78	30586.12
585.94	30487.82
586.10	30628.25
586.26	30579.10
586.42	30719.53
586.58	30925.50
586.74	30354.41
586.90	30321.64
587.06	30391.86
587.22	30719.53
587.38	30710.17
587.54	30686.76
587.70	30878.69
587.86	30675.06
588.02	30871.67
588.18	31197.00
588.34	30827.20
588.49	30581.44
588.65	30448.03
588.81	30483.14
588.97	30820.17
589.13	30583.78
589.29	30974.65
589.45	30817.83
589.61	30831.88
589.77	30834.22
589.93	31033.16
590.08	31079.97
590.24	30773.36
590.40	31129.12
590.56	31049.55
590.72	30499.52
590.88	31314.03
591.04	30974.65
591.20	31248.49
591.35	31278.92
591.51	30930.18
591.67	31248.49
591.83	30981.67
591.99	31463.82
592.15	31119.76
592.31	30820.17
592.46	30897.41
592.62	30808.47
592.78	30986.35
592.94	30492.50
593.10	30813.15
593.26	31318.71
593.41	31297.64
593.57	31094.02
593.73	31255.51
593.89	31316.37
594.05	31122.10
594.20	30920.82
594.36	31318.71
594.52	30740.60
594.68	31035.50
594.84	30930.18
594.99	31101.04
595.15	30948.90
595.31	31206.36
595.47	31180.62
595.62	31330.41
595.78	31119.76
595.94	31056.57
596.10	31070.61
596.25	31084.65
596.41	30953.58
596.57	31072.95
596.73	31002.74
596.88	30967.63
597.04	31321.05
597.20	31096.36
597.36	31531.70
597.51	31131.47
597.67	31573.83
597.83	30810.81
597.99	31295.30
598.14	31452.12
598.30	30866.98
598.46	31309.35
598.61	31452.12
598.77	30998.06
598.93	30927.84
599.09	31309.35
599.24	31637.02
599.40	31218.07
599.56	31311.69
599.71	31414.67
599.87	31012.10
600.03	31285.94
600.18	30691.44
600.34	31159.55
600.50	31005.08
600.65	31363.18
600.81	31241.47
600.97	31140.83
601.12	31522.34
601.28	31578.51
601.44	31665.11
601.59	31489.57
601.75	31091.68
601.91	31440.42
602.06	31290.62
602.22	31564.46
602.37	31171.25
602.53	31119.76
602.69	31363.18
602.84	31445.10
603.00	31402.97
603.16	31447.44
603.31	31405.31
603.47	31365.52
603.62	31005.08
603.78	31641.70
603.94	31686.17
604.09	31028.48
604.25	31103.38
604.40	31115.08
604.56	31424.03
604.71	31597.23
604.87	31103.38
605.03	31433.39
605.18	31562.12
605.34	31276.58
605.49	30974.65
605.65	30794.43
605.80	30635.27
605.96	30937.20
606.12	30976.99
606.27	31115.08
606.43	30955.93
606.58	31365.52
606.74	31136.15
606.89	31225.09
607.05	31489.57
607.20	31477.86
607.36	31250.83
607.51	31005.08
607.67	30904.43
607.82	31358.50
607.98	31089.34
608.13	31173.60
608.29	31047.21
608.44	31482.55
608.60	30845.92
608.75	31358.50
608.91	31000.40
609.06	30993.37
609.22	31236.79
609.37	30611.87
609.53	30951.24
609.68	30864.64
609.84	30768.68
609.99	30668.04
610.15	30822.51
610.30	31072.95
610.46	31002.74
610.61	31147.85
610.76	30742.94
610.92	31405.31
611.07	31248.49
611.23	30696.13
611.38	30799.11
611.54	30558.03
611.69	30714.85
611.84	30572.08
612.00	30609.53
612.15	30555.69
612.31	30806.13
612.46	30745.28
612.62	31058.91
612.77	31065.93
612.92	31007.42
613.08	30714.85
613.23	30799.11
613.39	30698.47
613.54	30918.48
613.69	30494.84
613.85	30616.55
614.00	30614.21
614.15	30869.33
614.31	30333.34
614.46	30930.18
614.62	30300.58
614.77	30347.39
614.92	30749.96
615.08	30766.34
615.23	30621.23
615.38	30581.44
615.54	30410.58
615.69	30368.45
615.84	30408.24
616.00	30403.56
616.15	30450.37
616.30	30529.95
616.46	30342.70
616.61	30700.81
616.76	30658.68
616.92	30316.96
617.07	29846.51
617.22	30052.48
617.37	30597.82
617.53	30693.79
617.68	30473.78
617.83	29926.09
617.99	30249.08
618.14	30368.45
618.29	30565.06
618.45	30513.56
618.60	30380.15
618.75	30586.12
618.90	30150.78
619.06	30333.34
619.21	30199.93
619.36	30132.06
619.51	30005.67
619.67	30237.38
619.82	29647.57
619.97	30197.59
620.12	30232.70
620.28	29912.05
620.43	29890.98
620.58	30487.82
620.73	30155.46
620.89	29745.87
621.04	30202.27
621.19	29935.45
621.34	30157.80
621.49	29893.32
621.65	29647.57
621.80	30125.04
621.95	29848.85
622.10	29832.47
622.25	29617.14
622.41	29680.33
622.56	29495.43
622.71	30103.97
622.86	30185.89
623.01	30050.14
623.16	29596.07
623.32	29598.41
623.47	30174.19
623.62	29811.40
623.77	29841.83
623.92	29989.28
624.07	29619.48
624.23	29434.58
624.38	29755.23
624.53	29764.59
624.68	29811.40
624.83	29701.40
624.98	30092.27
625.13	29556.28
625.29	29886.30
625.44	29799.70
625.59	29380.74
625.74	29495.43
625.89	29509.47
626.04	29415.85
626.19	29373.72
626.34	29261.38
626.49	28968.81
626.65	29453.30
626.80	29359.68
626.95	29364.36
627.10	29376.06
627.25	29544.58
627.40	29249.67
627.55	29305.85
627.70	29350.32
627.85	29214.57
628.00	29071.79
628.15	29130.31
628.30	28929.02
628.45	29439.26
628.60	28666.88
628.76	29394.79
628.91	28926.68
629.06	29207.55
629.21	29280.10
629.36	29235.63
629.51	29027.32
629.66	29013.28
629.81	28582.62
629.96	29195.84
630.11	28737.10
630.26	28830.72
630.41	28563.90
630.56	28870.51
630.71	29228.61
630.86	29069.45
631.01	28994.56
631.16	28718.37
631.31	28828.38
631.46	28325.16
631.61	28959.45
631.76	28746.46
631.91	28617.73
632.06	28449.21
632.21	28568.58
632.36	28898.59
632.51	28402.40
632.66	28465.60
632.81	28528.79
632.96	28816.68
633.10	28601.35
633.25	28556.88
633.40	28788.59
633.55	28905.62
633.70	28507.72
633.85	28247.93
634.00	28158.99
634.15	28706.67
634.30	28409.42
634.45	28051.32
634.60	28095.79
634.75	28563.90
634.90	28154.30
635.05	28353.25
635.19	28166.01
635.34	29017.96
635.49	28177.71
635.64	28720.71
635.79	28470.28
635.94	28098.13
636.09	27786.84
636.24	28088.77
636.39	28212.82
636.53	28489.00
636.68	28128.56
636.83	28217.50
636.98	28205.80
637.13	28208.14
637.28	28638.80
637.43	28362.61
637.57	28229.20
637.72	28051.32
637.87	28194.09
638.02	28095.79
638.17	28116.86
638.32	28126.22
638.46	27709.60
638.61	27835.99
638.76	27501.29
638.91	27435.76
639.06	27669.81
639.20	28088.77
639.35	27630.02
639.50	28142.60
639.65	28177.71
639.80	27782.16
639.94	28189.41
640.09	27910.89
640.24	27826.63
640.39	27676.83
640.54	27878.12
640.68	27590.24
640.83	27358.52
640.98	27707.26
641.13	27236.81
641.27	27826.63
641.42	27353.84
641.57	27641.73
641.72	27545.76
641.86	27601.94
642.01	27215.75
642.16	27178.30
642.31	27117.45
642.45	27136.17
642.60	27353.84
642.75	27218.09
642.90	27557.47
643.04	27365.54
643.19	27585.55
643.34	27332.78
643.48	27473.21
643.63	27531.72
643.78	27613.64
643.93	27391.29
644.07	27718.96
644.22	27517.68
644.37	26944.25
644.51	27402.99
644.66	27307.03
644.81	26895.10
644.95	27222.77
645.10	27482.57
645.25	27323.41
645.39	27159.58
645.54	27044.89
645.69	27164.26
645.83	27124.47
645.98	27330.44
646.13	27236.81
646.27	27374.91
646.42	27178.30
646.57	27019.14
646.71	27222.77
646.86	27161.92
647.00	27119.79
647.15	26862.33
647.30	26855.31
647.44	26899.78
647.59	27187.66
647.74	27051.91
647.88	26899.78
648.03	26944.25
648.17	27157.24
648.32	26967.65
648.47	27157.24
648.61	26974.67
648.76	26974.67
648.90	26824.88
649.05	27000.42
649.20	26911.48
649.34	26583.80
649.49	26616.57
649.63	26654.02
649.78	26785.09
649.92	26607.21
650.07	26583.80
650.21	27012.12
650.36	26867.01
650.51	26621.25
650.65	26789.77
650.80	26677.43
650.94	26583.80
651.09	26354.43
651.23	26565.08
651.38	26314.64
651.52	26459.76
651.67	26436.35
651.81	26618.91
651.96	26361.45
652.10	26845.94
652.25	26457.42
652.39	26789.77
652.54	26719.56
652.68	26487.84
652.83	26679.77
652.97	26829.56
653.12	26441.03
653.26	26333.37
653.41	26511.25
653.55	26136.76
653.70	26036.12
653.84	26375.50
653.99	25872.28
654.13	26132.08
654.27	26153.15
654.42	25752.91
654.56	26333.37
654.71	26232.72
654.85	26363.79
655.00	26015.05
655.14	25895.69
655.29	25991.65
655.43	26122.72
655.57	26174.21
655.72	25797.38
655.86	26274.85
656.01	26129.74
656.15	25809.09
656.30	25998.67
656.44	25764.62
656.58	25729.51
656.73	25748.23
656.87	25935.48
657.01	25902.71
657.16	26129.74
657.30	25984.63
657.45	25553.97
657.59	25851.22
657.73	25509.50
657.88	26015.05
658.02	25734.19
658.16	25968.24
658.31	25701.42
658.45	25619.50
658.60	25680.36
658.74	25530.56
658.88	25745.89
659.03	25429.92
659.17	25652.27
659.31	25462.69
659.46	25191.19
659.60	25343.32
659.74	25579.71
659.89	25443.96
660.03	25422.90
660.17	25490.77
660.32	25226.29
660.46	25439.28
660.60	24631.80
660.74	25071.82
660.89	25280.13
661.03	24985.22
661.17	25345.66
661.32	24849.47
661.46	25256.72
661.60	25165.44
661.74	25034.37
661.89	25071.82
662.03	25214.59
662.17	24751.17
662.31	24814.36
662.46	25057.78
662.60	24936.07
662.74	24739.46
662.88	24430.51
663.03	24467.96
663.17	24414.13
663.31	24201.14
663.45	24584.99
663.60	24404.77
663.74	24456.26
663.88	24458.60
664.02	24151.99
664.17	24774.57
664.31	24402.43
664.45	24435.19
664.59	24432.85
664.73	24428.17
664.88	24198.80
665.02	23859.42
665.16	23988.15
665.30	24095.82
665.44	24191.78
665.59	23889.85
665.73	24018.58
665.87	23920.28
666.01	24224.54
666.15	23810.27
666.29	24168.37
666.44	23814.95
666.58	23482.59
666.72	23920.28
666.86	24077.09
667.00	23749.42
667.14	23711.97
667.28	23419.40
667.43	23702.61
667.57	24112.20
667.71	23618.35
667.85	23718.99
667.99	23534.09
668.13	23606.64
668.27	23475.57
668.41	23323.44
668.56	23335.14
668.70	23763.46
668.84	23414.72
668.98	23527.06
669.12	23398.34
669.26	23194.71
669.40	23646.43
669.54	23236.84
669.68	23477.91
669.82	22771.07
669.96	22766.39
670.10	22773.41
670.25	23108.11
670.39	22974.70
670.53	22906.82
670.67	22867.03
670.81	22946.61
670.95	22752.35
671.09	22904.48
671.23	22869.37
671.37	22944.27
671.51	22836.61
671.65	22604.89
671.79	22558.08
671.93	22824.90
672.07	22410.63
672.21	22754.69
672.35	22125.08
672.49	22080.61
672.63	22377.86
672.77	22258.49
672.91	21895.71
673.05	22412.97
673.19	22190.62
673.33	21968.27
673.47	21928.48
673.61	22349.78
673.75	22162.53
673.89	22118.06
674.03	22036.14
674.17	22050.19
674.31	22031.46
674.45	21802.09
674.59	21682.72
674.73	21680.38
674.87	21633.57
675.01	21752.94
675.15	21443.99
675.29	21165.46
675.43	21301.22
675.56	21242.70
675.70	21565.70
675.84	21387.82
675.98	20868.22
676.12	21467.39
676.26	21748.26
676.40	21565.70
676.54	21369.09
676.68	21406.54
676.82	20858.85
676.96	21130.36
677.10	20826.09
677.23	20449.26
677.37	20802.68
677.51	20872.90
677.65	20507.77
677.79	20444.58
677.93	20711.40
678.07	20409.47
678.21	20149.67
678.34	20156.69
678.48	20388.41
678.62	20343.94
678.76	20278.40
678.90	20170.74
679.04	20184.78
679.18	20360.32
679.31	19929.66
679.45	19784.55
679.59	19613.69
679.73	19761.14
679.87	19332.82
680.00	19751.78
680.14	19557.52
680.28	19672.20
680.42	19494.32
680.56	19459.21
680.70	19634.75
680.83	19489.64
680.97	19438.15
681.11	19391.34
681.25	19384.32
681.39	19075.37
681.52	19005.15
681.66	18867.06
681.80	19211.12
681.94	19122.18
682.07	18963.02
682.21	18785.14
682.35	18609.60
682.49	18998.13
682.62	18679.82
682.76	18237.45
682.90	18803.86
683.04	18640.03
683.17	18728.97
683.31	18703.22
683.45	18567.47
683.59	18492.57
683.72	18321.71
683.86	18396.61
684.00	18216.39
684.13	17991.70
684.27	18160.22
684.41	17748.28
684.55	17806.80
684.68	17301.24
684.82	17717.86
684.96	17511.89
685.09	17701.47
685.23	17488.48
685.37	17598.49
685.50	17610.19
685.64	17556.36
685.78	17633.60
685.91	17640.62
686.05	17408.90
686.19	17291.88
686.32	17362.09
686.46	17092.93
686.60	17057.82
686.73	17324.65
686.87	17001.65
687.01	16758.24
687.14	16844.84
687.28	16697.38
687.42	16617.80
687.55	16418.86
687.69	16760.58
687.82	16620.14
687.96	16634.19
688.10	16697.38
688.23	16360.34
688.37	16601.42
688.50	16262.04
688.64	16102.89
688.78	16250.34
688.91	16102.89
689.05	16042.03
689.18	16049.05
689.32	15882.88
689.46	15817.34
689.59	15925.00
689.73	15903.94
689.86	15653.50
690.00	15695.63
690.13	15936.71
690.27	15803.30
690.41	15800.96
690.54	15414.77
690.68	15459.24
690.81	15342.21
690.95	15480.30
691.08	15634.78
691.22	15246.25
691.35	15002.83
691.49	15353.91
691.62	15044.96
691.76	14916.23
691.89	14951.34
692.03	14682.18
692.16	14839.00
692.30	14686.86
692.43	14628.35
692.57	14483.24
692.70	14597.92
692.84	14604.94
692.97	14457.49
693.11	14417.70
693.24	14303.01
693.38	14532.39
693.51	14429.40
693.65	14548.77
693.78	14132.15
693.92	14326.42
694.05	14174.28
694.19	13839.59
694.32	13980.02
694.45	13727.24
694.59	13748.31
694.72	13619.58
694.86	13790.44
694.99	13434.68
695.13	13823.20
695.26	13689.79
695.39	13420.63
695.53	13425.31
695.66	13390.20
695.80	13387.86
695.93	13542.34
696.07	13378.50
696.20	13441.70
696.33	13455.74
696.47	13107.00
696.60	13179.56
696.73	13291.90
696.87	13057.85
697.00	12996.99
697.14	13071.89
697.27	12952.52
697.40	12659.96
697.54	12821.45
697.67	12879.97
697.80	12924.44
697.94	12620.17
698.07	12215.26
698.21	12308.88
698.34	12456.33
698.47	12397.82
698.61	12446.97
698.74	12322.92
698.87	12276.11
699.01	12161.42
699.14	12184.83
699.27	11957.80
699.40	12023.33
699.54	12025.67
699.67	11906.31
699.80	11857.15
699.94	11885.24
700.07	12002.27
700.20	11719.06
700.34	11672.25
700.47	11520.12
700.60	11723.74
700.73	11463.94
700.87	11763.53
701.00	11297.77
701.13	11534.16
701.26	11360.96
701.40	11489.69
701.53	11290.74
701.66	11293.08
701.79	11136.27
701.93	11009.88
702.06	11199.46
702.19	11222.87
702.32	10998.18
702.46	10977.11
702.59	10567.52
702.72	10771.15
702.85	10600.29
702.99	10853.06
703.12	10724.33
703.25	10487.94
703.38	10780.51
703.51	10644.76
703.65	10590.92
703.78	10464.54
703.91	10490.28
704.04	10602.63
704.17	10560.50
704.31	10389.64
704.44	10045.58
704.57	10427.09
704.70	10164.95
704.83	10094.73
704.96	10017.49
705.10	10026.86
705.23	9839.61
>>>>>End Processed Spectral Data<<<<<
