SpectraSuite Data File
++++++++++++++++++++++++++++++++++++
Date: Fri Oct 18 13:57:57 GMT-05:00 2013
User: bianchi
Dark Spectrum Present: No
Reference Spectrum Present: No
Number of Sampled Component Spectra: 1
Spectrometers: USB2+H05261
Integration Time (usec): 50000 (USB2+H05261)
Spectra Averaged: 1 (USB2+H05261)
Boxcar Smoothing: 0 (USB2+H05261)
Correct for Electrical Dark: No (USB2+H05261)
Strobe/Lamp Enabled: No (USB2+H05261)
Correct for Detector Non-linearity: No (USB2+H05261)
Correct for Stray Light: No (USB2+H05261)
Number of Pixels in Processed Spectrum: 2048
>>>>>Begin Processed Spectral Data<<<<<
365.73	0.00
365.92	0.00
366.12	0.00
366.32	0.00
366.52	0.00
366.72	0.00
366.91	0.00
367.11	0.00
367.31	0.00
367.51	0.00
367.70	0.00
367.90	0.00
368.10	0.00
368.30	0.00
368.49	0.00
368.69	0.00
368.89	0.00
369.09	0.00
369.28	0.00
369.48	0.00
369.68	0.00
369.87	0.00
370.07	0.00
370.27	0.00
370.47	0.00
370.66	117.03
370.86	182.56
371.06	184.90
371.25	81.92
371.45	166.18
371.65	156.82
371.84	114.69
372.04	166.18
372.24	159.16
372.44	250.44
372.63	156.82
372.83	166.18
373.03	189.58
373.22	196.60
373.42	184.90
373.62	257.46
373.81	234.05
374.01	205.97
374.21	315.97
374.40	231.71
374.60	217.67
374.79	212.99
374.99	203.63
375.19	262.14
375.38	280.86
375.58	297.25
375.78	245.76
375.97	234.05
376.17	341.72
376.37	262.14
376.56	259.80
376.76	191.92
376.95	259.80
377.15	271.50
377.35	339.38
377.54	320.65
377.74	285.55
377.93	311.29
378.13	311.29
378.33	290.23
378.52	276.18
378.72	330.02
378.91	322.99
379.11	285.55
379.31	337.04
379.50	280.86
379.70	346.40
379.89	374.49
380.09	341.72
380.28	276.18
380.48	297.25
380.68	306.61
380.87	346.40
381.07	369.80
381.26	407.25
381.46	337.04
381.65	308.95
381.85	320.65
382.04	294.91
382.24	262.14
382.43	299.59
382.63	315.97
382.83	390.87
383.02	358.10
383.22	411.93
383.41	355.76
383.61	381.51
383.80	430.66
384.00	362.78
384.19	395.55
384.39	407.25
384.58	416.62
384.78	404.91
384.97	381.51
385.17	383.85
385.36	463.43
385.56	341.72
385.75	383.85
385.95	360.44
386.14	369.80
386.34	486.83
386.53	437.68
386.72	372.15
386.92	435.34
387.11	461.09
387.31	437.68
387.50	388.53
387.70	468.11
387.89	425.98
388.09	416.62
388.28	430.66
388.48	411.93
388.67	407.25
388.86	444.70
389.06	451.72
389.25	479.81
389.45	449.38
389.64	514.92
389.84	503.22
390.03	550.03
390.22	470.45
390.42	475.13
390.61	543.00
390.81	524.28
391.00	496.19
391.19	545.34
391.39	496.19
391.58	554.71
391.78	491.51
391.97	575.77
392.16	557.05
392.36	603.86
392.55	578.11
392.75	510.24
392.94	596.84
393.13	596.84
393.33	578.11
393.52	578.11
393.71	554.71
393.91	617.90
394.10	521.94
394.29	568.75
394.49	580.45
394.68	582.79
394.88	610.88
395.07	564.07
395.26	564.07
395.46	543.00
395.65	720.88
395.84	622.58
396.04	608.54
396.23	671.73
396.42	692.80
396.62	748.97
396.81	688.12
397.00	697.48
397.19	629.60
397.39	695.14
397.58	568.75
397.77	627.26
397.97	676.41
398.16	681.10
398.35	674.07
398.55	739.61
398.74	716.20
398.93	720.88
399.12	727.91
399.32	767.70
399.51	777.06
399.70	861.32
399.90	723.23
400.09	755.99
400.28	786.42
400.47	868.34
400.67	819.19
400.86	767.70
401.05	809.83
401.24	767.70
401.44	816.85
401.63	866.00
401.82	763.01
402.01	868.34
402.21	788.76
402.40	891.74
402.59	842.59
402.78	952.60
402.97	896.43
403.17	940.90
403.36	826.21
403.55	940.90
403.74	976.00
403.93	931.53
404.13	908.13
404.32	903.45
404.51	919.83
404.70	1074.31
404.89	959.62
405.09	990.05
405.28	880.04
405.47	999.41
405.66	1011.11
405.85	952.60
406.05	980.68
406.24	1006.43
406.43	938.55
406.62	978.34
406.81	1055.58
407.00	999.41
407.20	1062.60
407.39	1144.52
407.58	1095.37
407.77	1109.41
407.96	1095.37
408.15	1048.56
408.34	1078.99
408.54	1114.10
408.73	1158.57
408.92	1132.82
409.11	1123.46
409.30	1102.39
409.49	1149.20
409.68	1254.53
409.87	1153.88
410.07	1146.86
410.26	1256.87
410.45	1284.95
410.64	1205.38
410.83	1261.55
411.02	1144.52
411.21	1217.08
411.40	1287.29
411.59	1240.48
411.78	1261.55
411.98	1308.36
412.17	1352.83
412.36	1390.28
412.55	1451.13
412.74	1453.47
412.93	1366.87
413.12	1343.47
413.31	1420.71
413.50	1294.32
413.69	1380.92
413.88	1409.00
414.07	1474.54
414.26	1392.62
414.45	1509.65
414.64	1493.26
414.83	1537.73
415.02	1547.09
415.22	1533.05
415.41	1633.69
415.60	1537.73
415.79	1664.12
415.98	1596.25
416.17	1551.78
416.36	1699.23
416.55	1572.84
416.74	1757.74
416.93	1668.80
417.12	1682.85
417.31	1650.08
417.50	1633.69
417.69	1874.77
417.88	1811.57
418.07	1755.40
418.26	1713.27
418.45	1722.63
418.64	1776.47
418.83	1844.34
419.02	1849.02
419.21	1832.64
419.39	1804.55
419.58	1820.94
419.77	1902.86
419.96	1863.07
420.15	1956.69
420.34	1902.86
420.53	1806.89
420.72	2024.56
420.91	1928.60
421.10	1919.24
421.29	1991.80
421.48	1926.26
421.67	2010.52
421.86	2047.97
422.05	1989.46
422.24	2087.76
422.43	1970.73
422.61	1987.11
422.80	2038.61
422.99	2134.57
423.18	1984.77
423.37	2078.40
423.56	2146.27
423.75	2097.12
423.94	2008.18
424.13	1930.94
424.32	2036.27
424.50	2167.34
424.69	2104.14
424.88	2253.94
425.07	2047.97
425.26	1996.48
425.45	2015.20
425.64	2062.01
425.83	2134.57
426.01	2108.82
426.20	2106.48
426.39	2132.23
426.58	2120.53
426.77	2022.22
426.96	2139.25
427.15	2211.81
427.33	2183.72
427.52	2062.01
427.71	2160.31
427.90	2251.60
428.09	2167.34
428.28	2260.96
428.46	2296.07
428.65	2349.90
428.84	2307.77
429.03	2361.60
429.22	2179.04
429.40	2286.70
429.59	2293.72
429.78	2157.97
429.97	2258.62
430.16	2270.32
430.34	2321.81
430.53	2303.09
430.72	2282.02
430.91	2342.88
431.10	2579.27
431.28	2495.01
431.47	2352.24
431.66	2483.31
431.85	2338.20
432.03	2385.01
432.22	2654.17
432.41	2462.24
432.60	2424.80
432.79	2424.80
432.97	2612.04
433.16	2487.99
433.35	2406.07
433.54	2626.08
433.72	2686.94
433.91	2445.86
434.10	2464.58
434.28	2635.44
434.47	2602.68
434.66	2595.65
434.85	2612.04
435.03	2623.74
435.22	2736.09
435.41	2703.32
435.59	2759.49
435.78	2644.81
435.97	2778.22
436.16	2703.32
436.34	2551.18
436.53	2684.59
436.72	2855.45
436.90	2818.00
437.09	2846.09
437.28	2740.77
437.46	2764.17
437.65	2750.13
437.84	2939.71
438.02	2909.29
438.21	2958.44
438.40	2785.24
438.58	3005.25
438.77	2829.71
438.96	2974.82
439.14	2993.55
439.33	3014.61
439.52	3052.06
439.70	2970.14
439.89	3063.76
440.08	2916.31
440.26	3009.93
440.45	3059.08
440.63	3150.36
440.82	3143.34
441.01	3054.40
441.19	3211.22
441.38	3258.03
441.57	3159.72
441.75	3290.79
441.94	3290.79
442.12	3325.90
442.31	3452.29
442.50	3386.76
442.68	3386.76
442.87	3297.81
443.05	3407.82
443.24	3442.93
443.43	3370.37
443.61	3499.10
443.80	3492.08
443.98	3515.48
444.17	3206.53
444.35	3419.52
444.54	3499.10
444.73	3510.80
444.91	3566.98
445.10	3541.23
445.28	3515.48
445.47	3372.71
445.65	3452.29
445.84	3566.98
446.02	3515.48
446.21	3503.78
446.39	3534.21
446.58	3695.71
446.77	3529.53
446.95	3571.66
447.14	3482.72
447.32	3552.93
447.51	3609.11
447.69	3510.80
447.88	3611.45
448.06	3599.74
448.25	3564.64
448.43	3669.96
448.62	3686.34
448.80	3822.09
448.99	3723.79
449.17	3808.05
449.36	3761.24
449.54	3726.13
449.73	3772.94
449.91	3808.05
450.10	3779.97
450.28	3840.82
450.46	3786.99
450.65	3866.56
450.83	3803.37
451.02	3847.84
451.20	3817.41
451.39	3948.48
451.57	3953.16
451.76	3801.03
451.94	3974.23
452.13	3880.61
452.31	3974.23
452.49	3953.16
452.68	3913.38
452.86	3847.84
453.05	4039.76
453.23	4161.47
453.42	3957.85
453.60	3999.98
453.78	4065.51
453.97	3882.95
454.15	4121.68
454.34	3950.82
454.52	4161.47
454.70	4107.64
454.89	3985.93
455.07	4072.53
455.26	4269.14
455.44	4042.11
455.62	4182.54
455.81	4217.65
455.99	4170.83
456.17	4236.37
456.36	4201.26
456.54	4334.67
456.73	4224.67
456.91	4325.31
457.09	4339.35
457.28	4521.92
457.46	4381.48
457.64	4397.87
457.83	4418.93
458.01	4325.31
458.19	4550.00
458.38	4395.53
458.56	4472.76
458.74	4524.26
458.93	4463.40
459.11	4503.19
459.29	4545.32
459.48	4648.30
459.66	4594.47
459.84	4535.96
460.03	4685.75
460.21	4606.17
460.39	4842.57
460.57	4781.71
460.76	4676.39
460.94	4557.02
461.12	4725.54
461.31	4788.74
461.49	4880.02
461.67	4620.22
461.85	4924.49
462.04	4746.61
462.22	5137.48
462.40	4849.59
462.59	4882.36
462.77	4887.04
462.95	5139.82
463.13	4863.63
463.32	4898.74
463.50	4971.30
463.68	4994.70
463.86	4887.04
464.05	4767.67
464.23	4905.76
464.41	5034.49
464.59	4954.91
464.78	5088.32
464.96	5011.09
465.14	4917.47
465.32	5191.31
465.50	5165.56
465.69	5083.64
465.87	5165.56
466.05	4966.62
466.23	5039.17
466.41	5383.23
466.60	5329.40
466.78	5093.01
466.96	5020.45
467.14	5303.65
467.32	5153.86
467.51	5366.85
467.69	5135.14
467.87	5315.36
468.05	5263.86
468.23	5224.08
468.41	5233.44
468.60	5203.01
468.78	5401.96
468.96	5282.59
469.14	5528.35
469.32	5633.67
469.50	5528.35
469.69	5385.57
469.87	5617.29
470.05	5439.40
470.23	5561.11
470.41	5607.92
470.59	5636.01
470.77	5458.13
470.95	5549.41
471.14	5722.61
471.32	5533.03
471.50	5561.11
471.68	5685.16
471.86	5783.46
472.04	5731.97
472.22	5858.36
472.40	5767.08
472.58	5844.32
472.77	5989.43
472.95	5912.19
473.13	6202.42
473.31	5884.11
473.49	5996.45
473.67	6043.26
473.85	6050.28
474.03	6249.23
474.21	5975.39
474.39	6087.73
474.57	6113.48
474.75	6321.79
474.93	6279.66
475.12	6331.15
475.30	6347.53
475.48	6267.95
475.66	6483.28
475.84	6431.79
476.02	6427.11
476.20	6321.79
476.38	6649.46
476.56	6698.61
476.74	6787.55
476.92	6544.14
477.10	6698.61
477.28	6834.36
477.46	6848.41
477.64	6832.02
477.82	6834.36
478.00	7112.89
478.18	7124.59
478.36	7243.96
478.54	7227.57
478.72	7183.10
478.90	7248.64
479.08	7267.36
479.26	7316.51
479.44	7494.40
479.62	7335.24
479.80	7480.35
479.98	7566.95
480.16	7609.08
480.34	7751.85
480.52	7920.37
480.70	7868.88
480.88	7744.83
481.06	7962.50
481.24	7728.45
481.41	7885.26
481.59	8196.56
481.77	8098.25
481.95	8170.81
482.13	8266.77
482.31	8191.88
482.49	8468.06
482.67	8339.33
482.85	8503.17
483.03	8676.37
483.21	8819.14
483.39	8753.60
483.57	8924.46
483.74	8917.44
483.92	8882.33
484.10	8889.35
484.28	9146.81
484.46	9165.54
484.64	9399.59
484.82	9312.99
485.00	9521.30
485.18	9535.34
485.35	9626.62
485.53	9661.73
485.71	9771.74
485.89	9987.07
486.07	9659.39
486.25	9966.00
486.43	9935.57
486.61	9944.94
486.78	9930.89
486.96	10265.59
487.14	10246.87
487.32	10249.21
487.50	10420.06
487.68	10399.00
487.85	10525.39
488.03	10649.44
488.21	11049.67
488.39	10778.17
488.57	11005.20
488.75	10794.55
488.92	11358.62
489.10	11037.97
489.28	10963.07
489.46	11393.73
489.64	11367.98
489.81	11552.88
489.99	11564.59
490.17	11702.68
490.35	11840.77
490.53	11927.37
490.70	11918.01
490.88	11960.14
491.06	12215.26
491.24	12044.40
491.41	12119.29
491.59	12198.87
491.77	12325.26
491.95	12367.39
492.13	12610.81
492.30	12765.28
492.48	12479.74
492.66	12526.55
492.84	12723.15
493.01	12713.79
493.19	13083.59
493.37	12987.63
493.54	12910.40
493.72	13139.77
493.90	13088.28
494.08	13432.33
494.25	13523.62
494.43	13310.63
494.61	13542.34
494.79	13535.32
494.96	13685.11
495.14	13556.38
495.32	13771.71
495.49	14026.83
495.67	14008.11
495.85	14195.35
496.02	14139.18
496.20	14331.10
496.38	14321.74
496.55	14134.50
496.73	14544.09
496.91	14401.32
497.09	14431.74
497.26	14541.75
497.44	14609.62
497.62	14567.49
497.79	14848.36
497.97	14944.32
498.14	15098.80
498.32	15243.91
498.50	15344.55
498.67	15246.25
498.85	15508.39
499.03	15564.56
499.20	15358.60
499.38	15475.62
499.56	15435.83
499.73	15557.54
499.91	15861.81
500.08	15817.34
500.26	15613.71
500.44	15793.94
500.61	16027.99
500.79	15786.91
500.97	16217.57
501.14	16362.69
501.32	16166.08
501.49	16358.00
501.67	16166.08
501.84	16233.96
502.02	16114.59
502.20	16570.99
502.37	16472.69
502.55	16854.20
502.72	16535.88
502.90	16601.42
503.07	16767.60
503.25	16727.81
503.43	16428.22
503.60	16741.85
503.78	17362.09
503.95	16908.03
504.13	17046.12
504.30	16805.05
504.48	17163.15
504.65	17385.50
504.83	17640.62
505.01	17537.63
505.18	17394.86
505.36	17729.56
505.53	17479.12
505.71	17502.53
505.88	17458.06
506.06	17570.40
506.23	17933.18
506.41	17591.47
506.58	17795.09
506.76	17767.01
506.93	18031.49
507.11	17706.15
507.28	17991.70
507.46	18061.91
507.63	18394.27
507.81	18232.77
507.98	18101.70
508.16	18157.88
508.33	18333.42
508.50	18384.91
508.68	18457.46
508.85	18401.29
509.03	18429.38
509.20	18614.28
509.38	18920.89
509.55	18944.30
509.73	18707.90
509.90	18731.31
510.08	18817.91
510.25	18838.97
510.42	19026.21
510.60	19328.14
510.77	18970.04
510.95	19253.25
511.12	19173.67
511.30	18934.93
511.47	19491.98
511.64	19337.51
511.82	19604.33
511.99	19433.47
512.17	19470.92
512.34	19552.84
512.51	19906.26
512.69	19578.58
512.86	19880.51
513.04	20278.40
513.21	19913.28
513.38	19704.97
513.56	20610.76
513.73	20030.30
513.90	19920.30
514.08	20039.67
514.25	20346.28
514.43	19981.15
514.60	20187.12
514.77	20114.56
514.95	20463.30
515.12	20278.40
515.29	20325.21
515.47	20369.68
515.64	20519.48
515.81	20514.80
515.99	20475.01
516.16	20762.89
516.33	20657.57
516.51	20540.54
516.68	20805.02
516.85	21074.18
517.03	21160.78
517.20	20828.43
517.37	20973.54
517.54	21146.74
517.72	21116.31
517.89	21018.01
518.06	21486.12
518.24	21055.46
518.41	21312.92
518.58	21406.54
518.75	20996.95
518.93	21799.75
519.10	21298.88
519.27	21619.53
519.45	21324.62
519.62	21448.67
519.79	21443.99
519.96	21766.98
520.14	21724.85
520.31	21823.16
520.48	21914.44
520.65	22237.43
520.83	21736.56
521.00	21645.27
521.17	21905.07
521.34	21989.33
521.52	21876.99
521.69	21954.22
521.86	22483.19
522.03	22651.70
522.20	22317.01
522.38	22527.66
522.55	22436.38
522.72	22302.96
522.89	22443.40
523.07	22588.51
523.24	22850.65
523.41	22518.29
523.58	22441.06
523.75	22600.21
523.92	22801.50
524.10	22750.01
524.27	22782.77
524.44	23208.75
524.61	23030.87
524.78	22902.14
524.96	22822.56
525.13	23410.04
525.30	23229.82
525.47	23199.39
525.64	23412.38
525.81	23377.27
525.98	23330.46
526.16	23396.00
526.33	23634.73
526.50	23644.09
526.67	23417.06
526.84	23477.91
527.01	23646.43
527.18	23452.17
527.36	23604.30
527.53	23587.92
527.70	23957.72
527.87	23594.94
528.04	23723.67
528.21	24037.30
528.38	23765.80
528.55	24037.30
528.72	23796.23
528.89	23985.81
529.07	23878.15
529.24	23957.72
529.41	24187.10
529.58	24112.20
529.75	24135.60
529.92	23889.85
530.09	24109.86
530.26	24442.21
530.43	24535.84
530.60	24350.93
530.77	24287.74
530.94	24407.11
531.11	24191.78
531.28	24297.10
531.46	24706.70
531.63	24720.74
531.80	24755.85
531.97	24666.91
532.14	24694.99
532.31	24301.78
532.48	24774.57
532.65	24690.31
532.82	24482.00
532.99	24613.07
533.16	24666.91
533.33	25132.67
533.50	25116.29
533.67	25174.80
533.84	24720.74
534.01	24982.88
534.18	25268.42
534.35	25355.02
534.52	25027.35
534.69	25312.89
534.86	25710.78
535.03	25216.93
535.20	25198.21
535.37	25163.10
535.54	25514.18
535.71	25289.49
535.88	25390.13
536.05	25699.08
536.22	25675.68
536.38	25778.66
536.55	25570.35
536.72	25680.36
536.89	25589.08
537.06	25549.29
537.23	25727.17
537.40	25556.31
537.57	25649.93
537.74	25888.67
537.91	25858.24
538.08	26005.69
538.25	25668.66
538.42	26010.37
538.59	25975.27
538.75	25645.25
538.92	25909.73
539.09	26019.74
539.26	26405.92
539.43	26361.45
539.60	26483.16
539.77	26010.37
539.94	26309.96
540.11	26328.69
540.28	26038.46
540.44	26312.30
540.61	26129.74
540.78	26127.40
540.95	26253.79
541.12	26529.97
541.29	26466.78
541.46	26349.75
541.62	26654.02
541.79	26513.59
541.96	26125.06
542.13	26691.47
542.30	26654.02
542.47	26841.26
542.63	26845.94
542.80	26937.23
542.97	27005.10
543.14	27054.25
543.31	27332.78
543.48	26941.91
543.64	27136.17
543.81	26635.30
543.98	27185.32
544.15	27346.82
544.32	27531.72
544.48	27342.14
544.65	27213.41
544.82	27599.60
544.99	27037.87
545.16	27129.15
545.32	27330.44
545.49	27646.41
545.66	27648.75
545.83	27903.87
546.00	27573.85
546.16	27393.63
546.33	27131.49
546.50	27218.09
546.67	27810.25
546.83	27311.71
547.00	27646.41
547.17	27281.28
547.34	27814.93
547.50	27601.94
547.67	27784.50
547.84	27735.35
548.00	27995.15
548.17	27775.14
548.34	27793.86
548.51	28161.33
548.67	28027.92
548.84	27861.74
549.01	27740.03
549.18	28297.08
549.34	28119.20
549.51	27866.42
549.68	28093.45
549.84	28041.96
550.01	28163.67
550.18	27988.13
550.34	28149.62
550.51	28435.17
550.68	28137.92
550.84	27913.23
551.01	28334.53
551.18	28362.61
551.34	28009.19
551.51	28411.76
551.68	28493.68
551.84	28479.64
552.01	28327.50
552.18	28713.69
552.34	28435.17
552.51	28287.71
552.68	28268.99
552.84	28533.47
553.01	28587.30
553.18	28432.83
553.34	28444.53
553.51	28671.56
553.67	28772.21
553.84	28933.70
554.01	28786.25
554.17	28699.65
554.34	29017.96
554.51	28790.93
554.67	29149.03
554.84	29095.20
555.00	28975.83
555.17	28814.34
555.33	29085.84
555.50	28905.62
555.67	28849.44
555.83	28601.35
556.00	28865.83
556.16	29017.96
556.33	29165.42
556.50	28968.81
556.66	28929.02
556.83	29008.60
556.99	28994.56
557.16	29462.66
557.32	29301.17
557.49	29434.58
557.65	29106.90
557.82	29226.27
557.98	29195.84
558.15	29202.86
558.32	29240.31
558.48	29385.43
558.65	29364.36
558.81	29270.74
558.98	29682.67
559.14	29474.37
559.31	28713.69
559.47	29308.19
559.64	29516.50
559.80	29504.79
559.97	29713.10
560.13	29656.93
560.30	29722.46
560.46	29883.96
560.63	29649.91
560.79	29673.31
560.96	29736.51
561.12	29223.93
561.29	29701.40
561.45	29851.19
561.61	29879.28
561.78	29626.50
561.94	29898.00
562.11	29624.16
562.27	29598.41
562.44	29680.33
562.60	29610.12
562.77	29638.20
562.93	29745.87
563.10	29844.17
563.26	29663.95
563.42	29792.68
563.59	30059.50
563.75	29916.73
563.92	29757.57
564.08	29776.30
564.24	29738.85
564.41	29937.79
564.57	29844.17
564.74	29687.36
564.90	30246.74
565.07	29724.80
565.23	29954.18
565.39	29832.47
565.56	30190.57
565.72	30024.39
565.88	29860.55
566.05	29933.11
566.21	29837.15
566.38	29778.64
566.54	30059.50
566.70	30202.27
566.87	30323.98
567.03	30085.25
567.19	30157.80
567.36	29883.96
567.52	30125.04
567.68	30073.54
567.85	30302.92
568.01	30354.41
568.17	29984.60
568.34	30213.98
568.50	30466.75
568.66	29830.13
568.83	30426.96
568.99	30293.55
569.15	30281.85
569.32	30401.22
569.48	30000.99
569.64	30110.99
569.81	30436.33
569.97	30122.69
570.13	30300.58
570.30	30251.42
570.46	30167.16
570.62	30412.92
570.78	30237.38
570.95	30038.44
571.11	30492.50
571.27	30387.18
571.43	30408.24
571.60	30511.22
571.76	30338.02
571.92	30483.14
572.09	30410.58
572.25	30312.28
572.41	30731.23
572.57	30448.03
572.74	30483.14
572.90	30267.81
573.06	30307.60
573.22	30373.13
573.38	30349.73
573.55	30705.49
573.71	30616.55
573.87	30686.76
574.03	30630.59
574.20	30490.16
574.36	30253.76
574.52	30724.21
574.68	30703.15
574.84	30132.06
575.01	30134.40
575.17	30485.48
575.33	30600.16
575.49	30419.94
575.65	30794.43
575.82	30546.33
575.98	30766.34
576.14	30623.57
576.30	30443.35
576.46	30307.60
576.62	30345.05
576.79	30202.27
576.95	30291.21
577.11	30527.61
577.27	30682.08
577.43	30639.95
577.59	30405.90
577.75	30658.68
577.92	30649.32
578.08	30529.95
578.24	30480.80
578.40	30756.98
578.56	30204.61
578.72	30684.42
578.88	30976.99
579.04	31026.14
579.21	30466.75
579.37	30710.17
579.53	30630.59
579.69	30490.16
579.85	30590.80
580.01	30347.39
580.17	30480.80
580.33	30857.62
580.49	30932.52
580.65	30965.29
580.82	30738.26
580.98	30799.11
581.14	30663.36
581.30	30527.61
581.46	30721.87
581.62	30672.72
581.78	30543.99
581.94	30696.13
582.10	30726.55
582.26	30632.93
582.42	30398.88
582.58	31136.15
582.74	30799.11
582.90	31133.81
583.06	31049.55
583.22	31143.17
583.38	30787.41
583.54	30827.20
583.70	30759.32
583.86	30565.06
584.02	30478.46
584.18	31070.61
584.34	30740.60
584.50	31161.89
584.66	30871.67
584.82	30642.29
584.98	31051.89
585.14	30693.79
585.30	30993.37
585.46	30424.62
585.62	30417.60
585.78	30801.45
585.94	30735.92
586.10	31194.66
586.26	30881.03
586.42	30745.28
586.58	31175.94
586.74	30637.61
586.90	30452.71
587.06	30515.90
587.22	31051.89
587.38	30761.66
587.54	30976.99
587.70	30904.43
587.86	31019.12
588.02	31026.14
588.18	31260.20
588.34	30948.90
588.49	30808.47
588.65	30953.58
588.81	30717.19
588.97	30850.60
589.13	31189.98
589.29	30712.51
589.45	30965.29
589.61	31159.55
589.77	31314.03
589.93	31040.18
590.08	31409.99
590.24	31194.66
590.40	31218.07
590.56	31089.34
590.72	30991.03
590.88	30984.01
591.04	30965.29
591.20	31578.51
591.35	31339.77
591.51	31667.45
591.67	31374.88
591.83	31672.13
591.99	31543.40
592.15	31353.82
592.31	31126.78
592.46	30689.10
592.62	30738.26
592.78	31054.23
592.94	31377.22
593.10	31138.49
593.26	31433.39
593.41	31307.01
593.57	31246.15
593.73	31414.67
593.89	31615.96
594.05	31524.68
594.20	31150.19
594.36	31541.06
594.52	30756.98
594.68	31194.66
594.84	31143.17
594.99	31749.37
595.15	31307.01
595.31	31508.29
595.47	31693.19
595.62	31477.86
595.78	31075.29
595.94	31468.50
596.10	31580.85
596.25	31227.43
596.41	30960.61
596.57	31016.78
596.73	31197.00
596.88	31449.78
597.04	31622.98
597.20	31426.37
597.36	31419.35
597.51	31290.62
597.67	30962.95
597.83	31501.27
597.99	31435.74
598.14	31309.35
598.30	31157.21
598.46	31227.43
598.61	31363.18
598.77	31026.14
598.93	31559.78
599.09	31459.14
599.24	31936.61
599.40	31817.24
599.56	31515.31
599.71	31391.26
599.87	31459.14
600.03	31431.05
600.18	31538.72
600.34	31222.75
600.50	31527.02
600.65	31660.43
600.81	31501.27
600.97	31644.04
601.12	31735.32
601.28	31711.92
601.44	31538.72
601.59	31686.17
601.75	31264.88
601.91	31674.47
602.06	31274.24
602.22	31599.57
602.37	31281.26
602.53	31847.67
602.69	31419.35
602.84	31370.20
603.00	31330.41
603.16	31721.28
603.31	31716.60
603.47	31590.21
603.62	31388.92
603.78	31531.70
603.94	31630.00
604.09	31433.39
604.25	31185.30
604.40	31391.26
604.56	31288.28
604.71	31878.10
604.87	31192.32
605.03	31662.77
605.18	31744.69
605.34	31494.25
605.49	31187.64
605.65	31468.50
605.80	31599.57
605.96	31356.16
606.12	31339.77
606.27	31428.71
606.43	31079.97
606.58	31658.09
606.74	31470.84
606.89	31515.31
607.05	31679.15
607.20	31257.85
607.36	31426.37
607.51	31550.42
607.67	31089.34
607.82	31311.69
607.98	31171.25
608.13	31555.10
608.29	30871.67
608.44	31124.44
608.60	30930.18
608.75	31543.40
608.91	31370.20
609.06	30866.98
609.22	31299.98
609.37	30955.93
609.53	31344.45
609.68	31096.36
609.84	31236.79
609.99	31466.16
610.15	30838.90
610.30	31061.25
610.46	31084.65
610.61	31115.08
610.76	31648.72
610.92	31377.22
611.07	31030.82
611.23	30911.46
611.38	31049.55
611.54	30890.39
611.69	31054.23
611.84	31187.64
612.00	30993.37
612.15	30855.28
612.31	31180.62
612.46	31129.12
612.62	31283.60
612.77	30817.83
612.92	31519.99
613.08	30962.95
613.23	30548.67
613.39	31215.72
613.54	30621.23
613.69	31384.24
613.85	30731.23
614.00	30859.96
614.15	31211.04
614.31	30995.71
614.46	30426.96
614.62	30892.73
614.77	30995.71
614.92	30764.00
615.08	30895.07
615.23	30663.36
615.38	31321.05
615.54	30218.66
615.69	30267.81
615.84	30609.53
616.00	30703.15
616.15	30410.58
616.30	30948.90
616.46	30639.95
616.61	30623.57
616.76	31143.17
616.92	30871.67
617.07	30689.10
617.22	30698.47
617.37	30106.31
617.53	30532.29
617.68	30726.55
617.83	30326.32
617.99	30560.37
618.14	30614.21
618.29	30567.40
618.45	30609.53
618.60	30314.62
618.75	30445.69
618.90	30155.46
619.06	30761.66
619.21	30455.05
619.36	30618.89
619.51	30040.78
619.67	30221.00
619.82	30326.32
619.97	30469.09
620.12	30441.01
620.28	30106.31
620.43	30656.34
620.58	30494.84
620.73	30536.97
620.89	30363.77
621.04	30803.79
621.19	30558.03
621.34	30265.47
621.49	30122.69
621.65	29818.42
621.80	30302.92
621.95	29867.58
622.10	29933.11
622.25	30164.82
622.41	29991.62
622.56	29881.62
622.71	30054.82
622.86	29879.28
623.01	29977.58
623.16	29876.94
623.32	29855.87
623.47	29998.65
623.62	30075.88
623.77	29820.77
623.92	30106.31
624.07	29668.63
624.23	29706.08
624.38	29802.04
624.53	29844.17
624.68	29837.15
624.83	29958.86
624.98	30143.76
625.13	29689.70
625.29	29837.15
625.44	29528.20
625.59	29570.33
625.74	29474.37
625.89	29242.65
626.04	29537.56
626.19	29743.53
626.34	29252.02
626.49	29462.66
626.65	29497.77
626.80	29900.34
626.95	29336.27
627.10	29713.10
627.25	29453.30
627.40	29092.86
627.55	29462.66
627.70	29319.89
627.85	29902.68
628.00	29397.13
628.15	29181.80
628.30	29448.62
628.45	29179.46
628.60	29324.57
628.76	29425.22
628.91	29542.24
629.06	29376.06
629.21	29347.98
629.36	29347.98
629.51	29120.95
629.66	29041.37
629.81	29076.48
629.96	28804.97
630.11	28830.72
630.26	29017.96
630.41	28662.20
630.56	28945.41
630.71	29312.87
630.86	29205.20
631.01	29343.30
631.16	29146.69
631.31	29160.73
631.46	29266.06
631.61	29127.97
631.76	28877.53
631.91	28732.42
632.06	28849.44
632.21	28795.61
632.36	28914.98
632.51	28479.64
632.66	28957.11
632.81	28664.54
632.96	28776.89
633.10	28858.81
633.25	28982.85
633.40	28769.86
633.55	28725.39
633.70	28481.98
633.85	28203.46
634.00	28727.74
634.15	28521.77
634.30	28811.99
634.45	28547.51
634.60	28629.43
634.75	28596.67
634.90	28683.27
635.05	28400.06
635.19	28760.50
635.34	28739.44
635.49	28545.17
635.64	28280.69
635.79	28561.56
635.94	28577.94
636.09	28561.56
636.24	28395.38
636.39	28170.69
636.53	28786.25
636.68	28048.98
636.83	28484.32
636.98	28613.05
637.13	28416.44
637.28	28496.02
637.43	28383.68
637.57	28542.83
637.72	28489.00
637.87	28325.16
638.02	28283.03
638.17	28041.96
638.32	27971.74
638.46	27950.68
638.61	28268.99
638.76	28095.79
638.91	28048.98
639.06	28191.75
639.20	28107.49
639.35	28552.20
639.50	27924.93
639.65	28046.64
639.80	28156.64
639.94	28006.85
640.09	28093.45
640.24	28194.09
640.39	28063.02
640.54	27913.23
640.68	27728.33
640.83	27534.06
640.98	27784.50
641.13	27725.99
641.27	27814.93
641.42	27456.82
641.57	27901.53
641.72	27775.14
641.86	27578.53
642.01	27615.98
642.16	27669.81
642.31	27576.19
642.45	27480.23
642.60	27234.47
642.75	27321.07
642.90	27356.18
643.04	27248.52
643.19	27590.24
643.34	27410.01
643.48	27531.72
643.63	27700.24
643.78	27653.43
643.93	28004.51
644.07	27513.00
644.22	27791.52
644.37	27604.28
644.51	27475.55
644.66	27896.85
644.81	27175.96
644.95	27213.41
645.10	27344.48
645.25	27140.85
645.39	27379.59
645.54	27426.40
645.69	27222.77
645.83	27159.58
645.98	27381.93
646.13	27311.71
646.27	27634.71
646.42	27367.88
646.57	27103.40
646.71	26955.95
646.86	27101.06
647.00	27496.61
647.15	27475.55
647.30	26904.46
647.44	27164.26
647.59	26958.29
647.74	27108.08
647.88	27143.19
648.03	27248.52
648.17	27321.07
648.32	27154.90
648.47	26944.25
648.61	27112.77
648.76	27332.78
648.90	27108.08
649.05	26775.73
649.20	27037.87
649.34	26864.67
649.49	26696.15
649.63	26808.50
649.78	27211.07
649.92	26691.47
650.07	27262.56
650.21	26742.96
650.36	26806.16
650.51	26522.95
650.65	26848.29
650.80	26911.48
650.94	26593.17
651.09	26597.85
651.23	26352.09
651.38	26569.76
651.52	26656.36
651.67	26546.36
651.81	26469.12
651.96	26588.49
652.10	26668.06
652.25	26714.87
652.39	26434.01
652.54	26558.06
652.68	26590.83
652.83	26700.83
652.97	27182.98
653.12	26785.09
653.26	26511.25
653.41	26302.94
653.55	26202.30
653.70	26087.61
653.84	26202.30
653.99	26632.96
654.13	26583.80
654.27	26359.11
654.42	26356.77
654.56	26422.31
654.71	26340.39
654.85	26352.09
655.00	26632.96
655.14	26223.36
655.29	26270.17
655.43	26462.10
655.57	26342.73
655.72	26335.71
655.86	26345.07
656.01	26223.36
656.15	25991.65
656.30	26043.14
656.44	25720.15
656.58	26061.87
656.73	26026.76
656.87	26209.32
657.01	25970.58
657.16	26387.20
657.30	26106.34
657.45	26225.70
657.59	26125.06
657.73	25771.64
657.88	25912.07
658.02	25844.20
658.16	25975.27
658.31	25645.25
658.45	25411.20
658.60	25465.03
658.74	25516.52
658.88	25764.62
659.03	25509.50
659.17	25656.95
659.31	25795.04
659.46	25605.46
659.60	25671.00
659.74	25656.95
659.89	25624.18
660.03	25448.64
660.17	25610.14
660.32	25263.74
660.46	25420.56
660.60	25401.83
660.74	25259.06
660.89	25539.93
661.03	24748.82
661.17	25345.66
661.32	25069.48
661.46	25226.29
661.60	25394.81
661.74	25097.56
661.89	25238.00
662.03	25205.23
662.17	25158.42
662.31	24917.34
662.46	25106.93
662.60	24809.68
662.74	25127.99
662.88	24636.48
663.03	24563.92
663.17	24533.50
663.31	24716.06
663.45	24624.78
663.60	24929.05
663.74	24648.18
663.88	24774.57
664.02	24409.45
664.17	24884.58
664.31	24603.71
664.45	24348.59
664.59	24496.05
664.73	24217.52
664.88	24519.45
665.02	24208.16
665.16	24535.84
665.30	24088.79
665.44	24264.33
665.59	24105.18
665.73	23992.83
665.87	24137.94
666.01	24018.58
666.15	24322.85
666.29	24325.19
666.44	24397.74
666.58	23812.61
666.72	24011.56
666.86	24041.98
667.00	24339.23
667.14	23828.99
667.28	23632.39
667.43	23857.08
667.57	23967.09
667.71	23803.25
667.85	23611.32
667.99	23761.12
668.13	23618.35
668.27	23580.90
668.41	23737.71
668.56	23679.20
668.70	23440.47
668.84	23786.86
668.98	23414.72
669.12	23555.15
669.26	23730.69
669.40	23452.17
669.54	23616.01
669.68	23241.52
669.82	23115.13
669.96	22979.38
670.10	23274.29
670.25	23101.09
670.39	23197.05
670.53	22965.34
670.67	22993.42
670.81	22937.25
670.95	23204.07
671.09	22754.69
671.23	22637.66
671.37	23410.04
671.51	23084.70
671.65	22852.99
671.79	22799.16
671.93	22960.66
672.07	22782.77
672.21	22565.10
672.35	22501.91
672.49	22522.98
672.63	22389.56
672.77	22576.81
672.91	22286.58
673.05	22707.88
673.19	22104.02
673.33	22286.58
673.47	21830.18
673.61	22324.03
673.75	22157.85
673.89	22162.53
674.03	21979.97
674.17	22239.77
674.31	22094.66
674.45	21682.72
674.59	21734.21
674.73	22195.30
674.87	22082.95
675.01	21722.51
675.15	21500.16
675.29	21813.79
675.43	21678.04
675.56	21465.05
675.70	22036.14
675.84	21408.88
675.98	20709.06
676.12	21528.25
676.26	21537.61
676.40	21455.69
676.54	21532.93
676.68	21331.64
676.82	21209.93
676.96	21067.16
677.10	20987.58
677.23	20580.33
677.37	20751.19
677.51	20690.34
677.65	20910.35
677.79	20699.70
677.93	20479.69
678.07	20727.78
678.21	20458.62
678.34	20430.54
678.48	20379.04
678.62	20238.61
678.76	20482.03
678.90	20210.53
679.04	20201.16
679.18	20393.09
679.31	19606.67
679.45	19819.66
679.59	19693.27
679.73	19782.21
679.87	20049.03
680.00	19606.67
680.14	19494.32
680.28	19552.84
680.42	19761.14
680.56	19566.88
680.70	19428.79
680.83	19580.92
680.97	19583.26
681.11	19513.05
681.25	19403.04
681.39	19417.08
681.52	19318.78
681.66	19145.58
681.80	19082.39
681.94	19152.60
682.07	18956.00
682.21	18831.95
682.35	18747.69
682.49	19084.73
682.62	18670.45
682.76	19164.31
682.90	18609.60
683.04	18794.50
683.17	18707.90
683.31	18525.34
683.45	18642.37
683.59	18373.21
683.72	18349.80
683.86	18263.20
684.00	18347.46
684.13	18410.65
684.27	18185.96
684.41	17951.91
684.55	17865.31
684.68	17465.08
684.82	17834.88
684.96	18059.57
685.09	17989.36
685.23	17680.41
685.37	17598.49
685.50	17750.62
685.64	17624.23
685.78	17638.28
685.91	17750.62
686.05	17514.23
686.19	17486.14
686.32	17542.32
686.46	17050.80
686.60	17130.38
686.73	16975.91
686.87	17078.89
687.01	16835.47
687.14	16641.21
687.28	16772.28
687.42	16334.60
687.55	16779.30
687.69	16842.50
687.82	16589.72
687.96	16760.58
688.10	16439.92
688.23	16671.64
688.37	16451.63
688.50	16287.79
688.64	16482.05
688.78	16409.50
688.91	16187.14
689.05	15960.11
689.18	16290.13
689.32	15744.78
689.46	16074.80
689.59	15896.92
689.73	16130.97
689.86	15674.57
690.00	16037.35
690.13	15770.53
690.27	15590.31
690.41	15812.66
690.54	15648.82
690.68	15658.18
690.81	15686.27
690.95	15892.24
691.08	15552.86
691.22	15405.41
691.35	14991.13
691.49	15363.28
691.62	15290.72
691.76	15276.68
691.89	15000.49
692.03	14932.62
692.16	14775.80
692.30	15030.92
692.43	14693.88
692.57	14565.15
692.70	14677.50
692.84	14651.75
692.97	14956.02
693.11	14658.78
693.24	14537.07
693.38	14387.27
693.51	14340.46
693.65	14349.82
693.78	14298.33
693.92	14298.33
694.05	14167.26
694.19	13951.93
694.32	13923.85
694.45	13963.64
694.59	13783.41
694.72	14111.09
694.86	13603.19
694.99	13523.62
695.13	13664.05
695.26	13626.60
695.39	13628.94
695.53	13558.72
695.66	13809.16
695.80	13584.47
695.93	13383.18
696.07	13448.72
696.20	13390.20
696.33	13525.96
696.47	13458.08
696.60	13310.63
696.73	13055.51
696.87	13118.70
697.00	13165.51
697.14	12865.92
697.27	13039.12
697.40	12723.15
697.54	12659.96
697.67	12519.53
697.80	12428.24
697.94	12666.98
698.07	12547.61
698.21	12627.19
698.34	12746.56
698.47	12477.40
698.61	12531.23
698.74	12339.30
698.87	12404.84
699.01	12250.36
699.14	12386.12
699.27	12032.69
699.40	12215.26
699.54	12147.38
699.67	12032.69
699.80	11817.36
699.94	11892.26
700.07	11803.32
700.20	11587.99
700.34	11871.20
700.47	11651.19
700.60	11793.96
700.73	11880.56
700.87	11693.32
701.00	11475.65
701.13	11463.94
701.26	11620.76
701.40	11613.74
701.53	11541.18
701.66	11304.79
701.79	11272.02
701.93	11431.18
702.06	11143.29
702.19	11098.82
702.32	10820.30
702.46	10745.40
702.59	10675.18
702.72	10785.19
702.85	10803.91
702.99	10984.13
703.12	10604.97
703.25	10656.46
703.38	10736.04
703.51	10539.43
703.65	10572.20
703.78	10595.61
703.91	10399.00
704.04	10429.43
704.17	10611.99
704.31	10415.38
704.44	10352.19
704.57	10253.89
704.70	10162.61
704.83	10080.69
704.96	9935.57
705.10	9841.95
705.23	9909.83
>>>>>End Processed Spectral Data<<<<<
