SpectraSuite Data File
++++++++++++++++++++++++++++++++++++
Date: Fri Oct 18 13:57:55 GMT-05:00 2013
User: bianchi
Dark Spectrum Present: No
Reference Spectrum Present: No
Number of Sampled Component Spectra: 1
Spectrometers: USB2+H05261
Integration Time (usec): 50000 (USB2+H05261)
Spectra Averaged: 1 (USB2+H05261)
Boxcar Smoothing: 0 (USB2+H05261)
Correct for Electrical Dark: No (USB2+H05261)
Strobe/Lamp Enabled: No (USB2+H05261)
Correct for Detector Non-linearity: No (USB2+H05261)
Correct for Stray Light: No (USB2+H05261)
Number of Pixels in Processed Spectrum: 2048
>>>>>Begin Processed Spectral Data<<<<<
365.73	0.00
365.92	0.00
366.12	0.00
366.32	0.00
366.52	0.00
366.72	0.00
366.91	0.00
367.11	0.00
367.31	0.00
367.51	0.00
367.70	0.00
367.90	0.00
368.10	0.00
368.30	0.00
368.49	0.00
368.69	0.00
368.89	0.00
369.09	0.00
369.28	0.00
369.48	0.00
369.68	0.00
369.87	0.00
370.07	0.00
370.27	0.00
370.47	0.00
370.66	42.13
370.86	145.11
371.06	156.82
371.25	194.26
371.45	156.82
371.65	168.52
371.84	93.62
372.04	196.60
372.24	194.26
372.44	180.22
372.63	180.22
372.83	163.84
373.03	161.50
373.22	170.86
373.42	194.26
373.62	166.18
373.81	224.69
374.01	257.46
374.21	245.76
374.40	280.86
374.60	198.95
374.79	208.31
374.99	273.84
375.19	304.27
375.38	327.68
375.58	224.69
375.78	259.80
375.97	276.18
376.17	259.80
376.37	264.48
376.56	262.14
376.76	222.35
376.95	269.16
377.15	280.86
377.35	243.42
377.54	304.27
377.74	250.44
377.93	229.37
378.13	341.72
378.33	301.93
378.52	264.48
378.72	294.91
378.91	292.57
379.11	304.27
379.31	301.93
379.50	297.25
379.70	285.55
379.89	299.59
380.09	259.80
380.28	313.63
380.48	344.06
380.68	308.95
380.87	290.23
381.07	365.12
381.26	330.02
381.46	273.84
381.65	388.53
381.85	346.40
382.04	372.15
382.24	341.72
382.43	372.15
382.63	397.89
382.83	353.42
383.02	428.32
383.22	372.15
383.41	358.10
383.61	381.51
383.80	367.46
384.00	395.55
384.19	383.85
384.39	348.74
384.58	393.21
384.78	341.72
384.97	433.00
385.17	435.34
385.36	404.91
385.56	379.17
385.75	369.80
385.95	374.49
386.14	332.36
386.34	322.99
386.53	465.77
386.72	390.87
386.92	393.21
387.11	435.34
387.31	423.64
387.50	414.27
387.70	465.77
387.89	463.43
388.09	486.83
388.28	409.59
388.48	414.27
388.67	463.43
388.86	477.47
389.06	444.70
389.25	503.22
389.45	547.69
389.64	444.70
389.84	493.85
390.03	528.96
390.22	451.72
390.42	461.09
390.61	545.34
390.81	486.83
391.00	550.03
391.19	531.30
391.39	528.96
391.58	517.26
391.78	440.02
391.97	531.30
392.16	503.22
392.36	622.58
392.55	561.73
392.75	564.07
392.94	617.90
393.13	519.60
393.33	648.33
393.52	620.24
393.71	557.05
393.91	559.39
394.10	587.47
394.29	645.99
394.49	585.13
394.68	559.39
394.88	655.35
395.07	617.90
395.26	629.60
395.46	615.56
395.65	631.94
395.84	603.86
396.04	660.03
396.23	671.73
396.42	608.54
396.62	674.07
396.81	706.84
397.00	641.31
397.19	688.12
397.39	660.03
397.58	648.33
397.77	713.86
397.97	676.41
398.16	692.80
398.35	802.80
398.55	699.82
398.74	727.91
398.93	802.80
399.12	842.59
399.32	767.70
399.51	755.99
399.70	741.95
399.90	784.08
400.09	746.63
400.28	835.57
400.47	765.36
400.67	863.66
400.86	777.06
401.05	826.21
401.24	720.88
401.44	854.30
401.63	805.14
401.82	763.01
402.01	835.57
402.21	828.55
402.40	833.23
402.59	800.46
402.78	891.74
402.97	924.51
403.17	894.08
403.36	896.43
403.55	952.60
403.74	889.40
403.93	950.26
404.13	880.04
404.32	908.13
404.51	868.34
404.70	947.92
404.89	938.55
405.09	994.73
405.28	961.96
405.47	901.11
405.66	964.30
405.85	1032.18
406.05	1076.65
406.24	1074.31
406.43	1078.99
406.62	1067.28
406.81	1088.35
407.00	992.39
407.20	999.41
407.39	1053.24
407.58	1102.39
407.77	1069.62
407.96	1100.05
408.15	1160.91
408.34	1217.08
408.54	1280.27
408.73	1069.62
408.92	1198.35
409.11	1064.94
409.30	1132.82
409.49	1144.52
409.68	1226.44
409.87	1074.31
410.07	1188.99
410.26	1224.10
410.45	1172.61
410.64	1249.85
410.83	1231.12
411.02	1268.57
411.21	1203.04
411.40	1268.57
411.59	1376.24
411.78	1343.47
411.98	1263.89
412.17	1378.58
412.36	1383.26
412.55	1394.96
412.74	1359.85
412.93	1366.87
413.12	1327.08
413.31	1427.73
413.50	1444.11
413.69	1387.94
413.88	1526.03
414.07	1430.07
414.26	1441.77
414.45	1500.28
414.64	1537.73
414.83	1610.29
415.02	1451.13
415.22	1568.16
415.41	1661.78
415.60	1488.58
415.79	1713.27
415.98	1724.97
416.17	1558.80
416.36	1659.44
416.55	1561.14
416.74	1755.40
416.93	1689.87
417.12	1668.80
417.31	1633.69
417.50	1715.61
417.69	1792.85
417.88	1788.17
418.07	1715.61
418.26	1783.49
418.45	1832.64
418.64	1923.92
418.83	1804.55
419.02	1788.17
419.21	1858.39
419.39	1870.09
419.58	1921.58
419.77	1874.77
419.96	1886.47
420.15	1820.94
420.34	1837.32
420.53	1872.43
420.72	1954.35
420.91	2017.54
421.10	1944.99
421.29	2040.95
421.48	1949.67
421.67	2106.48
421.86	2043.29
422.05	2043.29
422.24	1886.47
422.43	1973.07
422.61	2050.31
422.80	1954.35
422.99	2087.76
423.18	2062.01
423.37	2106.48
423.56	1961.37
423.75	2069.03
423.94	2026.90
424.13	1860.73
424.32	1973.07
424.50	2092.44
424.69	2080.74
424.88	2150.95
425.07	2087.76
425.26	2073.71
425.45	2127.55
425.64	2101.80
425.83	2118.18
426.01	2087.76
426.20	2085.42
426.39	2127.55
426.58	2059.67
426.77	2211.81
426.96	2146.27
427.15	2078.40
427.33	2225.85
427.52	2150.95
427.71	2146.27
427.90	2181.38
428.09	2172.02
428.28	2333.51
428.46	2188.40
428.65	2300.75
428.84	2251.60
429.03	2232.87
429.22	2260.96
429.40	2263.30
429.59	2298.41
429.78	2235.21
429.97	2244.57
430.16	2237.55
430.34	2387.35
430.53	2338.20
430.72	2450.54
430.91	2375.64
431.10	2401.39
431.28	2438.84
431.47	2438.84
431.66	2450.54
431.85	2457.56
432.03	2487.99
432.22	2555.86
432.41	2445.86
432.60	2558.21
432.79	2413.09
432.97	2469.27
433.16	2516.08
433.35	2483.31
433.54	2586.29
433.72	2593.31
433.91	2553.52
434.10	2773.53
434.28	2623.74
434.47	2656.51
434.66	2532.46
434.85	2548.84
435.03	2614.38
435.22	2649.49
435.41	2686.94
435.59	2785.24
435.78	2705.66
435.97	2612.04
436.16	2745.45
436.34	2750.13
436.53	2808.64
436.72	2736.09
436.90	2654.17
437.09	2820.35
437.28	2785.24
437.46	2808.64
437.65	2738.43
437.84	3026.31
438.02	2963.12
438.21	2918.65
438.40	2881.20
438.58	2860.13
438.77	2944.39
438.96	2970.14
439.14	3005.25
439.33	3030.99
439.52	3023.97
439.70	2815.66
439.89	3033.33
440.08	3009.93
440.26	3084.83
440.45	3082.49
440.63	3290.79
440.82	3229.94
441.01	3265.05
441.19	3290.79
441.38	3260.37
441.57	3309.52
441.75	3236.96
441.94	3346.97
442.12	3370.37
442.31	3442.93
442.50	3243.98
442.68	3346.97
442.87	3419.52
443.05	3349.31
443.24	3574.00
443.43	3426.54
443.61	3520.17
443.80	3417.18
443.98	3398.46
444.17	3393.78
444.35	3613.79
444.54	3473.36
444.73	3583.36
444.91	3616.13
445.10	3531.87
445.28	3590.38
445.47	3510.80
445.65	3627.83
445.84	3485.06
446.02	3515.48
446.21	3548.25
446.39	3478.04
446.58	3623.15
446.77	3588.04
446.95	3634.85
447.14	3641.87
447.32	3517.83
447.51	3627.83
447.69	3669.96
447.88	3597.40
448.06	3641.87
448.25	3496.76
448.43	3730.81
448.62	3672.30
448.80	3630.17
448.99	3691.02
449.17	3641.87
449.36	3646.55
449.54	3733.15
449.73	3782.31
449.91	3775.28
450.10	3801.03
450.28	3896.99
450.46	3824.44
450.65	3747.20
450.83	3847.84
451.02	3847.84
451.20	3990.61
451.39	3969.55
451.57	3906.35
451.76	3967.21
451.94	3906.35
452.13	4098.28
452.31	3920.40
452.49	3836.14
452.68	3985.93
452.86	4016.36
453.05	4004.66
453.23	4093.60
453.42	3964.87
453.60	3983.59
453.78	4049.13
453.97	4030.40
454.15	4011.68
454.34	3960.19
454.52	3992.95
454.70	4154.45
454.89	4173.18
455.07	4140.41
455.26	4060.83
455.44	4212.96
455.62	4121.68
455.81	4145.09
455.99	4168.49
456.17	4194.24
456.36	4456.38
456.54	4365.10
456.73	4320.63
456.91	4425.95
457.09	4449.36
457.28	4550.00
457.46	4304.25
457.64	4475.10
457.83	4432.97
458.01	4418.93
458.19	4521.92
458.38	4418.93
458.56	4528.94
458.74	4596.81
458.93	4573.41
459.11	4545.32
459.29	4592.13
459.48	4477.44
459.66	4435.32
459.84	4751.29
460.03	4681.07
460.21	4713.84
460.39	4657.67
460.57	4699.80
460.76	4638.94
460.94	4718.52
461.12	4774.69
461.31	4847.25
461.49	4774.69
461.67	4744.27
461.85	4875.34
462.04	4840.23
462.22	5114.07
462.40	4828.53
462.59	4837.89
462.77	4851.93
462.95	4959.60
463.13	4985.34
463.32	5004.07
463.50	5123.43
463.68	4945.55
463.86	5046.20
464.05	4968.96
464.23	4854.27
464.41	5151.52
464.59	4912.78
464.78	5172.58
464.96	5060.24
465.14	5076.62
465.32	5055.56
465.50	5022.79
465.69	5181.95
465.87	5238.12
466.05	5219.39
466.23	5158.54
466.41	5270.89
466.60	5371.53
466.78	5149.18
466.96	5069.60
467.14	5231.10
467.32	5139.82
467.51	5352.81
467.69	5177.26
467.87	5160.88
468.05	5186.63
468.23	5186.63
468.41	5289.61
468.60	5308.34
468.78	5376.21
468.96	5240.46
469.14	5324.72
469.32	5563.45
469.50	5245.14
469.69	5490.90
469.87	5533.03
470.05	5671.12
470.23	5626.65
470.41	5647.71
470.59	5605.58
470.77	5600.90
470.95	5713.25
471.14	5849.00
471.32	5633.67
471.50	5764.74
471.68	5860.70
471.86	5804.53
472.04	5790.49
472.22	5769.42
472.40	5785.80
472.58	5844.32
472.77	6003.47
472.95	5872.40
473.13	6099.44
473.31	5914.53
473.49	5951.98
473.67	5919.21
473.85	6071.35
474.03	6230.51
474.21	6225.82
474.39	6216.46
474.57	6246.89
474.75	6436.47
474.93	6251.57
475.12	6134.54
475.30	6317.11
475.48	6469.24
475.66	6445.84
475.84	6527.75
476.02	6530.09
476.20	6672.87
476.38	6623.72
476.56	6647.12
476.74	6640.10
476.92	6633.08
477.10	6679.89
477.28	7101.19
477.46	6895.22
477.64	6867.13
477.82	7157.36
478.00	7136.29
478.18	7030.97
478.36	7133.95
478.54	7208.85
478.72	7140.97
478.90	7225.23
479.08	7431.20
479.26	7578.65
479.44	7667.60
479.62	7382.05
479.80	7695.68
479.98	7536.52
480.16	7859.52
480.34	7721.43
480.52	7964.84
480.70	7922.71
480.88	7929.74
481.06	7981.23
481.24	7815.05
481.41	8208.26
481.59	8285.50
481.77	8292.52
481.95	8369.76
482.13	8243.37
482.31	8135.70
482.49	8636.58
482.67	8561.68
482.85	8774.67
483.03	8720.84
483.21	8879.99
483.39	8629.56
483.57	8821.48
483.74	8917.44
483.92	8748.92
484.10	8779.35
484.28	9142.13
484.46	9434.70
484.64	9469.81
484.82	9116.39
485.00	9352.78
485.18	9638.33
485.35	9797.48
485.53	9558.75
485.71	9722.59
485.89	9727.27
486.07	9909.83
486.25	10085.37
486.43	9919.19
486.61	9874.72
486.78	9994.09
486.96	10097.07
487.14	10539.43
487.32	10354.53
487.50	10459.85
487.68	10452.83
487.85	10595.61
488.03	10810.93
488.21	11075.42
488.39	10759.44
488.57	11087.12
488.75	11126.91
488.92	11110.52
489.10	11262.66
489.28	11257.98
489.46	11449.90
489.64	11538.84
489.81	11681.61
489.99	11543.52
490.17	11733.11
490.35	11901.62
490.53	11840.77
490.70	11999.93
490.88	11735.45
491.06	12248.02
491.24	12128.66
491.41	12365.05
491.59	12437.61
491.77	12582.72
491.95	12615.49
492.13	12608.47
492.30	12453.99
492.48	12877.63
492.66	12788.69
492.84	12648.26
493.01	12940.82
493.19	12989.97
493.37	13481.49
493.54	13319.99
493.72	13226.37
493.90	13200.62
494.08	13107.00
494.25	13572.77
494.43	13565.74
494.61	13799.80
494.79	13537.66
494.96	13626.60
495.14	13731.92
495.32	13970.66
495.49	14019.81
495.67	13888.74
495.85	14097.05
496.02	14377.91
496.20	14270.25
496.38	14413.02
496.55	14164.92
496.73	14403.66
496.91	14513.66
497.09	14993.47
497.26	14750.06
497.44	14824.95
497.62	14974.75
497.79	14846.02
497.97	15047.30
498.14	15199.44
498.32	15393.70
498.50	15363.28
498.67	15503.71
498.85	15286.04
499.03	15709.68
499.20	15562.22
499.38	15482.64
499.56	15704.99
499.73	15864.15
499.91	15726.06
500.08	16016.29
500.26	15866.49
500.44	15754.15
500.61	15913.30
500.79	16046.71
500.97	16219.91
501.14	16409.50
501.32	16343.96
501.49	16161.40
501.67	16327.58
501.84	16437.58
502.02	16414.18
502.20	16425.88
502.37	16772.28
502.55	16549.93
502.72	16713.77
502.90	16975.91
503.07	16805.05
503.25	16823.77
503.43	16718.45
503.60	16812.07
503.78	16943.14
503.95	16954.84
504.13	17221.66
504.30	17371.46
504.48	17191.23
504.65	17198.26
504.83	17390.18
505.01	17649.98
505.18	17460.40
505.36	17813.82
505.53	17455.72
505.71	17872.33
505.88	17830.20
506.06	17231.02
506.23	17902.76
506.41	18001.06
506.58	18230.43
506.76	18183.62
506.93	18188.30
507.11	18003.40
507.28	18150.85
507.46	18153.20
507.63	18272.56
507.81	18342.78
507.98	18546.40
508.16	18623.64
508.33	18347.46
508.50	18476.19
508.68	18719.60
508.85	18822.59
509.03	18686.84
509.20	18665.77
509.38	18815.57
509.55	19171.33
509.73	18934.93
509.90	19150.26
510.08	18806.20
510.25	18836.63
510.42	19066.00
510.60	19337.51
510.77	19576.24
510.95	19882.85
511.12	19236.86
511.30	19002.81
511.47	19440.49
511.64	19768.16
511.82	19407.72
511.99	19920.30
512.17	19742.42
512.34	19711.99
512.51	19683.91
512.69	20144.99
512.86	19983.49
513.04	19983.49
513.21	19964.77
513.38	20107.54
513.56	19969.45
513.73	19950.73
513.90	19885.19
514.08	20126.27
514.25	20388.41
514.43	20439.90
514.60	20343.94
514.77	20369.68
514.95	20961.84
515.12	20421.17
515.29	20201.16
515.47	20360.32
515.64	20732.47
515.81	20886.94
515.99	20802.68
516.16	20936.09
516.33	21085.89
516.51	20917.37
516.68	20812.04
516.85	21088.23
517.03	20957.16
517.20	21198.23
517.37	20886.94
517.54	21387.82
517.72	21312.92
517.89	21458.03
518.06	21174.83
518.24	21256.75
518.41	21184.19
518.58	21750.60
518.75	21504.84
518.93	21820.81
519.10	21537.61
519.27	21745.92
519.45	21649.96
519.62	21654.64
519.79	21479.10
519.96	21617.19
520.14	22015.08
520.31	21816.13
520.48	22295.94
520.65	22164.87
520.83	22122.74
521.00	21788.05
521.17	22370.84
521.34	22331.05
521.52	22448.08
521.69	22211.68
521.86	22412.97
522.03	22490.21
522.20	22515.95
522.38	22267.86
522.55	22321.69
522.72	22127.42
522.89	22700.86
523.07	22675.11
523.24	23035.55
523.41	22609.58
523.58	22817.88
523.75	23037.89
523.92	22801.50
524.10	22934.91
524.27	23054.28
524.44	23328.12
524.61	23175.98
524.78	23288.33
524.96	23400.68
525.13	23302.37
525.30	23227.48
525.47	23168.96
525.64	23648.77
525.81	23367.91
525.98	23431.10
526.16	23662.82
526.33	23473.23
526.50	23527.06
526.67	23398.34
526.84	23681.54
527.01	23545.79
527.18	23875.80
527.36	23854.74
527.53	23861.76
527.70	24194.12
527.87	24105.18
528.04	24091.13
528.21	24243.27
528.38	24009.22
528.55	24175.39
528.72	24346.25
528.89	24435.19
529.07	24364.98
529.24	24250.29
529.41	24472.64
529.58	24205.82
529.75	24332.21
529.92	24226.89
530.09	24301.78
530.26	24687.97
530.43	24563.92
530.60	24379.02
530.77	24467.96
530.94	24678.61
531.11	24205.82
531.28	24999.26
531.46	24620.10
531.63	24725.42
531.80	24465.62
531.97	25434.60
532.14	24833.08
532.31	25453.33
532.48	24982.88
532.65	25317.57
532.82	25165.44
532.99	25006.28
533.16	24924.36
533.33	25315.23
533.50	25273.10
533.67	24989.90
533.84	24751.17
534.01	25188.85
534.18	25167.78
534.35	25387.79
534.52	25177.14
534.69	25598.44
534.86	25268.42
535.03	25308.21
535.20	25305.87
535.37	25436.94
535.54	25982.29
535.71	25497.80
535.88	25235.66
536.05	25495.46
536.22	25930.80
536.38	25993.99
536.55	26113.36
536.72	26022.08
536.89	25769.30
537.06	26005.69
537.23	25965.90
537.40	26106.34
537.57	26115.70
537.74	25951.86
537.91	26305.28
538.08	26129.74
538.25	26225.70
538.42	25998.67
538.59	26092.29
538.75	26040.80
538.92	25944.84
539.09	26499.55
539.26	26534.65
539.43	26312.30
539.60	26677.43
539.77	26614.23
539.94	26518.27
540.11	26225.70
540.28	26366.13
540.44	26595.51
540.61	26321.66
540.78	26324.01
540.95	26717.22
541.12	26518.27
541.29	26787.43
541.46	26670.40
541.62	26588.49
541.79	26602.53
541.96	26331.03
542.13	26415.29
542.30	27087.02
542.47	27168.94
542.63	26916.16
542.80	26820.20
542.97	27227.45
543.14	27302.35
543.31	27250.86
543.48	27391.29
543.64	27470.87
543.81	27543.42
543.98	27852.38
544.15	27424.06
544.32	27164.26
544.48	27653.43
544.65	27295.33
544.82	27529.38
544.99	27337.46
545.16	27648.75
545.32	27332.78
545.49	27826.63
545.66	27772.80
545.83	27948.34
546.00	27915.57
546.16	27721.30
546.33	27660.45
546.50	27475.55
546.67	27826.63
546.83	27335.12
547.00	28173.03
547.17	27688.54
547.34	28053.66
547.50	28109.83
547.67	28229.20
547.84	28025.57
548.00	27948.34
548.17	28374.31
548.34	28247.93
548.51	28266.65
548.67	28535.81
548.84	28723.05
549.01	28233.88
549.18	28006.85
549.34	28166.01
549.51	28187.07
549.68	28261.97
549.84	28299.42
550.01	28484.32
550.18	28240.90
550.34	28481.98
550.51	28561.56
550.68	28638.80
550.84	28353.25
551.01	28687.95
551.18	28360.27
551.34	28374.31
551.51	28287.71
551.68	28968.81
551.84	28608.37
552.01	28575.60
552.18	28701.99
552.34	28709.01
552.51	28819.02
552.68	28470.28
552.84	28556.88
553.01	29347.98
553.18	28657.52
553.34	28645.82
553.51	28657.52
553.67	29486.07
553.84	29401.81
554.01	29163.08
554.17	28982.85
554.34	29319.89
554.51	29223.93
554.67	29041.37
554.84	29277.76
555.00	29575.01
555.17	28947.75
555.33	28917.32
555.50	29287.12
555.67	29355.00
555.83	29460.32
556.00	29315.21
556.16	29502.45
556.33	28898.59
556.50	29200.52
556.66	29607.78
556.83	29380.74
556.99	29802.04
557.16	29947.15
557.32	29305.85
557.49	29640.54
557.65	29387.77
557.82	29530.54
557.98	29369.04
558.15	29383.09
558.32	29727.14
558.48	29586.71
558.65	29406.49
558.81	29703.74
558.98	29635.86
559.14	29415.85
559.31	29656.93
559.47	29476.71
559.64	29453.30
559.80	30066.52
559.97	29823.11
560.13	29752.89
560.30	29727.14
560.46	29551.60
560.63	29928.43
560.79	29970.56
560.96	29862.90
561.12	29923.75
561.29	29996.31
561.45	29731.83
561.61	29926.09
561.78	30216.32
561.94	30216.32
562.11	29944.81
562.27	30036.09
562.44	30221.00
562.60	29881.62
562.77	29745.87
562.93	29930.77
563.10	30272.49
563.26	29930.77
563.42	30515.90
563.59	30134.40
563.75	30436.33
563.92	30169.51
564.08	29799.70
564.24	30085.25
564.41	30223.34
564.57	29811.40
564.74	29750.55
564.90	30618.89
565.07	30293.55
565.23	30410.58
565.39	30419.94
565.56	30338.02
565.72	30300.58
565.88	30068.86
566.05	30169.51
566.21	30281.85
566.38	30520.59
566.54	30333.34
566.70	30658.68
566.87	30572.08
567.03	30380.15
567.19	30930.18
567.36	30602.50
567.52	30398.88
567.68	30459.73
567.85	30349.73
568.01	30480.80
568.17	30621.23
568.34	30705.49
568.50	30611.87
568.66	30574.42
568.83	30672.72
568.99	30724.21
569.15	30499.52
569.32	30684.42
569.48	30312.28
569.64	30567.40
569.81	30602.50
569.97	30630.59
570.13	30920.82
570.30	30431.65
570.46	30869.33
570.62	30637.61
570.78	30192.91
570.95	30424.62
571.11	30719.53
571.27	30368.45
571.43	30387.18
571.60	30558.03
571.76	30953.58
571.92	30742.94
572.09	30604.84
572.25	30909.11
572.41	30960.61
572.57	30710.17
572.74	30572.08
572.90	30712.51
573.06	30829.54
573.22	30689.10
573.38	31117.42
573.55	30686.76
573.71	31346.79
573.87	30939.54
574.03	30441.01
574.20	30836.56
574.36	30635.27
574.52	30820.17
574.68	30670.38
574.84	30525.27
575.01	30696.13
575.17	31084.65
575.33	30347.39
575.49	30845.92
575.65	30625.91
575.82	31194.66
575.98	30630.59
576.14	30368.45
576.30	31187.64
576.46	30885.71
576.62	30742.94
576.79	30787.41
576.95	30553.35
577.11	30824.86
577.27	30969.97
577.43	30923.16
577.59	31297.64
577.75	30838.90
577.92	30677.40
578.08	31021.46
578.24	30646.97
578.40	30916.14
578.56	30822.51
578.72	31026.14
578.88	31487.23
579.04	30969.97
579.21	31026.14
579.37	30976.99
579.53	30984.01
579.69	30731.23
579.85	30829.54
580.01	30974.65
580.17	30918.48
580.33	31145.51
580.49	30991.03
580.65	30981.67
580.82	31035.50
580.98	31449.78
581.14	31192.32
581.30	31440.42
581.46	30857.62
581.62	31084.65
581.78	30670.38
581.94	31194.66
582.10	31182.96
582.26	31072.95
582.42	30848.26
582.58	31136.15
582.74	31297.64
582.90	30972.31
583.06	31583.19
583.22	31012.10
583.38	30852.94
583.54	31461.48
583.70	30850.60
583.86	31517.65
584.02	30909.11
584.18	31402.97
584.34	31208.70
584.50	31248.49
584.66	31079.97
584.82	30888.05
584.98	31260.20
585.14	30920.82
585.30	30881.03
585.46	30960.61
585.62	31030.82
585.78	30876.35
585.94	31161.89
586.10	31278.92
586.26	30953.58
586.42	31260.20
586.58	31094.02
586.74	31023.80
586.90	30794.43
587.06	31051.89
587.22	31103.38
587.38	30703.15
587.54	31386.58
587.70	31094.02
587.86	31637.02
588.02	31220.41
588.18	31648.72
588.34	31473.18
588.49	31548.08
588.65	30988.69
588.81	31220.41
588.97	31374.88
589.13	31187.64
589.29	30976.99
589.45	31477.86
589.61	31665.11
589.77	31339.77
589.93	31292.96
590.08	32147.26
590.24	31592.55
590.40	31405.31
590.56	31438.08
590.72	31234.45
590.88	31028.48
591.04	31285.94
591.20	31498.93
591.35	31648.72
591.51	32002.14
591.67	31571.49
591.83	31941.29
591.99	31859.37
592.15	31625.32
592.31	32006.83
592.46	31491.91
592.62	31487.23
592.78	31391.26
592.94	31082.31
593.10	31679.15
593.26	31592.55
593.41	31302.32
593.57	31711.92
593.73	31592.55
593.89	32093.43
594.05	31452.12
594.20	31316.37
594.36	31562.12
594.52	31529.36
594.68	31604.25
594.84	31337.43
594.99	32133.21
595.15	31454.46
595.31	31880.44
595.47	31625.32
595.62	31960.02
595.78	31646.38
595.94	31728.30
596.10	31861.71
596.25	31608.93
596.41	31644.04
596.57	31365.52
596.73	31599.57
596.88	31498.93
597.04	32273.65
597.20	31662.77
597.36	31695.53
597.51	31936.61
597.67	31796.18
597.83	31714.26
597.99	31374.88
598.14	31402.97
598.30	31915.54
598.46	31641.70
598.61	31489.57
598.77	31833.63
598.93	32147.26
599.09	31744.69
599.24	32336.84
599.40	32149.60
599.56	32051.30
599.71	31480.21
599.87	31873.42
600.03	31784.48
600.18	31807.88
600.34	31552.76
600.50	32060.66
600.65	31945.97
600.81	32072.36
600.97	31871.07
601.12	32023.21
601.28	31896.82
601.44	32233.86
601.59	32098.11
601.75	31800.86
601.91	32027.89
602.06	31859.37
602.22	31779.79
602.37	31765.75
602.53	31683.83
602.69	32119.17
602.84	31999.80
603.00	32250.24
603.16	31948.31
603.31	31892.14
603.47	31999.80
603.62	32063.00
603.78	31686.17
603.94	31842.99
604.09	31693.19
604.25	31777.45
604.40	32051.30
604.56	31763.41
604.71	32540.47
604.87	31473.18
605.03	32041.93
605.18	31529.36
605.34	31550.42
605.49	31882.78
605.65	31969.38
605.80	31711.92
605.96	31627.66
606.12	31821.92
606.27	31541.06
606.43	31974.06
606.58	32163.64
606.74	31793.84
606.89	32126.19
607.05	31824.26
607.20	32109.81
607.36	31220.41
607.51	32077.04
607.67	31599.57
607.82	31662.77
607.98	31768.09
608.13	32135.56
608.29	31688.51
608.44	31555.10
608.60	31655.75
608.75	31747.03
608.91	31718.94
609.06	31796.18
609.22	31803.20
609.37	31297.64
609.53	31288.28
609.68	31597.23
609.84	31241.47
609.99	31754.05
610.15	31405.31
610.30	31068.27
610.46	31344.45
610.61	31976.40
610.76	31409.99
610.92	31318.71
611.07	31281.26
611.23	31592.55
611.38	31531.70
611.54	31250.83
611.69	31328.07
611.84	31583.19
612.00	31381.90
612.15	31096.36
612.31	31353.82
612.46	31512.97
612.62	31669.79
612.77	31178.28
612.92	31814.90
613.08	31402.97
613.23	31639.36
613.39	31115.08
613.54	31136.15
613.69	31587.87
613.85	30969.97
614.00	31145.51
614.15	31393.61
614.31	31152.53
614.46	31150.19
614.62	31164.23
614.77	31363.18
614.92	31351.48
615.08	31318.71
615.23	31044.87
615.38	31061.25
615.54	31014.44
615.69	30923.16
615.84	30862.30
616.00	31033.16
616.15	31023.80
616.30	31374.88
616.46	30843.58
616.61	31285.94
616.76	31433.39
616.92	31089.34
617.07	30993.37
617.22	31164.23
617.37	31222.75
617.53	31168.91
617.68	30958.27
617.83	30684.42
617.99	30665.70
618.14	30668.04
618.29	30927.84
618.45	31143.17
618.60	30881.03
618.75	30735.92
618.90	31049.55
619.06	30824.86
619.21	30878.69
619.36	30855.28
619.51	30307.60
619.67	30546.33
619.82	30525.27
619.97	30738.26
620.12	30258.45
620.28	30433.99
620.43	30976.99
620.58	30927.84
620.73	30445.69
620.89	30902.09
621.04	30859.96
621.19	30628.25
621.34	30485.48
621.49	30239.72
621.65	30003.33
621.80	30611.87
621.95	30260.79
622.10	30583.78
622.25	30668.04
622.41	30733.57
622.56	30335.68
622.71	30597.82
622.86	30312.28
623.01	30796.77
623.16	30272.49
623.32	30618.89
623.47	30043.12
623.62	30274.83
623.77	30197.59
623.92	30314.62
624.07	29851.19
624.23	30321.64
624.38	30078.22
624.53	30157.80
624.68	30328.66
624.83	30639.95
624.98	30281.85
625.13	30012.69
625.29	30134.40
625.44	30118.01
625.59	30120.35
625.74	29944.81
625.89	29820.77
626.04	30267.81
626.19	29710.76
626.34	30050.14
626.49	29699.06
626.65	29862.90
626.80	30270.15
626.95	29600.76
627.10	29813.74
627.25	30249.08
627.40	29614.80
627.55	29663.95
627.70	29656.93
627.85	29603.10
628.00	29612.46
628.15	29446.28
628.30	29703.74
628.45	29731.83
628.60	29603.10
628.76	29816.08
628.91	29771.61
629.06	29567.99
629.21	29689.70
629.36	29450.96
629.51	29226.27
629.66	29359.68
629.81	29591.39
629.96	29439.26
630.11	29347.98
630.26	29493.09
630.41	29696.72
630.56	29509.47
630.71	29427.56
630.86	29177.12
631.01	29118.60
631.16	29507.13
631.31	29612.46
631.46	28978.17
631.61	29024.98
631.76	29460.32
631.91	28851.78
632.06	29249.67
632.21	28868.17
632.36	29034.35
632.51	29212.23
632.66	29020.30
632.81	29308.19
632.96	29537.56
633.10	29324.57
633.25	29223.93
633.40	29249.67
633.55	28847.10
633.70	29069.45
633.85	28694.97
634.00	28924.34
634.15	29048.39
634.30	29067.11
634.45	29006.26
634.60	28823.70
634.75	29130.31
634.90	28463.25
635.05	29034.35
635.19	28900.94
635.34	28994.56
635.49	29034.35
635.64	29085.84
635.79	29535.22
635.94	29139.67
636.09	29118.60
636.24	28706.67
636.39	29081.16
636.53	28573.26
636.68	28795.61
636.83	28713.69
636.98	28835.40
637.13	28601.35
637.28	28863.49
637.43	28694.97
637.57	29085.84
637.72	28554.54
637.87	28856.46
638.02	28608.37
638.17	28339.21
638.32	28622.41
638.46	28601.35
638.61	28383.68
638.76	28503.04
638.91	28561.56
639.06	28065.36
639.20	28402.40
639.35	28437.51
639.50	28692.63
639.65	28500.70
639.80	28542.83
639.94	28694.97
640.09	28414.10
640.24	27913.23
640.39	28114.52
640.54	28144.94
640.68	28224.52
640.83	27969.40
640.98	27821.95
641.13	27543.42
641.27	28191.75
641.42	28322.82
641.57	28278.35
641.72	28016.21
641.86	28170.69
642.01	27768.12
642.16	27674.49
642.31	27520.02
642.45	27896.85
642.60	27779.82
642.75	27784.50
642.90	27906.21
643.04	27927.27
643.19	27740.03
643.34	27920.25
643.48	27962.38
643.63	27971.74
643.78	27737.69
643.93	27990.47
644.07	27875.78
644.22	28161.33
644.37	27721.30
644.51	27796.20
644.66	27733.01
644.81	27828.97
644.95	27604.28
645.10	27791.52
645.25	27503.64
645.39	27466.19
645.54	27782.16
645.69	28058.34
645.83	27679.18
645.98	27859.40
646.13	27831.31
646.27	27953.02
646.42	27889.82
646.57	27459.16
646.71	27314.05
646.86	27538.74
647.00	27611.30
647.15	27377.25
647.30	27262.56
647.44	27445.12
647.59	27644.07
647.74	27192.34
647.88	27597.26
648.03	27580.87
648.17	27431.08
648.32	27318.73
648.47	27630.02
648.61	27227.45
648.76	27585.55
648.90	27400.65
649.05	27206.39
649.20	26869.35
649.34	27405.33
649.49	26771.05
649.63	26850.63
649.78	27332.78
649.92	26855.31
650.07	27353.84
650.21	26979.36
650.36	27023.83
650.51	27285.97
650.65	27180.64
650.80	27318.73
650.94	27087.02
651.09	27110.43
651.23	27042.55
651.38	26740.62
651.52	26946.59
651.67	26735.94
651.81	26836.58
651.96	26665.72
652.10	27250.86
652.25	27175.96
652.39	27014.46
652.54	26869.35
652.68	26632.96
652.83	26742.96
652.97	26979.36
653.12	26939.57
653.26	27131.49
653.41	27211.07
653.55	26684.45
653.70	26953.61
653.84	26909.14
653.99	26815.52
654.13	26593.17
654.27	26644.66
654.42	26794.45
654.56	26799.13
654.71	26789.77
654.85	26515.93
655.00	26403.58
655.14	26977.01
655.29	26721.90
655.43	26588.49
655.57	26459.76
655.72	26593.17
655.86	26558.06
656.01	26225.70
656.15	26171.87
656.30	26431.67
656.44	26279.54
656.58	26164.85
656.73	26075.91
656.87	26338.05
657.01	26504.23
657.16	26382.52
657.30	26635.30
657.45	26532.31
657.59	26813.18
657.73	26225.70
657.88	26089.95
658.02	25942.50
658.16	25860.58
658.31	26281.88
658.45	26625.93
658.60	26015.05
658.74	26192.94
658.88	25982.29
659.03	25989.31
659.17	25914.41
659.31	26094.63
659.46	25905.05
659.60	25963.56
659.74	26026.76
659.89	26143.78
660.03	25811.43
660.17	25905.05
660.32	25666.31
660.46	25893.35
660.60	25797.38
660.74	25392.47
660.89	25743.55
661.03	25577.37
661.17	25394.81
661.32	25612.48
661.46	25778.66
661.60	25207.57
661.74	25935.48
661.89	25628.87
662.03	25219.27
662.17	25558.65
662.31	25319.92
662.46	25455.67
662.60	25275.45
662.74	25469.71
662.88	25385.45
663.03	24922.02
663.17	25397.15
663.31	24507.75
663.45	25071.82
663.60	24821.38
663.74	24774.57
663.88	25032.03
664.02	24922.02
664.17	25067.14
664.31	24875.21
664.45	25109.27
664.59	24950.11
664.73	25032.03
664.88	24741.80
665.02	24446.90
665.16	24332.21
665.30	24517.11
665.44	24629.46
665.59	24528.81
665.73	24383.70
665.87	24407.11
666.01	24563.92
666.15	24442.21
666.29	24350.93
666.44	24444.56
666.58	24285.40
666.72	24224.54
666.86	24425.83
667.00	24531.15
667.14	24360.30
667.28	24430.51
667.43	24524.13
667.57	24329.87
667.71	24016.24
667.85	23983.47
667.99	24039.64
668.13	23871.12
668.27	23913.25
668.41	23969.43
668.56	23714.31
668.70	24056.03
668.84	23999.85
668.98	23988.15
669.12	24013.90
669.26	23864.10
669.40	23992.83
669.54	23723.67
669.68	23740.05
669.82	23594.94
669.96	23426.42
670.10	23183.01
670.25	23396.00
670.39	23143.22
670.53	23154.92
670.67	23178.33
670.81	23545.79
670.95	23449.83
671.09	23285.99
671.23	23080.02
671.37	23180.67
671.51	23372.59
671.65	23073.00
671.79	23124.49
671.93	23283.65
672.07	23082.36
672.21	23023.85
672.35	22906.82
672.49	22792.14
672.63	22595.53
672.77	22799.16
672.91	22862.35
673.05	22443.40
673.19	22855.33
673.33	22775.75
673.47	22483.19
673.61	22675.11
673.75	22586.17
673.89	22525.32
674.03	22492.55
674.17	22457.44
674.31	22434.03
674.45	22199.98
674.59	22424.67
674.73	22382.54
674.87	22331.05
675.01	22082.95
675.15	22101.68
675.29	21764.64
675.43	21881.67
675.56	22075.93
675.70	22001.04
675.84	21860.60
675.98	21345.69
676.12	21804.43
676.26	22199.98
676.40	21942.52
676.54	22005.72
676.68	21593.78
676.82	21226.32
676.96	21223.98
677.10	21497.82
677.23	21214.62
677.37	20954.82
677.51	21048.44
677.65	21167.80
677.79	20889.28
677.93	20858.85
678.07	20650.55
678.21	20411.81
678.34	20521.82
678.48	20713.74
678.62	20786.30
678.76	20521.82
678.90	20521.82
679.04	20276.06
679.18	20531.18
679.31	20404.79
679.45	20142.65
679.59	19927.32
679.73	20222.23
679.87	20018.60
680.00	20210.53
680.14	20159.03
680.28	19690.93
680.42	19719.01
680.56	19789.23
680.70	19840.72
680.83	20020.94
680.97	19946.05
681.11	19646.46
681.25	19503.68
681.39	19601.99
681.52	19716.67
681.66	19321.12
681.80	19403.04
681.94	19477.94
682.07	19473.26
682.21	19253.25
682.35	19246.23
682.49	19077.71
682.62	18939.62
682.76	19192.39
682.90	19105.79
683.04	19061.32
683.17	18899.83
683.31	18920.89
683.45	19019.19
683.59	19056.64
683.72	18796.84
683.86	18668.11
684.00	18349.80
684.13	18604.92
684.27	18637.69
684.41	18214.05
684.55	17958.93
684.68	18078.30
684.82	17879.35
684.96	18139.15
685.09	17902.76
685.23	17898.08
685.37	17998.72
685.50	18256.18
685.64	18071.28
685.78	17703.81
685.91	17813.82
686.05	18005.74
686.19	17551.68
686.32	17680.41
686.46	17345.71
686.60	17408.90
686.73	17228.68
686.87	17156.13
687.01	17331.67
687.14	17429.97
687.28	16833.13
687.42	16980.59
687.55	16973.56
687.69	17142.08
687.82	16940.80
687.96	16809.73
688.10	16746.53
688.23	16697.38
688.37	16760.58
688.50	16720.79
688.64	16702.06
688.78	16519.50
688.91	16531.20
689.05	16521.84
689.18	16477.37
689.32	16091.18
689.46	16006.92
689.59	16166.08
689.73	16135.65
689.86	16018.63
690.00	15770.53
690.13	16299.49
690.27	15906.28
690.41	16233.96
690.54	15969.48
690.68	15868.83
690.81	15744.78
690.95	15845.43
691.08	15653.50
691.22	15784.57
691.35	15419.45
691.49	15538.82
691.62	15323.49
691.76	15344.55
691.89	15171.35
692.03	15049.64
692.16	15126.88
692.30	15068.37
692.43	15073.05
692.57	15014.54
692.70	14724.31
692.84	14897.51
692.97	14717.29
693.11	14934.96
693.24	14752.40
693.38	14967.73
693.51	14684.52
693.65	14530.05
693.78	14471.53
693.92	14696.22
694.05	14480.89
694.19	14377.91
694.32	14445.79
694.45	14305.35
694.59	14146.20
694.72	14071.30
694.86	13916.83
694.99	13752.99
695.13	13745.97
695.26	13727.24
695.39	14087.68
695.53	13738.94
695.66	13745.97
695.80	13547.02
695.93	13638.30
696.07	13650.00
696.20	13528.30
696.33	13563.40
696.47	13497.87
696.60	13420.63
696.73	13364.46
696.87	13235.73
697.00	13317.65
697.14	13219.35
697.27	13125.72
697.40	13128.06
697.54	13118.70
697.67	12943.16
697.80	12830.82
697.94	12816.77
698.07	12690.38
698.21	12828.48
698.34	12648.26
698.47	12737.20
698.61	12458.67
698.74	12585.06
698.87	12566.34
699.01	12297.17
699.14	12346.33
699.27	12430.59
699.40	12575.70
699.54	12198.87
699.67	12257.39
699.80	12255.04
699.94	12016.31
700.07	11915.67
700.20	11882.90
700.34	12006.95
700.47	11875.88
700.60	11910.99
700.73	11885.24
700.87	11861.84
701.00	11566.93
701.13	11737.79
701.26	11569.27
701.40	11712.04
701.53	11740.13
701.66	11646.51
701.79	11510.75
701.93	11555.22
702.06	11552.88
702.19	11096.48
702.32	11215.85
702.46	10965.41
702.59	10904.56
702.72	10956.05
702.85	11012.22
702.99	10995.84
703.12	10930.30
703.25	10799.23
703.38	10972.43
703.51	10993.50
703.65	10736.04
703.78	10923.28
703.91	10778.17
704.04	10869.45
704.17	10691.57
704.31	10611.99
704.44	10530.07
704.57	10649.44
704.70	10483.26
704.83	10368.57
704.96	10284.31
705.10	9984.73
705.23	10141.54
>>>>>End Processed Spectral Data<<<<<
