SpectraSuite Data File
++++++++++++++++++++++++++++++++++++
Date: Fri Oct 18 13:58:02 GMT-05:00 2013
User: bianchi
Dark Spectrum Present: No
Reference Spectrum Present: No
Number of Sampled Component Spectra: 1
Spectrometers: USB2+H05261
Integration Time (usec): 50000 (USB2+H05261)
Spectra Averaged: 1 (USB2+H05261)
Boxcar Smoothing: 0 (USB2+H05261)
Correct for Electrical Dark: No (USB2+H05261)
Strobe/Lamp Enabled: No (USB2+H05261)
Correct for Detector Non-linearity: No (USB2+H05261)
Correct for Stray Light: No (USB2+H05261)
Number of Pixels in Processed Spectrum: 2048
>>>>>Begin Processed Spectral Data<<<<<
365.73	0.00
365.92	0.00
366.12	0.00
366.32	0.00
366.52	0.00
366.72	0.00
366.91	0.00
367.11	0.00
367.31	0.00
367.51	0.00
367.70	0.00
367.90	0.00
368.10	0.00
368.30	0.00
368.49	0.00
368.69	0.00
368.89	0.00
369.09	0.00
369.28	0.00
369.48	0.00
369.68	0.00
369.87	0.00
370.07	0.00
370.27	0.00
370.47	0.00
370.66	32.77
370.86	105.32
371.06	147.45
371.25	208.31
371.45	187.24
371.65	98.30
371.84	79.58
372.04	203.63
372.24	170.86
372.44	187.24
372.63	140.43
372.83	147.45
373.03	168.52
373.22	241.08
373.42	217.67
373.62	224.69
373.81	205.97
374.01	180.22
374.21	318.31
374.40	276.18
374.60	262.14
374.79	224.69
374.99	243.42
375.19	248.10
375.38	273.84
375.58	292.57
375.78	234.05
375.97	241.08
376.17	290.23
376.37	264.48
376.56	299.59
376.76	229.37
376.95	175.54
377.15	311.29
377.35	269.16
377.54	248.10
377.74	355.76
377.93	250.44
378.13	280.86
378.33	262.14
378.52	236.39
378.72	297.25
378.91	294.91
379.11	287.89
379.31	273.84
379.50	313.63
379.70	294.91
379.89	351.08
380.09	297.25
380.28	299.59
380.48	332.36
380.68	330.02
380.87	285.55
381.07	353.42
381.26	287.89
381.46	322.99
381.65	301.93
381.85	353.42
382.04	271.50
382.24	390.87
382.43	259.80
382.63	372.15
382.83	395.55
383.02	374.49
383.22	358.10
383.41	433.00
383.61	341.72
383.80	397.89
384.00	353.42
384.19	306.61
384.39	381.51
384.58	421.30
384.78	449.38
384.97	444.70
385.17	351.08
385.36	372.15
385.56	355.76
385.75	463.43
385.95	383.85
386.14	348.74
386.34	390.87
386.53	414.27
386.72	442.36
386.92	435.34
387.11	395.55
387.31	402.57
387.50	400.23
387.70	416.62
387.89	463.43
388.09	465.77
388.28	486.83
388.48	479.81
388.67	496.19
388.86	533.64
389.06	454.06
389.25	503.22
389.45	461.09
389.64	397.89
389.84	517.26
390.03	409.59
390.22	543.00
390.42	465.77
390.61	554.71
390.81	507.90
391.00	528.96
391.19	589.82
391.39	533.64
391.58	538.32
391.78	531.30
391.97	477.47
392.16	543.00
392.36	531.30
392.55	510.24
392.75	465.77
392.94	423.64
393.13	582.79
393.33	650.67
393.52	552.37
393.71	545.34
393.91	538.32
394.10	664.71
394.29	559.39
394.49	603.86
394.68	559.39
394.88	587.47
395.07	613.22
395.26	547.69
395.46	564.07
395.65	638.97
395.84	657.69
396.04	713.86
396.23	643.65
396.42	704.50
396.62	704.50
396.81	627.26
397.00	713.86
397.19	704.50
397.39	671.73
397.58	671.73
397.77	734.93
397.97	580.45
398.16	674.07
398.35	688.12
398.55	622.58
398.74	826.21
398.93	791.10
399.12	676.41
399.32	695.14
399.51	795.78
399.70	784.08
399.90	727.91
400.09	767.70
400.28	814.51
400.47	791.10
400.67	718.54
400.86	770.04
401.05	842.59
401.24	828.55
401.44	821.53
401.63	837.91
401.82	795.78
402.01	812.17
402.21	791.10
402.40	833.23
402.59	854.30
402.78	830.89
402.97	854.30
403.17	835.57
403.36	826.21
403.55	823.87
403.74	903.45
403.93	891.74
404.13	856.64
404.32	901.11
404.51	814.51
404.70	830.89
404.89	990.05
405.09	959.62
405.28	1027.50
405.47	858.98
405.66	929.19
405.85	978.34
406.05	1015.79
406.24	983.02
406.43	976.00
406.62	1057.92
406.81	1048.56
407.00	987.71
407.20	1008.77
407.39	1015.79
407.58	976.00
407.77	1076.65
407.96	1071.97
408.15	1050.90
408.34	1086.01
408.54	1090.69
408.73	1095.37
408.92	1139.84
409.11	1114.10
409.30	1116.44
409.49	1135.16
409.68	1170.27
409.87	1170.27
410.07	1268.57
410.26	1107.07
410.45	1240.48
410.64	1291.98
410.83	1224.10
411.02	1095.37
411.21	1207.72
411.40	1231.12
411.59	1275.59
411.78	1294.32
411.98	1254.53
412.17	1306.02
412.36	1203.04
412.55	1301.34
412.74	1373.89
412.93	1320.06
413.12	1277.93
413.31	1411.34
413.50	1287.29
413.69	1413.68
413.88	1404.32
414.07	1441.77
414.26	1465.18
414.45	1362.19
414.64	1420.71
414.83	1558.80
415.02	1511.99
415.22	1465.18
415.41	1563.48
415.60	1493.26
415.79	1486.24
415.98	1600.93
416.17	1612.63
416.36	1605.61
416.55	1570.50
416.74	1621.99
416.93	1572.84
417.12	1596.25
417.31	1743.70
417.50	1811.57
417.69	1717.95
417.88	1757.74
418.07	1708.59
418.26	1888.81
418.45	1823.28
418.64	1914.56
418.83	1891.15
419.02	1818.60
419.21	1816.26
419.39	1902.86
419.58	1839.66
419.77	1710.93
419.96	1952.01
420.15	1914.56
420.34	1909.88
420.53	1898.17
420.72	1872.43
420.91	1975.41
421.10	1949.67
421.29	1968.39
421.48	1949.67
421.67	2040.95
421.86	2031.58
422.05	2050.31
422.24	1977.75
422.43	2054.99
422.61	1994.14
422.80	2090.10
422.99	2043.29
423.18	2031.58
423.37	2099.46
423.56	2099.46
423.75	2052.65
423.94	1963.71
424.13	1860.73
424.32	1902.86
424.50	2003.50
424.69	2172.02
424.88	2150.95
425.07	2076.06
425.26	2200.10
425.45	2038.61
425.64	1930.94
425.83	2012.86
426.01	2094.78
426.20	2097.12
426.39	2218.83
426.58	2127.55
426.77	2127.55
426.96	2162.66
427.15	2099.46
427.33	2080.74
427.52	2111.16
427.71	2155.63
427.90	2300.75
428.09	2111.16
428.28	2277.34
428.46	2249.25
428.65	2265.64
428.84	2368.62
429.03	2279.68
429.22	2162.66
429.40	2272.66
429.59	2275.00
429.78	2127.55
429.97	2132.23
430.16	2256.28
430.34	2275.00
430.53	2377.98
430.72	2317.13
430.91	2300.75
431.10	2408.41
431.28	2499.69
431.47	2363.94
431.66	2513.74
431.85	2373.30
432.03	2469.27
432.22	2509.05
432.41	2445.86
432.60	2572.25
432.79	2396.71
432.97	2518.42
433.16	2532.46
433.35	2551.18
433.54	2455.22
433.72	2452.88
433.91	2569.91
434.10	2523.10
434.28	2555.86
434.47	2640.12
434.66	2590.97
434.85	2626.08
435.03	2569.91
435.22	2677.57
435.41	2813.32
435.59	2607.36
435.78	2693.96
435.97	2752.47
436.16	2719.70
436.34	2670.55
436.53	2605.02
436.72	2743.11
436.90	2724.38
437.09	2815.66
437.28	2654.17
437.46	2843.75
437.65	2675.23
437.84	2738.43
438.02	2846.09
438.21	2738.43
438.40	2773.53
438.58	2906.95
438.77	2897.58
438.96	2839.07
439.14	2808.64
439.33	3012.27
439.52	2967.80
439.70	3112.91
439.89	3084.83
440.08	3080.14
440.26	3108.23
440.45	3054.40
440.63	3035.67
440.82	3082.49
441.01	3215.90
441.19	3052.06
441.38	3222.92
441.57	3272.07
441.75	3222.92
441.94	3265.05
442.12	3295.47
442.31	3274.41
442.50	3389.10
442.68	3386.76
442.87	3309.52
443.05	3323.56
443.24	3426.54
443.43	3478.04
443.61	3428.88
443.80	3515.48
443.98	3480.38
444.17	3218.24
444.35	3321.22
444.54	3482.72
444.73	3431.23
444.91	3478.04
445.10	3473.36
445.28	3405.48
445.47	3428.88
445.65	3403.14
445.84	3517.83
446.02	3552.93
446.21	3473.36
446.39	3494.42
446.58	3517.83
446.77	3536.55
446.95	3361.01
447.14	3604.42
447.32	3508.46
447.51	3517.83
447.69	3445.27
447.88	3599.74
448.06	3501.44
448.25	3543.57
448.43	3613.79
448.62	3693.37
448.80	3583.36
448.99	3627.83
449.17	3700.39
449.36	3609.11
449.54	3777.62
449.73	3625.49
449.91	3824.44
450.10	3632.51
450.28	3770.60
450.46	3808.05
450.65	3815.07
450.83	3768.26
451.02	3714.43
451.20	3988.27
451.39	3784.65
451.57	3772.94
451.76	3805.71
451.94	3894.65
452.13	4056.15
452.31	3789.33
452.49	3878.27
452.68	4021.04
452.86	3864.22
453.05	3913.38
453.23	3955.51
453.42	3866.56
453.60	3932.10
453.78	3985.93
453.97	3922.74
454.15	3983.59
454.34	3981.25
454.52	4121.68
454.70	3988.27
454.89	4140.41
455.07	4222.33
455.26	4215.30
455.44	4184.88
455.62	4196.58
455.81	4095.94
455.99	4243.39
456.17	4023.38
456.36	4145.09
456.54	4311.27
456.73	4229.35
456.91	4479.79
457.09	4418.93
457.28	4559.36
457.46	4461.06
457.64	4353.40
457.83	4519.57
458.01	4332.33
458.19	4348.72
458.38	4435.32
458.56	4454.04
458.74	4393.19
458.93	4447.02
459.11	4538.30
459.29	4395.53
459.48	4575.75
459.66	4491.49
459.84	4636.60
460.03	4589.79
460.21	4713.84
460.39	4594.47
460.57	4578.09
460.76	4737.24
460.94	4507.87
461.12	4601.49
461.31	4732.56
461.49	4652.98
461.67	4704.48
461.85	4730.22
462.04	4788.74
462.22	4924.49
462.40	4884.70
462.59	4781.71
462.77	4800.44
462.95	4795.76
463.13	4873.00
463.32	4957.25
463.50	4908.10
463.68	5041.51
463.86	4901.08
464.05	4812.14
464.23	4947.89
464.41	4961.94
464.59	4950.23
464.78	5057.90
464.96	4915.12
465.14	4912.78
465.32	5104.71
465.50	5191.31
465.69	5104.71
465.87	5004.07
466.05	5006.41
466.23	5004.07
466.41	5034.49
466.60	5380.89
466.78	5093.01
466.96	5055.56
467.14	5029.81
467.32	5100.03
467.51	5142.16
467.69	5109.39
467.87	5153.86
468.05	5214.71
468.23	5139.82
468.41	5245.14
468.60	5298.97
468.78	5310.68
468.96	5322.38
469.14	5336.42
469.32	5343.44
469.50	5352.81
469.69	5528.35
469.87	5458.13
470.05	5624.31
470.23	5430.04
470.41	5376.21
470.59	5591.54
470.77	5577.50
470.95	5523.66
471.14	5547.07
471.32	5591.54
471.50	5528.35
471.68	5750.70
471.86	5692.18
472.04	5809.21
472.22	5781.12
472.40	5678.14
472.58	5792.83
472.77	5799.85
472.95	5797.51
473.13	5987.09
473.31	5895.81
473.49	6005.81
473.67	6045.60
473.85	5729.63
474.03	5928.58
474.21	6003.47
474.39	6080.71
474.57	6174.33
474.75	6235.19
474.93	6441.15
475.12	6204.76
475.30	6338.17
475.48	6286.68
475.66	6347.53
475.84	6438.81
476.02	6401.37
476.20	6471.58
476.38	6576.91
476.56	6665.85
476.74	6628.40
476.92	6548.82
477.10	6532.44
477.28	6827.34
477.46	6726.70
477.64	6719.68
477.82	6923.30
478.00	7049.69
478.18	6984.16
478.36	6977.14
478.54	7061.40
478.72	7129.27
478.90	7258.00
479.08	7155.02
479.26	7290.77
479.44	7276.73
479.62	7417.16
479.80	7424.18
479.98	7630.15
480.16	7590.36
480.34	7646.53
480.52	7665.25
480.70	7803.35
480.88	7597.38
481.06	8018.68
481.24	7922.71
481.41	7929.74
481.59	7896.97
481.77	8159.11
481.95	8023.36
482.13	8170.81
482.31	8243.37
482.49	8439.97
482.67	8442.31
482.85	8421.25
483.03	8645.94
483.21	8730.20
483.39	8814.46
483.57	8725.52
483.74	8751.26
483.92	8734.88
484.10	8814.46
484.28	9104.68
484.46	9167.88
484.64	9174.90
484.82	9008.72
485.00	9259.16
485.18	9376.19
485.35	9231.07
485.53	9537.68
485.71	9406.61
485.89	9895.78
486.07	9682.80
486.25	9612.58
486.43	9631.30
486.61	10083.03
486.78	10099.41
486.96	10094.73
487.14	10249.21
487.32	10335.81
487.50	10200.05
487.68	10265.59
487.85	10391.98
488.03	10527.73
488.21	10768.80
488.39	10693.91
488.57	10712.63
488.75	10771.15
488.92	10918.60
489.10	11157.33
489.28	10951.37
489.46	11316.49
489.64	11154.99
489.81	11335.21
489.99	11564.59
490.17	11520.12
490.35	11543.52
490.53	11623.10
490.70	11714.38
490.88	11707.36
491.06	12046.74
491.24	11815.02
491.41	11899.28
491.59	12182.49
491.77	11964.82
491.95	12414.20
492.13	12287.81
492.30	12554.63
492.48	12334.62
492.66	12365.05
492.84	12788.69
493.01	12720.81
493.19	12676.34
493.37	12929.12
493.54	13001.68
493.72	13048.49
493.90	12931.46
494.08	13125.72
494.25	12971.25
494.43	13275.52
494.61	13455.74
494.79	13476.80
494.96	13336.37
495.14	13579.79
495.32	13881.72
495.49	13731.92
495.67	13530.64
495.85	14150.88
496.02	14094.71
496.20	13994.06
496.38	14136.84
496.55	14401.32
496.73	14368.55
496.91	14157.90
497.09	14644.73
497.26	14588.56
497.44	14546.43
497.62	14497.28
497.79	14789.85
497.97	14782.82
498.14	14899.85
498.32	15222.84
498.50	15063.69
498.67	15105.82
498.85	15136.24
499.03	15407.75
499.20	15262.63
499.38	15473.28
499.56	15517.75
499.73	15389.02
499.91	15517.75
500.08	15632.44
500.26	15431.15
500.44	15557.54
500.61	15676.91
500.79	15880.53
500.97	15901.60
501.14	16023.31
501.32	16116.93
501.49	15901.60
501.67	16191.83
501.84	16311.19
502.02	16343.96
502.20	16334.60
502.37	16430.56
502.55	16367.37
502.72	16458.65
502.90	16259.70
503.07	16458.65
503.25	16449.28
503.43	16514.82
503.60	16769.94
503.78	16901.01
503.95	16751.21
504.13	16554.61
504.30	16833.13
504.48	16915.05
504.65	16886.97
504.83	17060.16
505.01	17392.52
505.18	17097.61
505.36	17413.59
505.53	17085.91
505.71	17191.23
505.88	17378.48
506.06	17261.45
506.23	17535.29
506.41	17488.48
506.58	17537.63
506.76	17392.52
506.93	17666.36
507.11	17523.59
507.28	17610.19
507.46	17579.76
507.63	17987.02
507.81	17846.58
507.98	18050.21
508.16	18008.08
508.33	18185.96
508.50	18127.45
508.68	18265.54
508.85	18441.08
509.03	18417.68
509.20	18534.70
509.38	18534.70
509.55	18682.16
509.73	18597.90
509.90	18539.38
510.08	18384.91
510.25	18738.33
510.42	18579.17
510.60	18771.10
510.77	19091.75
510.95	18948.98
511.12	18735.99
511.30	19023.87
511.47	18897.49
511.64	19295.38
511.82	19040.26
511.99	19414.74
512.17	19264.95
512.34	19424.11
512.51	19459.21
512.69	19655.82
512.86	19733.06
513.04	19548.15
513.21	19709.65
513.38	19763.48
513.56	19777.53
513.73	19456.87
513.90	20030.30
514.08	19637.09
514.25	19971.79
514.43	19854.76
514.60	20198.82
514.77	20187.12
514.95	20182.44
515.12	20006.90
515.29	20252.66
515.47	20259.68
515.64	20238.61
515.81	20180.10
515.99	20418.83
516.16	20601.40
516.33	20662.25
516.51	20641.18
516.68	20505.43
516.85	20318.19
517.03	20479.69
517.20	20695.02
517.37	20884.60
517.54	20819.07
517.72	20940.77
517.89	20966.52
518.06	20835.45
518.24	20760.55
518.41	20959.50
518.58	21195.89
518.75	21207.59
518.93	21287.17
519.10	21095.25
519.27	21125.68
519.45	21317.60
519.62	21076.52
519.79	21436.97
519.96	21362.07
520.14	21436.97
520.31	21785.71
520.48	21661.66
520.65	21575.06
520.83	21816.13
521.00	21788.05
521.17	21624.21
521.34	21869.97
521.52	21851.24
521.69	21940.18
521.86	21968.27
522.03	22160.19
522.20	22328.71
522.38	22122.74
522.55	22155.51
522.72	22031.46
522.89	22548.72
523.07	22721.92
523.24	22370.84
523.41	22338.07
523.58	22328.71
523.75	22511.27
523.92	22347.44
524.10	22370.84
524.27	22632.98
524.44	22614.26
524.61	23002.78
524.78	23037.89
524.96	22668.09
525.13	23152.58
525.30	23014.49
525.47	22843.63
525.64	23047.26
525.81	23136.20
525.98	22764.05
526.16	23246.20
526.33	23260.24
526.50	23330.46
526.67	22845.97
526.84	23365.57
527.01	23370.25
527.18	23049.60
527.36	23466.21
527.53	23468.55
527.70	23697.92
527.87	23683.88
528.04	23613.66
528.21	23517.70
528.38	23594.94
528.55	23704.95
528.72	23931.98
528.89	23803.25
529.07	23733.03
529.24	23625.37
529.41	23960.06
529.58	23859.42
529.75	23819.63
529.92	23709.63
530.09	23939.00
530.26	23749.42
530.43	24184.76
530.60	24243.27
530.77	23887.51
530.94	24025.60
531.11	23910.91
531.28	23974.11
531.46	24243.27
531.63	24037.30
531.80	24467.96
531.97	24540.52
532.14	24589.67
532.31	24292.42
532.48	24671.59
532.65	24460.94
532.82	24205.82
532.99	24496.05
533.16	24395.40
533.33	24744.14
533.50	24929.05
533.67	24641.16
533.84	24781.59
534.01	24746.48
534.18	24837.76
534.35	24872.87
534.52	24584.99
534.69	24954.79
534.86	25123.31
535.03	25010.96
535.20	25223.95
535.37	25029.69
535.54	25160.76
535.71	24985.22
535.88	25039.05
536.05	25348.00
536.22	25247.36
536.38	25289.49
536.55	25671.00
536.72	25296.51
536.89	25020.33
537.06	25668.66
537.23	25261.40
537.40	25223.95
537.57	25509.50
537.74	25736.53
537.91	25942.50
538.08	25415.88
538.25	25649.93
538.42	25668.66
538.59	25699.08
538.75	25575.03
538.92	25685.04
539.09	25455.67
539.26	25675.68
539.43	25511.84
539.60	26099.31
539.77	25905.05
539.94	25671.00
540.11	25940.16
540.28	26012.71
540.44	26122.72
540.61	26038.46
540.78	25851.22
540.95	25907.39
541.12	26188.25
541.29	26501.89
541.46	26274.85
541.62	25862.92
541.79	26300.60
541.96	25898.03
542.13	26300.60
542.30	26157.83
542.47	26443.37
542.63	26485.50
542.80	26328.69
542.97	26696.15
543.14	26794.45
543.31	26698.49
543.48	26525.29
543.64	27138.51
543.81	26799.13
543.98	26771.05
544.15	26904.46
544.32	27161.92
544.48	26707.85
544.65	26548.70
544.82	27178.30
544.99	26705.51
545.16	26785.09
545.32	26829.56
545.49	27112.77
545.66	27117.45
545.83	27571.51
546.00	27442.78
546.16	27225.11
546.33	27124.47
546.50	26789.77
546.67	27405.33
546.83	26668.06
547.00	27414.69
547.17	27517.68
547.34	27108.08
547.50	27524.70
547.67	27447.46
547.84	27496.61
548.00	27590.24
548.17	27276.60
548.34	27260.22
548.51	27955.36
548.67	27700.24
548.84	27800.88
549.01	27583.21
549.18	27484.91
549.34	27644.07
549.51	27674.49
549.68	27922.59
549.84	27433.42
550.01	27634.71
550.18	27587.89
550.34	27988.13
550.51	28013.87
550.68	28212.82
550.84	27665.13
551.01	28198.77
551.18	27564.49
551.34	27953.02
551.51	27594.92
551.68	28009.19
551.84	28346.23
552.01	27955.36
552.18	28170.69
552.34	28084.09
552.51	28545.17
552.68	27798.54
552.84	27988.13
553.01	28526.45
553.18	28308.78
553.34	28334.53
553.51	28264.31
553.67	28191.75
553.84	28936.04
554.01	28617.73
554.17	28353.25
554.34	28294.74
554.51	28999.24
554.67	28353.25
554.84	28409.42
555.00	28613.05
555.17	28673.90
555.33	28535.81
555.50	28465.60
555.67	28610.71
555.83	28325.16
556.00	28786.25
556.16	28741.78
556.33	28971.15
556.50	28889.23
556.66	28601.35
556.83	28606.03
556.99	28741.78
557.16	28627.09
557.32	28814.34
557.49	29001.58
557.65	28753.48
557.82	28980.51
557.98	28849.44
558.15	28599.01
558.32	28734.76
558.48	28833.06
558.65	29015.62
558.81	29158.39
558.98	29010.94
559.14	28678.58
559.31	29212.23
559.47	29357.34
559.64	29071.79
559.80	29156.05
559.97	29481.39
560.13	28994.56
560.30	29261.38
560.46	29125.63
560.63	29043.71
560.79	29528.20
560.96	29699.06
561.12	28936.04
561.29	29055.41
561.45	29446.28
561.61	29205.20
561.78	29598.41
561.94	29713.10
562.11	29429.90
562.27	29149.03
562.44	29404.15
562.60	29003.92
562.77	29277.76
562.93	29097.54
563.10	29486.07
563.26	29530.54
563.42	29539.90
563.59	29806.72
563.75	29544.58
563.92	29553.94
564.08	29457.98
564.24	29298.83
564.41	29347.98
564.57	29802.04
564.74	29221.59
564.90	29275.42
565.07	29687.36
565.23	29773.95
565.39	29401.81
565.56	29631.18
565.72	29289.46
565.88	29881.62
566.05	29385.43
566.21	29376.06
566.38	29598.41
566.54	29895.66
566.70	29996.31
566.87	30043.12
567.03	30019.71
567.19	30206.95
567.36	29788.00
567.52	29593.73
567.68	29930.77
567.85	29947.15
568.01	30033.75
568.17	29687.36
568.34	29965.88
568.50	29579.69
568.66	30015.03
568.83	30188.23
568.99	29890.98
569.15	30120.35
569.32	29542.24
569.48	30024.39
569.64	30038.44
569.81	30099.29
569.97	29893.32
570.13	29947.15
570.30	30242.06
570.46	30441.01
570.62	30096.95
570.78	29900.34
570.95	29626.50
571.11	29490.75
571.27	29617.14
571.43	29923.75
571.60	29813.74
571.76	29989.28
571.92	30078.22
572.09	30192.91
572.25	30064.18
572.41	29762.25
572.57	29954.18
572.74	30279.51
572.90	30031.41
573.06	30197.59
573.22	30087.59
573.38	29663.95
573.55	29886.30
573.71	30279.51
573.87	30225.68
574.03	29947.15
574.20	30031.41
574.36	29837.15
574.52	30305.26
574.68	30312.28
574.84	30223.34
575.01	30000.99
575.17	30225.68
575.33	30000.99
575.49	30160.14
575.65	30221.00
575.82	30485.48
575.98	30340.36
576.14	30120.35
576.30	30178.87
576.46	30096.95
576.62	29958.86
576.79	30223.34
576.95	30328.66
577.11	30244.40
577.27	30422.28
577.43	30319.30
577.59	30029.07
577.75	30096.95
577.92	30286.53
578.08	30366.11
578.24	30110.99
578.40	30017.37
578.56	30263.13
578.72	30471.43
578.88	30654.00
579.04	30419.94
579.21	30305.26
579.37	30141.42
579.53	30443.35
579.69	30370.79
579.85	30412.92
580.01	30232.70
580.17	30249.08
580.33	30352.07
580.49	30504.20
580.65	30363.77
580.82	30382.49
580.98	30263.13
581.14	30319.30
581.30	30448.03
581.46	29961.20
581.62	30174.19
581.78	30288.87
581.94	30637.61
582.10	30398.88
582.26	30328.66
582.42	30534.63
582.58	30286.53
582.74	30403.56
582.90	30649.32
583.06	30387.18
583.22	30637.61
583.38	30429.30
583.54	30206.95
583.70	30309.94
583.86	30501.86
584.02	30665.70
584.18	30639.95
584.34	30897.41
584.50	30684.42
584.66	30345.05
584.82	30543.99
584.98	30335.68
585.14	30239.72
585.30	30260.79
585.46	30017.37
585.62	29947.15
585.78	30391.86
585.94	30127.38
586.10	30462.07
586.26	30345.05
586.42	30628.25
586.58	30555.69
586.74	30431.65
586.90	30265.47
587.06	30129.72
587.22	30841.24
587.38	30331.00
587.54	30813.15
587.70	30576.76
587.86	30679.74
588.02	30810.81
588.18	30876.35
588.34	30771.02
588.49	30742.94
588.65	30518.25
588.81	30520.59
588.97	30604.84
589.13	30984.01
589.29	30541.65
589.45	30609.53
589.61	30859.96
589.77	31150.19
589.93	31028.48
590.08	30466.75
590.24	30810.81
590.40	30661.02
590.56	31094.02
590.72	30382.49
590.88	30794.43
591.04	30609.53
591.20	31084.65
591.35	31042.53
591.51	31407.65
591.67	30707.83
591.83	31101.04
591.99	30745.28
592.15	30869.33
592.31	30955.93
592.46	30843.58
592.62	30721.87
592.78	30597.82
592.94	30768.68
593.10	30281.85
593.26	31110.40
593.41	31122.10
593.57	30728.89
593.73	31089.34
593.89	30897.41
594.05	30792.09
594.20	30768.68
594.36	30995.71
594.52	30228.02
594.68	30951.24
594.84	30845.92
594.99	30874.01
595.15	31302.32
595.31	31185.30
595.47	31262.54
595.62	31356.16
595.78	31255.51
595.94	30918.48
596.10	30969.97
596.25	30871.67
596.41	30787.41
596.57	30583.78
596.73	31098.70
596.88	31194.66
597.04	31452.12
597.20	31129.12
597.36	30981.67
597.51	31449.78
597.67	31307.01
597.83	30976.99
597.99	31014.44
598.14	30639.95
598.30	30991.03
598.46	31274.24
598.61	31152.53
598.77	31243.81
598.93	31049.55
599.09	30955.93
599.24	31428.71
599.40	31534.04
599.56	31370.20
599.71	31206.36
599.87	31056.57
600.03	30705.49
600.18	31519.99
600.34	31075.29
600.50	30822.51
600.65	30981.67
600.81	31201.68
600.97	31150.19
601.12	31147.85
601.28	31257.85
601.44	31262.54
601.59	31201.68
601.75	31180.62
601.91	31260.20
602.06	30888.05
602.22	31414.67
602.37	31143.17
602.53	31143.17
602.69	31087.00
602.84	31084.65
603.00	31166.57
603.16	31077.63
603.31	31098.70
603.47	31075.29
603.62	30979.33
603.78	30567.40
603.94	30899.75
604.09	31098.70
604.25	31206.36
604.40	31302.32
604.56	30778.04
604.71	31274.24
604.87	31140.83
605.03	31187.64
605.18	30913.80
605.34	31070.61
605.49	30756.98
605.65	30902.09
605.80	30698.47
605.96	30890.39
606.12	31051.89
606.27	31051.89
606.43	31171.25
606.58	31328.07
606.74	30962.95
606.89	31220.41
607.05	30986.35
607.20	30855.28
607.36	30932.52
607.51	31601.91
607.67	30787.41
607.82	31000.40
607.98	30686.76
608.13	31005.08
608.29	30866.98
608.44	31033.16
608.60	30836.56
608.75	30745.28
608.91	30771.02
609.06	30822.51
609.22	30923.16
609.37	30686.76
609.53	30752.30
609.68	30665.70
609.84	30969.97
609.99	30726.55
610.15	30389.52
610.30	31213.38
610.46	30806.13
610.61	30707.83
610.76	30553.35
610.92	31065.93
611.07	30546.33
611.23	30679.74
611.38	30478.46
611.54	30646.97
611.69	29858.21
611.84	30445.69
612.00	30256.11
612.15	30267.81
612.31	30684.42
612.46	30022.05
612.62	31002.74
612.77	30686.76
612.92	30735.92
613.08	30579.10
613.23	30972.31
613.39	30410.58
613.54	30316.96
613.69	30560.37
613.85	30684.42
614.00	30321.64
614.15	30749.96
614.31	30272.49
614.46	30902.09
614.62	30476.12
614.77	30497.18
614.92	30579.10
615.08	30609.53
615.23	30382.49
615.38	30583.78
615.54	30101.63
615.69	30600.16
615.84	30326.32
616.00	30476.12
616.15	30689.10
616.30	30543.99
616.46	30328.66
616.61	30382.49
616.76	30794.43
616.92	30253.76
617.07	30134.40
617.22	30052.48
617.37	30256.11
617.53	30089.93
617.68	29919.07
617.83	30216.32
617.99	30281.85
618.14	30394.20
618.29	30181.21
618.45	30478.46
618.60	30085.25
618.75	29958.86
618.90	30157.80
619.06	30246.74
619.21	30160.14
619.36	30075.88
619.51	30059.50
619.67	29848.85
619.82	29869.92
619.97	29776.30
620.12	29724.80
620.28	29846.51
620.43	29935.45
620.58	29797.36
620.73	30314.62
620.89	29862.90
621.04	30150.78
621.19	29780.98
621.34	30249.08
621.49	29380.74
621.65	29338.62
621.80	29310.53
621.95	29364.36
622.10	29621.82
622.25	29846.51
622.41	29694.38
622.56	29933.11
622.71	29776.30
622.86	29797.36
623.01	29715.44
623.16	29638.20
623.32	29418.19
623.47	29685.01
623.62	29649.91
623.77	29549.26
623.92	29376.06
624.07	29399.47
624.23	29598.41
624.38	29352.66
624.53	29446.28
624.68	29289.46
624.83	29483.73
624.98	29537.56
625.13	29425.22
625.29	29752.89
625.44	29415.85
625.59	29413.51
625.74	29230.95
625.89	29158.39
626.04	29254.36
626.19	28982.85
626.34	29446.28
626.49	29347.98
626.65	29151.37
626.80	29385.43
626.95	29085.84
627.10	29057.75
627.25	29294.14
627.40	29034.35
627.55	28903.28
627.70	28933.70
627.85	28727.74
628.00	28786.25
628.15	29315.21
628.30	28449.21
628.45	29015.62
628.60	29060.09
628.76	28751.14
628.91	29181.80
629.06	28772.21
629.21	28582.62
629.36	28837.74
629.51	28811.99
629.66	28767.52
629.81	28797.95
629.96	28828.38
630.11	28947.75
630.26	28840.08
630.41	28444.53
630.56	28582.62
630.71	29022.64
630.86	28748.80
631.01	28828.38
631.16	28863.49
631.31	28870.51
631.46	28474.96
631.61	28776.89
631.76	29032.00
631.91	28575.60
632.06	28292.40
632.21	28456.23
632.36	28591.98
632.51	28517.09
632.66	28533.47
632.81	28474.96
632.96	28760.50
633.10	28854.12
633.25	28868.17
633.40	28528.79
633.55	28161.33
633.70	28030.26
633.85	28173.03
634.00	28357.93
634.15	28299.42
634.30	28383.68
634.45	28526.45
634.60	28315.80
634.75	28474.96
634.90	28446.87
635.05	28364.95
635.19	28308.78
635.34	28336.87
635.49	28313.46
635.64	28339.21
635.79	28254.95
635.94	28259.63
636.09	28006.85
636.24	28542.83
636.39	27913.23
636.53	28250.27
636.68	27761.09
636.83	27871.10
636.98	28261.97
637.13	27922.59
637.28	28121.54
637.43	28453.89
637.57	28088.77
637.72	28453.89
637.87	28264.31
638.02	28081.75
638.17	27791.52
638.32	27700.24
638.46	27655.77
638.61	27634.71
638.76	27733.01
638.91	27847.69
639.06	27716.62
639.20	28034.94
639.35	28032.60
639.50	27758.75
639.65	28336.87
639.80	27772.80
639.94	27789.18
640.09	27859.40
640.24	27438.10
640.39	27557.47
640.54	27529.38
640.68	27566.83
640.83	27587.89
640.98	27262.56
641.13	27536.40
641.27	27702.58
641.42	27510.66
641.57	27417.04
641.72	27311.71
641.86	27388.95
642.01	27388.95
642.16	27417.04
642.31	26967.65
642.45	27711.94
642.60	27108.08
642.75	27311.71
642.90	26771.05
643.04	27171.28
643.19	27276.60
643.34	27215.75
643.48	27459.16
643.63	27335.12
643.78	27056.59
643.93	27304.69
644.07	27241.50
644.22	27129.15
644.37	26948.93
644.51	27115.11
644.66	27241.50
644.81	26813.18
644.95	26955.95
645.10	26906.80
645.25	26799.13
645.39	26953.61
645.54	27012.12
645.69	26937.23
645.83	27281.28
645.98	26927.86
646.13	27035.53
646.27	27033.19
646.42	27182.98
646.57	26927.86
646.71	26862.33
646.86	26726.58
647.00	27056.59
647.15	26775.73
647.30	26930.20
647.44	26909.14
647.59	26796.79
647.74	26635.30
647.88	26506.57
648.03	27140.85
648.17	26820.20
648.32	27133.83
648.47	26700.83
648.61	26307.62
648.76	26867.01
648.90	26672.74
649.05	26408.26
649.20	26609.55
649.34	26274.85
649.49	26539.33
649.63	26740.62
649.78	26733.60
649.92	26424.65
650.07	26871.69
650.21	26382.52
650.36	26288.90
650.51	26316.98
650.65	26583.80
650.80	26443.37
650.94	26340.39
651.09	26129.74
651.23	26504.23
651.38	26726.58
651.52	26434.01
651.67	26342.73
651.81	26286.56
651.96	26459.76
652.10	26246.77
652.25	26199.96
652.39	26389.54
652.54	26368.48
652.68	26731.26
652.83	26532.31
652.97	26464.44
653.12	26532.31
653.26	26103.99
653.41	26541.68
653.55	26204.64
653.70	25982.29
653.84	26218.68
653.99	25916.75
654.13	26082.93
654.27	26129.74
654.42	26160.17
654.56	25778.66
654.71	25954.20
654.85	25888.67
655.00	26085.27
655.14	25935.48
655.29	26164.85
655.43	26111.02
655.57	25902.71
655.72	25930.80
655.86	25649.93
656.01	25841.85
656.15	25792.70
656.30	25507.16
656.44	26031.44
656.58	25710.78
656.73	25551.63
656.87	26012.71
657.01	25778.66
657.16	26031.44
657.30	25685.04
657.45	25970.58
657.59	25687.38
657.73	25338.64
657.88	25703.76
658.02	25450.99
658.16	25376.09
658.31	25420.56
658.45	25308.21
658.60	25135.01
658.74	25563.33
658.88	25212.25
659.03	25472.05
659.17	25687.38
659.31	25568.01
659.46	25530.56
659.60	25539.93
659.74	25530.56
659.89	25331.62
660.03	25296.51
660.17	25287.15
660.32	25338.64
660.46	25144.38
660.60	24856.49
660.74	25046.07
660.89	25230.98
661.03	24872.87
661.17	24833.08
661.32	24936.07
661.46	25144.38
661.60	24758.19
661.74	24732.44
661.89	25310.55
662.03	25165.44
662.17	24814.36
662.31	24360.30
662.46	24634.14
662.60	24657.54
662.74	24746.48
662.88	24451.58
663.03	24491.37
663.17	24662.22
663.31	24500.73
663.45	24280.72
663.60	24556.90
663.74	24166.03
663.88	24261.99
664.02	24498.39
664.17	24779.25
664.31	24229.23
664.45	24421.15
664.59	24376.68
664.73	24049.00
664.88	24315.83
665.02	24002.19
665.16	23978.79
665.30	23957.72
665.44	23903.89
665.59	23440.47
665.73	23541.11
665.87	23765.80
666.01	23882.83
666.15	23882.83
666.29	23903.89
666.44	23824.31
666.58	23864.10
666.72	23761.12
666.86	23913.25
667.00	24013.90
667.14	23718.99
667.28	23707.29
667.43	23360.89
667.57	23424.08
667.71	23524.72
667.85	23433.44
667.99	23325.78
668.13	23248.54
668.27	23187.69
668.41	23580.90
668.56	23208.75
668.70	23328.12
668.84	23288.33
668.98	23433.44
669.12	23145.56
669.26	23264.92
669.40	23073.00
669.54	23089.38
669.68	23332.80
669.82	23021.51
669.96	22925.55
670.10	22700.86
670.25	22590.85
670.39	22630.64
670.53	23129.17
670.67	22635.32
670.81	22721.92
670.95	22710.22
671.09	22787.46
671.23	22773.41
671.37	22647.02
671.51	22387.22
671.65	22661.07
671.79	22478.50
671.93	22333.39
672.07	22579.15
672.21	22466.80
672.35	21907.41
672.49	22300.62
672.63	22387.22
672.77	22012.74
672.91	22321.69
673.05	21965.93
673.19	22188.28
673.33	22045.51
673.47	22073.59
673.61	22361.48
673.75	22099.34
673.89	22167.21
674.03	21743.58
674.17	22005.72
674.31	21654.64
674.45	21930.82
674.59	21490.80
674.73	22080.61
674.87	21710.81
675.01	21507.18
675.15	21579.74
675.29	21436.97
675.43	21441.65
675.56	21570.38
675.70	21289.51
675.84	21212.28
675.98	20606.08
676.12	21474.42
676.26	21434.63
676.40	21146.74
676.54	21088.23
676.68	20915.03
676.82	20755.87
676.96	20692.68
677.10	20741.83
677.23	20617.78
677.37	20374.36
677.51	20760.55
677.65	20559.27
677.79	20456.28
677.93	20170.74
678.07	20255.00
678.21	20383.73
678.34	20177.76
678.48	20250.32
678.62	20196.48
678.76	19868.81
678.90	20278.40
679.04	19908.60
679.18	19908.60
679.31	19728.38
679.45	19613.69
679.59	19515.39
679.73	19655.82
679.87	19733.06
680.00	19552.84
680.14	19580.92
680.28	19683.91
680.42	19407.72
680.56	19517.73
680.70	19374.95
680.83	19501.34
680.97	19438.15
681.11	19480.28
681.25	19353.89
681.39	19096.43
681.52	19021.53
681.66	18850.67
681.80	18848.33
681.94	18656.41
682.07	18951.32
682.21	18785.14
682.35	18508.96
682.49	18738.33
682.62	18380.23
682.76	18658.75
682.90	18761.73
683.04	18530.02
683.17	18515.98
683.31	18115.75
683.45	18284.26
683.59	18314.69
683.72	18008.08
683.86	18197.67
684.00	18375.55
684.13	17926.16
684.27	18061.91
684.41	18108.72
684.55	17727.22
684.68	17720.20
684.82	17429.97
684.96	17427.63
685.09	17661.68
685.23	17172.51
685.37	17240.39
685.50	17238.05
685.64	17582.10
685.78	17308.26
685.91	17673.39
686.05	17528.27
686.19	17249.75
686.32	17509.55
686.46	16975.91
686.60	17011.01
686.73	16793.34
686.87	16795.68
687.01	16730.15
687.14	16554.61
687.28	16713.77
687.42	16500.78
687.55	16496.10
687.69	16283.11
687.82	16372.05
687.96	16643.55
688.10	16435.24
688.23	16187.14
688.37	16374.39
688.50	16259.70
688.64	16348.64
688.78	16212.89
688.91	16350.98
689.05	16027.99
689.18	16046.71
689.32	15672.23
689.46	15665.21
689.59	15765.85
689.73	15983.52
689.86	15686.27
690.00	15779.89
690.13	15517.75
690.27	15377.32
690.41	15854.79
690.54	15290.72
690.68	15545.84
690.81	15431.15
690.95	15487.32
691.08	15353.91
691.22	15183.06
691.35	15527.11
691.49	15103.48
691.62	15213.48
691.76	15033.26
691.89	14960.70
692.03	14871.76
692.16	14494.94
692.30	14780.48
692.43	14326.42
692.57	14420.04
692.70	14548.77
692.84	14448.13
692.97	14537.07
693.11	14551.11
693.24	14235.14
693.38	14230.46
693.51	14328.76
693.65	14190.67
693.78	14324.08
693.92	14108.75
694.05	14085.34
694.19	13947.25
694.32	13879.38
694.45	13806.82
694.59	13441.70
694.72	13680.43
694.86	13469.78
694.99	13472.12
695.13	13331.69
695.26	13479.15
695.39	13331.69
695.53	13586.81
695.66	13287.22
695.80	13170.19
695.93	13268.50
696.07	13418.29
696.20	13319.99
696.33	13390.20
696.47	13331.69
696.60	13200.62
696.73	12786.35
696.87	13158.49
697.00	13081.25
697.14	12758.26
697.27	12407.18
697.40	12416.54
697.54	12711.45
697.67	12730.17
697.80	12290.15
697.94	12407.18
698.07	12133.34
698.21	12351.01
698.34	12519.53
698.47	12500.80
698.61	12369.73
698.74	12351.01
698.87	12320.58
699.01	12109.93
699.14	12306.54
699.27	12119.29
699.40	12020.99
699.54	11864.18
699.67	11932.05
699.80	11639.48
699.94	11686.29
700.07	11690.98
700.20	11475.65
700.34	11377.34
700.47	11438.20
700.60	11597.35
700.73	11808.00
700.87	11665.23
701.00	11529.48
701.13	11398.41
701.26	11417.13
701.40	11538.84
701.53	11562.25
701.66	11332.87
701.79	11272.02
701.93	11197.12
702.06	11026.26
702.19	10888.17
702.32	10958.39
702.46	10721.99
702.59	10815.62
702.72	10717.31
702.85	10579.22
702.99	10768.80
703.12	10707.95
703.25	10567.52
703.38	10691.57
703.51	10562.84
703.65	10459.85
703.78	10485.60
703.91	10497.30
704.04	10511.35
704.17	10389.64
704.31	10396.66
704.44	10221.12
704.57	10207.08
704.70	9811.53
704.83	10068.98
704.96	9989.41
705.10	9970.68
705.23	9834.93
>>>>>End Processed Spectral Data<<<<<
