SpectraSuite Data File
++++++++++++++++++++++++++++++++++++
Date: Fri Oct 18 13:58:05 GMT-05:00 2013
User: bianchi
Dark Spectrum Present: No
Reference Spectrum Present: No
Number of Sampled Component Spectra: 1
Spectrometers: USB2+H05261
Integration Time (usec): 50000 (USB2+H05261)
Spectra Averaged: 1 (USB2+H05261)
Boxcar Smoothing: 0 (USB2+H05261)
Correct for Electrical Dark: No (USB2+H05261)
Strobe/Lamp Enabled: No (USB2+H05261)
Correct for Detector Non-linearity: No (USB2+H05261)
Correct for Stray Light: No (USB2+H05261)
Number of Pixels in Processed Spectrum: 2048
>>>>>Begin Processed Spectral Data<<<<<
365.73	0.00
365.92	0.00
366.12	0.00
366.32	0.00
366.52	0.00
366.72	0.00
366.91	0.00
367.11	0.00
367.31	0.00
367.51	0.00
367.70	0.00
367.90	0.00
368.10	0.00
368.30	0.00
368.49	0.00
368.69	0.00
368.89	0.00
369.09	0.00
369.28	0.00
369.48	0.00
369.68	0.00
369.87	0.00
370.07	0.00
370.27	0.00
370.47	0.00
370.66	100.64
370.86	107.66
371.06	105.32
371.25	166.18
371.45	100.64
371.65	126.39
371.84	121.71
372.04	161.50
372.24	114.69
372.44	142.77
372.63	248.10
372.83	121.71
373.03	163.84
373.22	191.92
373.42	191.92
373.62	243.42
373.81	182.56
374.01	238.73
374.21	299.59
374.40	222.35
374.60	304.27
374.79	212.99
374.99	222.35
375.19	229.37
375.38	266.82
375.58	241.08
375.78	280.86
375.97	262.14
376.17	264.48
376.37	278.52
376.56	278.52
376.76	196.60
376.95	266.82
377.15	238.73
377.35	330.02
377.54	290.23
377.74	308.95
377.93	276.18
378.13	308.95
378.33	278.52
378.52	264.48
378.72	227.03
378.91	301.93
379.11	266.82
379.31	259.80
379.50	313.63
379.70	327.68
379.89	245.76
380.09	327.68
380.28	320.65
380.48	313.63
380.68	362.78
380.87	290.23
381.07	266.82
381.26	358.10
381.46	341.72
381.65	369.80
381.85	290.23
382.04	306.61
382.24	322.99
382.43	367.46
382.63	315.97
382.83	379.17
383.02	400.23
383.22	355.76
383.41	322.99
383.61	416.62
383.80	383.85
384.00	369.80
384.19	351.08
384.39	348.74
384.58	365.12
384.78	421.30
384.97	355.76
385.17	407.25
385.36	397.89
385.56	346.40
385.75	351.08
385.95	353.42
386.14	430.66
386.34	449.38
386.53	423.64
386.72	388.53
386.92	451.72
387.11	407.25
387.31	442.36
387.50	418.96
387.70	414.27
387.89	390.87
388.09	512.58
388.28	496.19
388.48	500.87
388.67	468.11
388.86	449.38
389.06	519.60
389.25	486.83
389.45	470.45
389.64	444.70
389.84	493.85
390.03	526.62
390.22	390.87
390.42	486.83
390.61	505.56
390.81	496.19
391.00	477.47
391.19	575.77
391.39	472.79
391.58	545.34
391.78	535.98
391.97	557.05
392.16	514.92
392.36	599.18
392.55	629.60
392.75	561.73
392.94	468.11
393.13	620.24
393.33	535.98
393.52	493.85
393.71	592.16
393.91	596.84
394.10	533.64
394.29	531.30
394.49	634.29
394.68	538.32
394.88	608.54
395.07	601.52
395.26	601.52
395.46	575.77
395.65	589.82
395.84	685.78
396.04	664.71
396.23	713.86
396.42	650.67
396.62	650.67
396.81	655.35
397.00	727.91
397.19	709.18
397.39	699.82
397.58	723.23
397.77	610.88
397.97	664.71
398.16	723.23
398.35	748.97
398.55	746.63
398.74	697.48
398.93	805.14
399.12	727.91
399.32	725.57
399.51	854.30
399.70	699.82
399.90	805.14
400.09	784.08
400.28	713.86
400.47	741.95
400.67	835.57
400.86	763.01
401.05	912.81
401.24	854.30
401.44	847.27
401.63	786.42
401.82	781.74
402.01	847.27
402.21	849.61
402.40	840.25
402.59	873.02
402.78	868.34
402.97	851.96
403.17	819.19
403.36	851.96
403.55	929.19
403.74	908.13
403.93	863.66
404.13	971.32
404.32	884.72
404.51	884.72
404.70	917.49
404.89	936.21
405.09	990.05
405.28	1018.13
405.47	1001.75
405.66	1062.60
405.85	1001.75
406.05	1006.43
406.24	1041.54
406.43	990.05
406.62	1055.58
406.81	1069.62
407.00	1055.58
407.20	997.07
407.39	1011.11
407.58	1064.94
407.77	1001.75
407.96	1043.88
408.15	1053.24
408.34	1067.28
408.54	1097.71
408.73	1109.41
408.92	1130.48
409.11	1196.01
409.30	1156.22
409.49	1116.44
409.68	1130.48
409.87	1153.88
410.07	1207.72
410.26	1170.27
410.45	1193.67
410.64	1174.95
410.83	1179.63
411.02	1163.25
411.21	1167.93
411.40	1275.59
411.59	1310.70
411.78	1313.04
411.98	1280.27
412.17	1331.76
412.36	1397.30
412.55	1310.70
412.74	1294.32
412.93	1434.75
413.12	1327.08
413.31	1345.81
413.50	1390.28
413.69	1406.66
413.88	1516.67
414.07	1502.62
414.26	1413.68
414.45	1418.36
414.64	1444.11
414.83	1521.35
415.02	1500.28
415.22	1584.54
415.41	1689.87
415.60	1535.39
415.79	1593.90
415.98	1575.18
416.17	1640.72
416.36	1673.48
416.55	1565.82
416.74	1610.29
416.93	1685.19
417.12	1675.82
417.31	1640.72
417.50	1696.89
417.69	1762.42
417.88	1771.79
418.07	1825.62
418.26	1795.19
418.45	1743.70
418.64	1736.68
418.83	1933.28
419.02	1811.57
419.21	1776.47
419.39	1900.52
419.58	1952.01
419.77	1832.64
419.96	1874.77
420.15	1923.92
420.34	1802.21
420.53	1984.77
420.72	1930.94
420.91	1851.36
421.10	1886.47
421.29	2078.40
421.48	1991.80
421.67	1991.80
421.86	1900.52
422.05	1898.17
422.24	1956.69
422.43	2076.06
422.61	1977.75
422.80	2186.06
422.99	2038.61
423.18	2080.74
423.37	2003.50
423.56	2015.20
423.75	2143.93
423.94	1940.30
424.13	1940.30
424.32	1944.99
424.50	1980.09
424.69	1975.41
424.88	2134.57
425.07	2136.91
425.26	2043.29
425.45	2165.00
425.64	2062.01
425.83	2139.25
426.01	2043.29
426.20	2066.69
426.39	2076.06
426.58	2071.37
426.77	2120.53
426.96	2087.76
427.15	2031.58
427.33	2122.87
427.52	2193.08
427.71	2183.72
427.90	2186.06
428.09	2361.60
428.28	2139.25
428.46	2232.87
428.65	2221.17
428.84	2202.44
429.03	2279.68
429.22	2193.08
429.40	2363.94
429.59	2298.41
429.78	2167.34
429.97	2190.74
430.16	2202.44
430.34	2380.32
430.53	2335.85
430.72	2361.60
430.91	2326.49
431.10	2347.56
431.28	2464.58
431.47	2333.51
431.66	2572.25
431.85	2438.84
432.03	2497.35
432.22	2490.33
432.41	2459.90
432.60	2455.22
432.79	2480.97
432.97	2506.71
433.16	2548.84
433.35	2487.99
433.54	2541.82
433.72	2530.12
433.91	2523.10
434.10	2602.68
434.28	2506.71
434.47	2525.44
434.66	2614.38
434.85	2647.15
435.03	2623.74
435.22	2649.49
435.41	2670.55
435.59	2684.59
435.78	2684.59
435.97	2590.97
436.16	2764.17
436.34	2724.38
436.53	2644.81
436.72	2710.34
436.90	2661.19
437.09	2705.66
437.28	2686.94
437.46	2836.73
437.65	2778.22
437.84	2780.56
438.02	2686.94
438.21	2764.17
438.40	2750.13
438.58	2787.58
438.77	2942.05
438.96	2965.46
439.14	2942.05
439.33	2951.42
439.52	3033.33
439.70	3038.02
439.89	3002.91
440.08	3026.31
440.26	3035.67
440.45	3133.98
440.63	3098.87
440.82	3258.03
441.01	3173.77
441.19	3295.47
441.38	3178.45
441.57	3262.71
441.75	3363.35
441.94	3330.58
442.12	3248.66
442.31	3389.10
442.50	3377.39
442.68	3391.44
442.87	3424.20
443.05	3489.74
443.24	3520.17
443.43	3375.05
443.61	3351.65
443.80	3473.36
443.98	3236.96
444.17	3337.60
444.35	3534.21
444.54	3433.57
444.73	3506.12
444.91	3581.02
445.10	3461.65
445.28	3541.23
445.47	3506.12
445.65	3597.40
445.84	3421.86
446.02	3482.72
446.21	3574.00
446.39	3534.21
446.58	3471.01
446.77	3606.77
446.95	3552.93
447.14	3545.91
447.32	3578.68
447.51	3522.51
447.69	3515.48
447.88	3662.94
448.06	3571.66
448.25	3604.42
448.43	3707.41
448.62	3709.75
448.80	3613.79
448.99	3716.77
449.17	3705.07
449.36	3709.75
449.54	3749.54
449.73	3681.66
449.91	3878.27
450.10	3756.56
450.28	3817.41
450.46	3740.18
450.65	3770.60
450.83	3812.73
451.02	3843.16
451.20	3941.46
451.39	3838.48
451.57	3782.31
451.76	3815.07
451.94	3761.24
452.13	3929.76
452.31	3779.97
452.49	3763.58
452.68	4037.42
452.86	3899.33
453.05	4023.38
453.23	4084.23
453.42	3801.03
453.60	3819.75
453.78	3967.21
453.97	3880.61
454.15	3946.14
454.34	4030.40
454.52	4135.73
454.70	4060.83
454.89	4049.13
455.07	4021.04
455.26	4081.89
455.44	4210.62
455.62	4149.77
455.81	4147.43
455.99	4105.30
456.17	4341.69
456.36	4311.27
456.54	4367.44
456.73	4245.73
456.91	4493.83
457.09	4315.95
457.28	4409.57
457.46	4383.82
457.64	4325.31
457.83	4463.40
458.01	4416.59
458.19	4596.81
458.38	4418.93
458.56	4601.49
458.74	4482.13
458.93	4421.27
459.11	4533.62
459.29	4475.10
459.48	4608.51
459.66	4615.54
459.84	4713.84
460.03	4608.51
460.21	4592.13
460.39	4601.49
460.57	4610.86
460.76	4512.55
460.94	4781.71
461.12	4770.01
461.31	4887.04
461.49	4711.50
461.67	4624.90
461.85	4835.55
462.04	4777.03
462.22	5111.73
462.40	4966.62
462.59	4819.16
462.77	4819.16
462.95	4898.74
463.13	4842.57
463.32	4826.18
463.50	4884.70
463.68	4968.96
463.86	4990.02
464.05	4868.31
464.23	4849.59
464.41	4915.12
464.59	4938.53
464.78	5011.09
464.96	4952.57
465.14	4950.23
465.32	5043.85
465.50	5062.58
465.69	5093.01
465.87	4959.60
466.05	5067.26
466.23	5125.77
466.41	5071.94
466.60	5240.46
466.78	5025.13
466.96	4973.64
467.14	5057.90
467.32	5165.56
467.51	5249.82
467.69	5135.14
467.87	5224.08
468.05	5214.71
468.23	5291.95
468.41	5118.75
468.60	5380.89
468.78	5277.91
468.96	5214.71
469.14	5423.02
469.32	5502.60
469.50	5329.40
469.69	5497.92
469.87	5530.69
470.05	5561.11
470.23	5467.49
470.41	5460.47
470.59	5533.03
470.77	5462.81
470.95	5607.92
471.14	5530.69
471.32	5612.60
471.50	5598.56
471.68	5769.42
471.86	5659.42
472.04	5888.79
472.22	5944.96
472.40	5666.44
472.58	5710.91
472.77	5895.81
472.95	5886.45
473.13	5916.87
473.31	5909.85
473.49	5966.03
473.67	6001.13
473.85	5820.91
474.03	6209.44
474.21	6031.56
474.39	6228.17
474.57	6263.27
474.75	6181.35
474.93	6375.62
475.12	6314.77
475.30	6375.62
475.48	6216.46
475.66	6387.32
475.84	6572.22
476.02	6455.20
476.20	6396.68
476.38	6707.98
476.56	6619.04
476.74	6626.06
476.92	6588.61
477.10	6656.48
477.28	6827.34
477.46	6593.29
477.64	6944.37
477.82	6902.24
478.00	6822.66
478.18	7133.95
478.36	6977.14
478.54	7258.00
478.72	7335.24
478.90	7250.98
479.08	7295.45
479.26	7494.40
479.44	7445.24
479.62	7524.82
479.80	7726.11
479.98	7382.05
480.16	7667.60
480.34	7545.89
480.52	7719.09
480.70	7906.33
480.88	7857.18
481.06	7871.22
481.24	7775.26
481.41	7946.12
481.59	8112.30
481.77	8009.31
481.95	8262.09
482.13	8219.96
482.31	8070.17
482.49	8454.02
482.67	8540.61
482.85	8407.20
483.03	8671.68
483.21	8753.60
483.39	8659.98
483.57	8648.28
483.74	8905.74
483.92	9029.79
484.10	8809.78
484.28	9050.85
484.46	9191.28
484.64	9331.72
484.82	9123.41
485.00	9298.95
485.18	9511.94
485.35	9420.66
485.53	9446.40
485.71	9535.34
485.89	9673.43
486.07	9661.73
486.25	9863.02
486.43	9916.85
486.61	9966.00
486.78	10097.07
486.96	10188.35
487.14	10300.70
487.32	10040.90
487.50	10352.19
487.68	10370.91
487.85	10611.99
488.03	10406.02
488.21	10668.16
488.39	10721.99
488.57	10794.55
488.75	10984.13
488.92	10981.79
489.10	11077.76
489.28	11241.59
489.46	11272.02
489.64	11002.86
489.81	11700.34
489.99	11489.69
490.17	11765.87
490.35	11901.62
490.53	11847.79
490.70	11892.26
490.88	11854.81
491.06	12072.48
491.24	12004.61
491.41	11859.49
491.59	12095.89
491.77	12170.79
491.95	12353.35
492.13	12545.27
492.30	12421.22
492.48	12540.59
492.66	12561.66
492.84	12512.50
493.01	13099.98
493.19	12781.67
493.37	13020.40
493.54	12886.99
493.72	13348.08
493.90	13144.45
494.08	13275.52
494.25	13315.31
494.43	13338.71
494.61	13678.09
494.79	13535.32
494.96	13418.29
495.14	13797.46
495.32	13872.36
495.49	13797.46
495.67	13877.04
495.85	14101.73
496.02	14129.81
496.20	13872.36
496.38	14097.05
496.55	14188.33
496.73	14342.80
496.91	14787.50
497.09	14618.99
497.26	14595.58
497.44	14614.30
497.62	14806.23
497.79	14806.23
497.97	14780.48
498.14	14895.17
498.32	14953.68
498.50	15126.88
498.67	15658.18
498.85	15335.19
499.03	15508.39
499.20	15321.15
499.38	15293.06
499.56	15213.48
499.73	15695.63
499.91	15506.05
500.08	15838.41
500.26	15775.21
500.44	15541.16
500.61	15932.03
500.79	15861.81
500.97	16137.99
501.14	16350.98
501.32	15899.26
501.49	16374.39
501.67	16266.72
501.84	16388.43
502.02	16332.26
502.20	16720.79
502.37	16755.90
502.55	16425.88
502.72	16711.42
502.90	16407.16
503.07	16313.53
503.25	16507.80
503.43	16774.62
503.60	16854.20
503.78	16933.78
503.95	16875.26
504.13	17053.14
504.30	17170.17
504.48	16973.56
504.65	17048.46
504.83	17097.61
505.01	17476.78
505.18	17343.37
505.36	17804.46
505.53	17294.22
505.71	17401.88
505.88	17582.10
506.06	17561.04
506.23	17614.87
506.41	17572.74
506.58	18052.55
506.76	17867.65
506.93	18052.55
507.11	17825.52
507.28	17759.98
507.46	18001.06
507.63	17921.48
507.81	17989.36
507.98	17825.52
508.16	18022.12
508.33	18108.72
508.50	18286.61
508.68	18541.72
508.85	18724.29
509.03	18548.75
509.20	18834.29
509.38	18675.13
509.55	18941.96
509.73	18607.26
509.90	18789.82
510.08	18494.91
510.25	18923.23
510.42	18937.27
510.60	19035.58
510.77	19405.38
510.95	19328.14
511.12	19066.00
511.30	19073.03
511.47	19190.05
511.64	19129.20
511.82	19845.40
511.99	19491.98
512.17	19491.98
512.34	19473.26
512.51	19613.69
512.69	19517.73
512.86	19674.54
513.04	19697.95
513.21	19814.98
513.38	19882.85
513.56	20060.73
513.73	19936.68
513.90	19850.08
514.08	20002.22
514.25	19969.45
514.43	19976.47
514.60	20156.69
514.77	20236.27
514.95	20191.80
515.12	19971.79
515.29	20638.84
515.47	20390.75
515.64	20720.76
515.81	20491.39
515.99	20699.70
516.16	20737.15
516.33	20547.56
516.51	20774.60
516.68	20769.91
516.85	20496.07
517.03	21116.31
517.20	20915.03
517.37	21025.03
517.54	21050.78
517.72	20910.35
517.89	21015.67
518.06	21123.33
518.24	21064.82
518.41	20964.18
518.58	21390.16
518.75	21036.74
518.93	21699.11
519.10	21509.52
519.27	21235.68
519.45	21303.56
519.62	21483.78
519.79	21439.31
519.96	21469.73
520.14	21813.79
520.31	21654.64
520.48	21722.51
520.65	21652.30
520.83	21802.09
521.00	21844.22
521.17	22047.85
521.34	21923.80
521.52	21996.35
521.69	21673.36
521.86	22263.18
522.03	22104.02
522.20	22171.89
522.38	22214.02
522.55	22328.71
522.72	21944.86
522.89	22202.32
523.07	22686.81
523.24	22499.57
523.41	22719.58
523.58	22480.85
523.75	22771.07
523.92	22410.63
524.10	22717.24
524.27	22906.82
524.44	22789.80
524.61	23023.85
524.78	22862.35
524.96	22672.77
525.13	22764.05
525.30	23117.47
525.47	23243.86
525.64	23274.29
525.81	23407.70
525.98	23171.30
526.16	23428.76
526.33	23428.76
526.50	23480.25
526.67	23131.51
526.84	23080.02
527.01	23211.09
527.18	23335.14
527.36	23749.42
527.53	23548.13
527.70	23882.83
527.87	23857.08
528.04	23742.39
528.21	23681.54
528.38	23578.56
528.55	23775.16
528.72	23793.89
528.89	24098.16
529.07	24278.38
529.24	23873.46
529.41	24261.99
529.58	24009.22
529.75	23805.59
529.92	24065.39
530.09	24034.96
530.26	24292.42
530.43	24271.36
530.60	24327.53
530.77	23983.47
530.94	24236.25
531.11	24177.73
531.28	24306.46
531.46	24254.97
531.63	24341.57
531.80	24797.98
531.97	24694.99
532.14	24575.62
532.31	24746.48
532.48	24367.32
532.65	24971.18
532.82	24505.41
532.99	24893.94
533.16	24723.08
533.33	24652.86
533.50	25170.12
533.67	25048.41
533.84	24877.55
534.01	24613.07
534.18	24559.24
534.35	24989.90
534.52	25490.77
534.69	25263.74
534.86	25369.07
535.03	25238.00
535.20	25046.07
535.37	25429.92
535.54	25359.70
535.71	24996.92
535.88	25308.21
536.05	25179.48
536.22	25757.60
536.38	25844.20
536.55	25607.80
536.72	25490.77
536.89	25497.80
537.06	25357.36
537.23	25762.28
537.40	25490.77
537.57	25502.48
537.74	25879.30
537.91	25898.03
538.08	26054.84
538.25	25591.42
538.42	25876.96
538.59	25523.54
538.75	25802.07
538.92	25886.32
539.09	26160.17
539.26	25984.63
539.43	25816.11
539.60	26036.12
539.77	26164.85
539.94	26288.90
540.11	26270.17
540.28	26160.17
540.44	25961.22
540.61	26431.67
540.78	26206.98
540.95	25984.63
541.12	26380.18
541.29	26171.87
541.46	26534.65
541.62	26515.93
541.79	26274.85
541.96	26061.87
542.13	25961.22
542.30	26745.30
542.47	26555.72
542.63	26965.31
542.80	26766.37
542.97	27426.40
543.14	26766.37
543.31	27072.98
543.48	26998.08
543.64	27190.00
543.81	27108.08
543.98	27096.38
544.15	27185.32
544.32	27185.32
544.48	27166.60
544.65	27292.99
544.82	27166.60
544.99	26946.59
545.16	27115.11
545.32	27498.95
545.49	27597.26
545.66	27714.28
545.83	27428.74
546.00	27442.78
546.16	27475.55
546.33	27351.50
546.50	27213.41
546.67	27342.14
546.83	27761.09
547.00	27410.01
547.17	27978.76
547.34	27838.33
547.50	27721.30
547.67	27733.01
547.84	27580.87
548.00	28088.77
548.17	27943.66
548.34	27632.36
548.51	28037.28
548.67	28095.79
548.84	28048.98
549.01	27861.74
549.18	27964.72
549.34	27807.90
549.51	28011.53
549.68	28034.94
549.84	27913.23
550.01	28048.98
550.18	28245.58
550.34	28112.17
550.51	28252.61
550.68	28252.61
550.84	28177.71
551.01	28231.54
551.18	28011.53
551.34	28240.90
551.51	28140.26
551.68	28641.14
551.84	28290.06
552.01	28477.30
552.18	28603.69
552.34	28439.85
552.51	28645.82
552.68	28400.06
552.84	28514.75
553.01	28687.95
553.18	28517.09
553.34	28755.82
553.51	28444.53
553.67	28339.21
553.84	28943.06
554.01	28559.22
554.17	28737.10
554.34	28582.62
554.51	28781.57
554.67	28732.42
554.84	28638.80
555.00	28837.74
555.17	29142.01
555.33	28893.91
555.50	28816.68
555.67	28851.78
555.83	29001.58
556.00	28903.28
556.16	29230.95
556.33	29097.54
556.50	28914.98
556.66	29146.69
556.83	29003.92
556.99	29635.86
557.16	29144.35
557.32	29315.21
557.49	29357.34
557.65	29144.35
557.82	29130.31
557.98	28933.70
558.15	29298.83
558.32	29242.65
558.48	29006.26
558.65	29764.59
558.81	29394.79
558.98	29209.89
559.14	29390.11
559.31	29373.72
559.47	29158.39
559.64	29357.34
559.80	29703.74
559.97	29406.49
560.13	29521.18
560.30	29191.16
560.46	29504.79
560.63	29734.17
560.79	29308.19
560.96	29516.50
561.12	29408.83
561.29	29387.77
561.45	29446.28
561.61	29816.08
561.78	29926.09
561.94	29514.16
562.11	29696.72
562.27	29743.53
562.44	29844.17
562.60	29490.75
562.77	29589.05
562.93	29329.25
563.10	29633.52
563.26	29673.31
563.42	30043.12
563.59	29766.93
563.75	29701.40
563.92	30036.09
564.08	29837.15
564.24	29907.37
564.41	29589.05
564.57	29689.70
564.74	29614.80
564.90	29788.00
565.07	30047.80
565.23	29834.81
565.39	30029.07
565.56	30059.50
565.72	29715.44
565.88	30096.95
566.05	29947.15
566.21	29743.53
566.38	29947.15
566.54	30045.46
566.70	30228.02
566.87	30347.39
567.03	29968.22
567.19	30562.72
567.36	30361.43
567.52	30232.70
567.68	30232.70
567.85	29933.11
568.01	30099.29
568.17	29837.15
568.34	30363.77
568.50	30221.00
568.66	30202.27
568.83	30792.09
568.99	30263.13
569.15	29881.62
569.32	30232.70
569.48	30314.62
569.64	30188.23
569.81	30228.02
569.97	30148.44
570.13	30017.37
570.30	30153.12
570.46	30366.11
570.62	29916.73
570.78	30178.87
570.95	30012.69
571.11	30244.40
571.27	29558.63
571.43	30412.92
571.60	30043.12
571.76	29788.00
571.92	30469.09
572.09	30010.35
572.25	30417.60
572.41	30426.96
572.57	30391.86
572.74	30658.68
572.90	30143.76
573.06	30342.70
573.22	30015.03
573.38	30246.74
573.55	30366.11
573.71	30740.60
573.87	30670.38
574.03	30286.53
574.20	30316.96
574.36	29986.94
574.52	30506.54
574.68	30382.49
574.84	30925.50
575.01	30661.02
575.17	30401.22
575.33	30513.56
575.49	30267.81
575.65	30691.44
575.82	30476.12
575.98	30270.15
576.14	30543.99
576.30	30815.49
576.46	30129.72
576.62	30389.52
576.79	30433.99
576.95	30307.60
577.11	30927.84
577.27	30459.73
577.43	30560.37
577.59	30471.43
577.75	30525.27
577.92	30302.92
578.08	29947.15
578.24	30349.73
578.40	30396.54
578.56	30361.43
578.72	30742.94
578.88	30766.34
579.04	31091.68
579.21	30745.28
579.37	30513.56
579.53	30677.40
579.69	30347.39
579.85	30551.01
580.01	30443.35
580.17	30656.34
580.33	30843.58
580.49	30806.13
580.65	30735.92
580.82	30651.66
580.98	30810.81
581.14	30625.91
581.30	30925.50
581.46	30455.05
581.62	30216.32
581.78	30316.96
581.94	30625.91
582.10	30464.41
582.26	30703.15
582.42	30976.99
582.58	30766.34
582.74	30972.31
582.90	30663.36
583.06	31035.50
583.22	30939.54
583.38	30845.92
583.54	30778.04
583.70	30939.54
583.86	30445.69
584.02	30663.36
584.18	30991.03
584.34	30855.28
584.50	30967.63
584.66	30579.10
584.82	30581.44
584.98	30679.74
585.14	31054.23
585.30	30508.88
585.46	30522.93
585.62	30604.84
585.78	30820.17
585.94	30529.95
586.10	31016.78
586.26	30848.26
586.42	30815.49
586.58	30693.79
586.74	30909.11
586.90	30803.79
587.06	30480.80
587.22	30866.98
587.38	30742.94
587.54	31288.28
587.70	30876.35
587.86	30958.27
588.02	31517.65
588.18	31005.08
588.34	30934.86
588.49	30897.41
588.65	30555.69
588.81	30864.64
588.97	30822.51
589.13	30590.80
589.29	30869.33
589.45	31117.42
589.61	31510.63
589.77	31096.36
589.93	31304.67
590.08	31428.71
590.24	31307.01
590.40	30993.37
590.56	31295.30
590.72	30920.82
590.88	31276.58
591.04	30960.61
591.20	31206.36
591.35	31124.44
591.51	31150.19
591.67	31573.83
591.83	31716.60
591.99	31124.44
592.15	30874.01
592.31	31321.05
592.46	30780.39
592.62	30979.33
592.78	31115.08
592.94	30995.71
593.10	31426.37
593.26	31171.25
593.41	30691.44
593.57	31358.50
593.73	31000.40
593.89	31314.03
594.05	31428.71
594.20	31112.74
594.36	31225.09
594.52	31372.54
594.68	31288.28
594.84	30962.95
594.99	31077.63
595.15	31332.75
595.31	31508.29
595.47	31414.67
595.62	31351.48
595.78	31077.63
595.94	31171.25
596.10	31143.17
596.25	31534.04
596.41	31098.70
596.57	31185.30
596.73	31007.42
596.88	30923.16
597.04	31175.94
597.20	31051.89
597.36	31295.30
597.51	31622.98
597.67	31215.72
597.83	31225.09
597.99	31466.16
598.14	31292.96
598.30	31367.86
598.46	31311.69
598.61	31260.20
598.77	31229.77
598.93	31096.36
599.09	31311.69
599.24	31763.41
599.40	31725.96
599.56	31583.19
599.71	31274.24
599.87	31175.94
600.03	31475.52
600.18	31297.64
600.34	31239.13
600.50	30911.46
600.65	31028.48
600.81	31559.78
600.97	31505.95
601.12	31658.09
601.28	31765.75
601.44	31679.15
601.59	31917.89
601.75	31330.41
601.91	31510.63
602.06	31044.87
602.22	31606.59
602.37	31463.82
602.53	31337.43
602.69	31501.27
602.84	31653.40
603.00	31756.39
603.16	31255.51
603.31	31239.13
603.47	31402.97
603.62	31381.90
603.78	31346.79
603.94	31285.94
604.09	31182.96
604.25	31599.57
604.40	31611.28
604.56	31576.17
604.71	31253.17
604.87	31019.12
605.03	31632.34
605.18	31716.60
605.34	31192.32
605.49	31391.26
605.65	31211.04
605.80	30845.92
605.96	31126.78
606.12	31409.99
606.27	31208.70
606.43	31023.80
606.58	31604.25
606.74	31344.45
606.89	31566.81
607.05	31325.73
607.20	31187.64
607.36	31239.13
607.51	31377.22
607.67	31056.57
607.82	31161.89
607.98	31096.36
608.13	31033.16
608.29	31157.21
608.44	31108.06
608.60	31414.67
608.75	31585.53
608.91	31288.28
609.06	31147.85
609.22	31187.64
609.37	30607.19
609.53	31091.68
609.68	31220.41
609.84	31058.91
609.99	31175.94
610.15	31157.21
610.30	31063.59
610.46	30972.31
610.61	31157.21
610.76	31452.12
610.92	31056.57
611.07	31175.94
611.23	31049.55
611.38	31288.28
611.54	30649.32
611.69	30841.24
611.84	30766.34
612.00	30850.60
612.15	30895.07
612.31	31215.72
612.46	31227.43
612.62	31213.38
612.77	31234.45
612.92	30962.95
613.08	30953.58
613.23	31159.55
613.39	30661.02
613.54	30572.08
613.69	30874.01
613.85	30752.30
614.00	30885.71
614.15	30899.75
614.31	30899.75
614.46	30731.23
614.62	30827.20
614.77	30876.35
614.92	30349.73
615.08	30845.92
615.23	30672.72
615.38	30806.13
615.54	30480.80
615.69	30628.25
615.84	30700.81
616.00	30314.62
616.15	30644.63
616.30	30780.39
616.46	30548.67
616.61	30527.61
616.76	30843.58
616.92	30691.44
617.07	30871.67
617.22	30717.19
617.37	30469.09
617.53	30771.02
617.68	30778.04
617.83	30323.98
617.99	30401.22
618.14	30670.38
618.29	30213.98
618.45	30565.06
618.60	30455.05
618.75	30415.26
618.90	30251.42
619.06	30558.03
619.21	30209.29
619.36	30274.83
619.51	30260.79
619.67	30050.14
619.82	30038.44
619.97	30441.01
620.12	30452.71
620.28	30110.99
620.43	30279.51
620.58	30366.11
620.73	30087.59
620.89	30370.79
621.04	30279.51
621.19	30272.49
621.34	29748.21
621.49	30005.67
621.65	29701.40
621.80	30244.40
621.95	30029.07
622.10	29771.61
622.25	29979.92
622.41	29741.19
622.56	30066.52
622.71	30270.15
622.86	29947.15
623.01	30331.00
623.16	30199.93
623.32	29982.26
623.47	29780.98
623.62	29928.43
623.77	29619.48
623.92	30295.89
624.07	29881.62
624.23	29624.16
624.38	29764.59
624.53	29757.57
624.68	29902.68
624.83	30204.61
624.98	29982.26
625.13	29446.28
625.29	29886.30
625.44	29607.78
625.59	29350.32
625.74	29434.58
625.89	29647.57
626.04	29661.61
626.19	29579.69
626.34	29476.71
626.49	29792.68
626.65	29359.68
626.80	29771.61
626.95	29511.81
627.10	29706.08
627.25	29479.05
627.40	29624.16
627.55	29450.96
627.70	29081.16
627.85	29350.32
628.00	29188.82
628.15	29984.60
628.30	29083.50
628.45	29280.10
628.60	29193.50
628.76	29500.11
628.91	29469.69
629.06	29511.81
629.21	29390.11
629.36	29172.44
629.51	29441.60
629.66	28896.25
629.81	28957.11
629.96	28994.56
630.11	29092.86
630.26	28957.11
630.41	29015.62
630.56	28964.13
630.71	29163.08
630.86	28940.72
631.01	29174.78
631.16	29067.11
631.31	29216.91
631.46	29191.16
631.61	28996.90
631.76	29200.52
631.91	29282.44
632.06	28510.07
632.21	28868.17
632.36	28739.44
632.51	28711.35
632.66	28945.41
632.81	28795.61
632.96	28718.37
633.10	28877.53
633.25	28699.65
633.40	28774.55
633.55	28854.12
633.70	28435.17
633.85	28577.94
634.00	28435.17
634.15	28692.63
634.30	28568.58
634.45	28414.10
634.60	28577.94
634.75	28636.45
634.90	28364.95
635.05	28584.96
635.19	28669.22
635.34	28821.36
635.49	28402.40
635.64	28563.90
635.79	28460.91
635.94	28238.56
636.09	28580.28
636.24	28133.24
636.39	28685.61
636.53	28575.60
636.68	28166.01
636.83	28393.04
636.98	28135.58
637.13	28287.71
637.28	28699.65
637.43	28374.31
637.57	28222.18
637.72	28149.62
637.87	28472.62
638.02	28353.25
638.17	28395.38
638.32	28231.54
638.46	27742.37
638.61	27908.55
638.76	27976.42
638.91	28004.51
639.06	27946.00
639.20	27889.82
639.35	28339.21
639.50	28044.30
639.65	28273.67
639.80	28439.85
639.94	28046.64
640.09	28034.94
640.24	27997.49
640.39	27868.76
640.54	27552.79
640.68	27957.70
640.83	27903.87
640.98	27548.11
641.13	27386.61
641.27	27742.37
641.42	27477.89
641.57	27857.06
641.72	27562.15
641.86	27573.85
642.01	27828.97
642.16	27807.90
642.31	27440.44
642.45	27377.25
642.60	27323.41
642.75	27433.42
642.90	27505.98
643.04	27269.58
643.19	27398.31
643.34	27545.76
643.48	27903.87
643.63	27885.14
643.78	27906.21
643.93	27653.43
644.07	27615.98
644.22	27543.42
644.37	27246.18
644.51	27676.83
644.66	27529.38
644.81	27257.88
644.95	27307.03
645.10	27047.23
645.25	27388.95
645.39	27569.17
645.54	26927.86
645.69	27255.54
645.83	27571.51
645.98	27234.47
646.13	27225.11
646.27	27545.76
646.42	27426.40
646.57	27218.09
646.71	27410.01
646.86	27115.11
647.00	27080.00
647.15	26984.04
647.30	27037.87
647.44	27000.42
647.59	27262.56
647.74	26780.41
647.88	27175.96
648.03	27381.93
648.17	27290.65
648.32	27311.71
648.47	27133.83
648.61	26808.50
648.76	27159.58
648.90	27026.17
649.05	26852.97
649.20	27112.77
649.34	26759.34
649.49	26366.13
649.63	26899.78
649.78	26883.39
649.92	26649.34
650.07	27103.40
650.21	26815.52
650.36	26691.47
650.51	26843.60
650.65	26539.33
650.80	26771.05
650.94	26698.49
651.09	26574.44
651.23	26705.51
651.38	26380.18
651.52	26569.76
651.67	26611.89
651.81	26560.40
651.96	26745.30
652.10	26754.66
652.25	26464.44
652.39	27051.91
652.54	26546.36
652.68	26544.02
652.83	26752.32
652.97	26794.45
653.12	26787.43
653.26	26417.63
653.41	26852.97
653.55	26426.99
653.70	26366.13
653.84	26204.64
653.99	26548.70
654.13	26061.87
654.27	26506.57
654.42	26132.08
654.56	25986.97
654.71	26277.19
654.85	26623.59
655.00	26544.02
655.14	26148.46
655.29	26508.91
655.43	26534.65
655.57	26256.13
655.72	26085.27
655.86	26129.74
656.01	26050.16
656.15	25710.78
656.30	26125.06
656.44	26139.10
656.58	25724.83
656.73	25942.50
656.87	26122.72
657.01	25996.33
657.16	26183.57
657.30	25956.54
657.45	26096.97
657.59	25926.11
657.73	25738.87
657.88	26040.80
658.02	25977.61
658.16	25542.27
658.31	25806.75
658.45	25813.77
658.60	25678.02
658.74	25759.94
658.88	25692.06
659.03	25600.78
659.17	25446.30
659.31	25982.29
659.46	25525.88
659.60	26256.13
659.74	25282.47
659.89	25579.71
660.03	25343.32
660.17	25462.69
660.32	25378.43
660.46	25282.47
660.60	25125.65
660.74	25149.06
660.89	24865.85
661.03	24755.85
661.17	25130.33
661.32	25102.25
661.46	25511.84
661.60	25298.85
661.74	25017.99
661.89	25549.29
662.03	24938.41
662.17	25305.87
662.31	24898.62
662.46	24996.92
662.60	24741.80
662.74	24687.97
662.88	24952.45
663.03	24533.50
663.17	24716.06
663.31	24812.02
663.45	24697.33
663.60	24704.35
663.74	24608.39
663.88	24594.35
664.02	24872.87
664.17	24758.19
664.31	24659.88
664.45	24364.98
664.59	24615.41
664.73	24418.81
664.88	24261.99
665.02	24107.52
665.16	24081.77
665.30	24318.17
665.44	24098.16
665.59	24339.23
665.73	23824.31
665.87	24159.01
666.01	24603.71
666.15	24301.78
666.29	24250.29
666.44	24063.05
666.58	23934.32
666.72	24170.71
666.86	23889.85
667.00	23960.06
667.14	24013.90
667.28	23740.05
667.43	23962.40
667.57	23772.82
667.71	23667.50
667.85	23534.09
667.99	23229.82
668.13	23489.62
668.27	23697.92
668.41	24112.20
668.56	23358.55
668.70	23405.36
668.84	23564.51
668.98	23676.86
669.12	23470.89
669.26	23517.70
669.40	23555.15
669.54	23353.87
669.68	23527.06
669.82	23330.46
669.96	23133.86
670.10	22860.01
670.25	23267.27
670.39	23077.68
670.53	22703.20
670.67	22782.77
670.81	23257.90
670.95	23152.58
671.09	22878.74
671.23	22871.72
671.37	22761.71
671.51	22850.65
671.65	22972.36
671.79	22747.67
671.93	22682.13
672.07	22710.22
672.21	22583.83
672.35	22534.68
672.49	22530.00
672.63	22412.97
672.77	22389.56
672.91	22328.71
673.05	22214.02
673.19	22438.72
673.33	22281.90
673.47	22097.00
673.61	22101.68
673.75	22265.52
673.89	22265.52
674.03	22295.94
674.17	22293.60
674.31	22122.74
674.45	22125.08
674.59	22239.77
674.73	21872.31
674.87	21996.35
675.01	21781.03
675.15	21898.05
675.29	21598.46
675.43	21511.86
675.56	21923.80
675.70	21277.81
675.84	21628.89
675.98	21020.35
676.12	21666.34
676.26	21680.38
676.40	21624.21
676.54	21572.72
676.68	21013.33
676.82	21085.89
676.96	21221.64
677.10	20931.41
677.23	20978.22
677.37	20952.48
677.51	20835.45
677.65	20730.12
677.79	20734.81
677.93	20648.21
678.07	20664.59
678.21	20365.00
678.34	20320.53
678.48	20814.38
678.62	20666.93
678.76	20247.97
678.90	20144.99
679.04	20545.22
679.18	20032.65
679.31	19964.77
679.45	19971.79
679.59	19939.02
679.73	19864.13
679.87	19784.55
680.00	19807.95
680.14	19971.79
680.28	19800.93
680.42	19616.03
680.56	19697.95
680.70	19960.09
680.83	19711.99
680.97	19585.60
681.11	19386.66
681.25	19431.13
681.39	19323.46
681.52	19363.25
681.66	18845.99
681.80	19281.33
681.94	19147.92
682.07	19042.60
682.21	18967.70
682.35	19000.47
682.49	18820.25
682.62	19042.60
682.76	18817.91
682.90	18651.73
683.04	18731.31
683.17	18761.73
683.31	18705.56
683.45	18668.11
683.59	18242.14
683.72	18398.95
683.86	18232.77
684.00	18394.27
684.13	17895.74
684.27	17965.95
684.41	17989.36
684.55	17741.26
684.68	17668.70
684.82	17860.63
684.96	17841.90
685.09	17722.54
685.23	17584.44
685.37	17453.37
685.50	17621.89
685.64	17465.08
685.78	17462.74
685.91	17713.17
686.05	17500.19
686.19	17638.28
686.32	17439.33
686.46	17488.48
686.60	17263.79
686.73	17418.27
686.87	17036.76
687.01	16943.14
687.14	17043.78
687.28	16849.52
687.42	17018.04
687.55	16734.83
687.69	16739.51
687.82	16655.25
687.96	16592.06
688.10	16528.86
688.23	16798.02
688.37	16505.46
688.50	16519.50
688.64	16432.90
688.78	16259.70
688.91	16503.12
689.05	16336.94
689.18	16063.10
689.32	15817.34
689.46	15758.83
689.59	15953.09
689.73	15873.51
689.86	15784.57
690.00	15915.64
690.13	15765.85
690.27	15484.98
690.41	15716.70
690.54	15517.75
690.68	15548.18
690.81	15515.41
690.95	15524.77
691.08	15576.27
691.22	15370.30
691.35	15704.99
691.49	15110.50
691.62	15192.42
691.76	15290.72
691.89	15021.56
692.03	14728.99
692.16	14771.12
692.30	14703.25
692.43	14799.21
692.57	14551.11
692.70	14569.83
692.84	14682.18
692.97	14363.87
693.11	14527.71
693.24	14633.03
693.38	14487.92
693.51	14569.83
693.65	14558.13
693.78	14394.29
693.92	14178.97
694.05	14356.85
694.19	14246.84
694.32	14207.05
694.45	13991.72
694.59	13584.47
694.72	13757.67
694.86	13628.94
694.99	13404.25
695.13	13823.20
695.26	13654.69
695.39	13767.03
695.53	13769.37
695.66	13666.39
695.80	13224.03
695.93	13481.49
696.07	13565.74
696.20	13455.74
696.33	13188.92
696.47	13158.49
696.60	13078.91
696.73	13130.41
696.87	12938.48
697.00	13006.36
697.14	13006.36
697.27	12599.10
697.40	12688.04
697.54	12681.02
697.67	12531.23
697.80	12765.28
697.94	12374.41
698.07	12568.68
698.21	12437.61
698.34	12503.14
698.47	12685.70
698.61	12575.70
698.74	12505.48
698.87	12470.37
699.01	12362.71
699.14	12194.19
699.27	12294.83
699.40	12257.39
699.54	12236.32
699.67	12039.72
699.80	11800.98
699.94	11714.38
700.07	12016.31
700.20	11749.49
700.34	11477.99
700.47	11576.29
700.60	11800.98
700.73	11662.89
700.87	11719.06
701.00	11583.31
701.13	11531.82
701.26	11473.31
701.40	11489.69
701.53	11466.28
701.66	11400.75
701.79	11208.83
701.93	11316.49
702.06	11279.04
702.19	10937.32
702.32	11103.50
702.46	10768.80
702.59	10815.62
702.72	10654.12
702.85	10827.32
702.99	10796.89
703.12	10719.65
703.25	10726.68
703.38	10647.10
703.51	10619.01
703.65	10616.67
703.78	10422.41
703.91	10422.41
704.04	10637.73
704.17	10562.84
704.31	10408.36
704.44	10448.15
704.57	10265.59
704.70	10090.05
704.83	9912.17
704.96	10120.48
705.10	9809.19
705.23	9926.21
>>>>>End Processed Spectral Data<<<<<
