SpectraSuite Data File
++++++++++++++++++++++++++++++++++++
Date: Fri Oct 18 13:58:08 GMT-05:00 2013
User: bianchi
Dark Spectrum Present: No
Reference Spectrum Present: No
Number of Sampled Component Spectra: 1
Spectrometers: USB2+H05261
Integration Time (usec): 50000 (USB2+H05261)
Spectra Averaged: 1 (USB2+H05261)
Boxcar Smoothing: 0 (USB2+H05261)
Correct for Electrical Dark: No (USB2+H05261)
Strobe/Lamp Enabled: No (USB2+H05261)
Correct for Detector Non-linearity: No (USB2+H05261)
Correct for Stray Light: No (USB2+H05261)
Number of Pixels in Processed Spectrum: 2048
>>>>>Begin Processed Spectral Data<<<<<
365.73	0.00
365.92	0.00
366.12	0.00
366.32	0.00
366.52	0.00
366.72	0.00
366.91	0.00
367.11	0.00
367.31	0.00
367.51	0.00
367.70	0.00
367.90	0.00
368.10	0.00
368.30	0.00
368.49	0.00
368.69	0.00
368.89	0.00
369.09	0.00
369.28	0.00
369.48	0.00
369.68	0.00
369.87	0.00
370.07	0.00
370.27	0.00
370.47	0.00
370.66	110.01
370.86	147.45
371.06	98.30
371.25	107.66
371.45	51.49
371.65	231.71
371.84	161.50
372.04	128.73
372.24	149.79
372.44	156.82
372.63	203.63
372.83	98.30
373.03	145.11
373.22	215.33
373.42	208.31
373.62	166.18
373.81	189.58
374.01	250.44
374.21	177.88
374.40	208.31
374.60	257.46
374.79	327.68
374.99	177.88
375.19	271.50
375.38	285.55
375.58	301.93
375.78	330.02
375.97	325.33
376.17	301.93
376.37	276.18
376.56	276.18
376.76	196.60
376.95	266.82
377.15	299.59
377.35	203.63
377.54	248.10
377.74	294.91
377.93	346.40
378.13	322.99
378.33	311.29
378.52	313.63
378.72	283.20
378.91	306.61
379.11	313.63
379.31	341.72
379.50	280.86
379.70	374.49
379.89	332.36
380.09	315.97
380.28	224.69
380.48	276.18
380.68	337.04
380.87	376.83
381.07	248.10
381.26	287.89
381.46	404.91
381.65	388.53
381.85	355.76
382.04	355.76
382.24	299.59
382.43	341.72
382.63	390.87
382.83	386.19
383.02	365.12
383.22	344.06
383.41	306.61
383.61	327.68
383.80	334.70
384.00	390.87
384.19	383.85
384.39	334.70
384.58	379.17
384.78	386.19
384.97	390.87
385.17	355.76
385.36	433.00
385.56	376.83
385.75	423.64
385.95	386.19
386.14	433.00
386.34	360.44
386.53	339.38
386.72	423.64
386.92	386.19
387.11	442.36
387.31	327.68
387.50	367.46
387.70	447.04
387.89	407.25
388.09	430.66
388.28	362.78
388.48	411.93
388.67	393.21
388.86	435.34
389.06	500.87
389.25	468.11
389.45	470.45
389.64	489.17
389.84	484.49
390.03	500.87
390.22	475.13
390.42	444.70
390.61	447.04
390.81	528.96
391.00	552.37
391.19	496.19
391.39	482.15
391.58	578.11
391.78	503.22
391.97	524.28
392.16	486.83
392.36	500.87
392.55	552.37
392.75	568.75
392.94	561.73
393.13	496.19
393.33	538.32
393.52	545.34
393.71	526.62
393.91	620.24
394.10	489.17
394.29	615.56
394.49	636.63
394.68	615.56
394.88	697.48
395.07	641.31
395.26	592.16
395.46	575.77
395.65	683.44
395.84	634.29
396.04	645.99
396.23	676.41
396.42	739.61
396.62	690.46
396.81	730.25
397.00	610.88
397.19	629.60
397.39	587.47
397.58	685.78
397.77	678.76
397.97	716.20
398.16	748.97
398.35	713.86
398.55	681.10
398.74	730.25
398.93	755.99
399.12	737.27
399.32	779.40
399.51	739.61
399.70	723.23
399.90	777.06
400.09	858.98
400.28	821.53
400.47	830.89
400.67	858.98
400.86	807.48
401.05	786.42
401.24	791.10
401.44	854.30
401.63	840.25
401.82	847.27
402.01	812.17
402.21	814.51
402.40	833.23
402.59	922.17
402.78	863.66
402.97	835.57
403.17	910.47
403.36	847.27
403.55	926.85
403.74	915.15
403.93	919.83
404.13	1004.09
404.32	905.79
404.51	933.87
404.70	929.19
404.89	903.45
405.09	1020.47
405.28	1008.77
405.47	945.58
405.66	1039.20
405.85	961.96
406.05	985.37
406.24	976.00
406.43	1123.46
406.62	1076.65
406.81	1111.75
407.00	1053.24
407.20	957.28
407.39	1001.75
407.58	1027.50
407.77	992.39
407.96	1050.90
408.15	1102.39
408.34	1013.45
408.54	1071.97
408.73	1029.84
408.92	1011.11
409.11	1071.97
409.30	1186.65
409.49	1114.10
409.68	1188.99
409.87	1203.04
410.07	1186.65
410.26	1224.10
410.45	1210.06
410.64	1338.79
410.83	1369.21
411.02	1315.38
411.21	1284.95
411.40	1273.25
411.59	1294.32
411.78	1245.16
411.98	1226.44
412.17	1371.55
412.36	1263.89
412.55	1355.17
412.74	1385.60
412.93	1357.51
413.12	1256.87
413.31	1465.18
413.50	1308.36
413.69	1467.52
413.88	1467.52
414.07	1366.87
414.26	1448.79
414.45	1411.34
414.64	1453.47
414.83	1511.99
415.02	1542.41
415.22	1511.99
415.41	1516.67
415.60	1556.46
415.79	1568.16
415.98	1558.80
416.17	1650.08
416.36	1614.97
416.55	1577.52
416.74	1722.63
416.93	1657.10
417.12	1764.76
417.31	1699.23
417.50	1739.02
417.69	1692.21
417.88	1776.47
418.07	1727.32
418.26	1767.10
418.45	1842.00
418.64	1860.73
418.83	1799.87
419.02	1842.00
419.21	1867.75
419.39	1928.60
419.58	1933.28
419.77	1860.73
419.96	1860.73
420.15	1928.60
420.34	1881.79
420.53	1881.79
420.72	1916.90
420.91	2010.52
421.10	1863.07
421.29	1895.83
421.48	1987.11
421.67	1935.62
421.86	2038.61
422.05	1870.09
422.24	1980.09
422.43	1933.28
422.61	1928.60
422.80	2059.67
422.99	2010.52
423.18	1994.14
423.37	2125.21
423.56	2043.29
423.75	1982.43
423.94	1991.80
424.13	1982.43
424.32	1994.14
424.50	2001.16
424.69	2101.80
424.88	2139.25
425.07	2143.93
425.26	1970.73
425.45	1984.77
425.64	2064.35
425.83	2083.08
426.01	2111.16
426.20	2143.93
426.39	2211.81
426.58	2029.24
426.77	1977.75
426.96	2106.48
427.15	2097.12
427.33	2214.15
427.52	2200.10
427.71	2122.87
427.90	2129.89
428.09	2251.60
428.28	2211.81
428.46	2272.66
428.65	2237.55
428.84	2190.74
429.03	2223.51
429.22	2197.76
429.40	2293.72
429.59	2282.02
429.78	2125.21
429.97	2181.38
430.16	2218.83
430.34	2148.61
430.53	2359.26
430.72	2352.24
430.91	2345.22
431.10	2345.22
431.28	2319.47
431.47	2331.17
431.66	2368.62
431.85	2349.90
432.03	2392.03
432.22	2612.04
432.41	2387.35
432.60	2450.54
432.79	2471.61
432.97	2523.10
433.16	2661.19
433.35	2560.55
433.54	2462.24
433.72	2635.44
433.91	2532.46
434.10	2534.80
434.28	2579.27
434.47	2516.08
434.66	2607.36
434.85	2626.08
435.03	2668.21
435.22	2548.84
435.41	2668.21
435.59	2621.40
435.78	2726.72
435.97	2719.70
436.16	2647.15
436.34	2717.36
436.53	2717.36
436.72	2768.85
436.90	2686.94
437.09	2850.77
437.28	2670.55
437.46	2839.07
437.65	2754.81
437.84	2904.60
438.02	2850.77
438.21	2822.69
438.40	2871.84
438.58	2890.56
438.77	2820.35
438.96	2923.33
439.14	2923.33
439.33	3002.91
439.52	3026.31
439.70	2949.08
439.89	3040.36
440.08	3094.19
440.26	3056.74
440.45	3070.78
440.63	3159.72
440.82	3047.38
441.01	3138.66
441.19	3087.17
441.38	3110.57
441.57	3267.39
441.75	3262.71
441.94	3384.41
442.12	3218.24
442.31	3253.34
442.50	3386.76
442.68	3288.45
442.87	3337.60
443.05	3473.36
443.24	3384.41
443.43	3517.83
443.61	3449.95
443.80	3529.53
443.98	3346.97
444.17	3438.25
444.35	3300.16
444.54	3398.46
444.73	3419.52
444.91	3438.25
445.10	3396.12
445.28	3576.34
445.47	3471.01
445.65	3524.85
445.84	3466.33
446.02	3424.20
446.21	3522.51
446.39	3454.63
446.58	3564.64
446.77	3522.51
446.95	3431.23
447.14	3672.30
447.32	3527.19
447.51	3592.72
447.69	3548.25
447.88	3597.40
448.06	3583.36
448.25	3660.60
448.43	3503.78
448.62	3501.44
448.80	3623.15
448.99	3597.40
449.17	3569.32
449.36	3655.92
449.54	3702.73
449.73	3658.26
449.91	3817.41
450.10	3756.56
450.28	3756.56
450.46	3761.24
450.65	3747.20
450.83	3941.46
451.02	3805.71
451.20	3864.22
451.39	3852.52
451.57	3712.09
451.76	3777.62
451.94	3948.48
452.13	3971.89
452.31	3878.27
452.49	3922.74
452.68	3967.21
452.86	3822.09
453.05	3859.54
453.23	4023.38
453.42	4002.32
453.60	3983.59
453.78	3831.46
453.97	3941.46
454.15	4046.79
454.34	4079.55
454.52	4042.11
454.70	4149.77
454.89	3992.95
455.07	4037.42
455.26	4093.60
455.44	4095.94
455.62	4156.79
455.81	4070.19
455.99	4107.64
456.17	4107.64
456.36	4198.92
456.54	4269.14
456.73	4353.40
456.91	4456.38
457.09	4388.50
457.28	4437.66
457.46	4313.61
457.64	4416.59
457.83	4456.38
458.01	4386.16
458.19	4442.34
458.38	4447.02
458.56	4463.40
458.74	4507.87
458.93	4435.32
459.11	4388.50
459.29	4535.96
459.48	4465.74
459.66	4510.21
459.84	4594.47
460.03	4615.54
460.21	4709.16
460.39	4624.90
460.57	4564.04
460.76	4718.52
460.94	4589.79
461.12	4650.64
461.31	4730.22
461.49	4798.10
461.67	4676.39
461.85	4758.31
462.04	4833.21
462.22	4940.87
462.40	4854.27
462.59	4755.97
462.77	4830.87
462.95	4814.48
463.13	4931.51
463.32	4901.08
463.50	4821.50
463.68	4933.85
463.86	4964.28
464.05	4919.81
464.23	4936.19
464.41	5001.72
464.59	4863.63
464.78	5078.96
464.96	5046.20
465.14	4992.36
465.32	5067.26
465.50	5210.03
465.69	5130.45
465.87	5130.45
466.05	4922.15
466.23	5128.11
466.41	5053.22
466.60	5497.92
466.78	5027.47
466.96	5174.92
467.14	5104.71
467.32	5305.99
467.51	5465.15
467.69	5015.77
467.87	5093.01
468.05	5249.82
468.23	5151.52
468.41	5191.31
468.60	5207.69
468.78	5324.72
468.96	5322.38
469.14	5210.03
469.32	5427.70
469.50	5195.99
469.69	5327.06
469.87	5526.00
470.05	5605.58
470.23	5313.02
470.41	5401.96
470.59	5596.22
470.77	5397.28
470.95	5411.32
471.14	5556.43
471.32	5549.41
471.50	5790.49
471.68	5680.48
471.86	5561.11
472.04	5769.42
472.22	5741.33
472.40	5811.55
472.58	5853.68
472.77	5816.23
472.95	5907.51
473.13	6153.27
473.31	5746.02
473.49	5774.10
473.67	5762.40
473.85	5769.42
474.03	6211.78
474.21	6069.01
474.39	6017.52
474.57	6031.56
474.75	6073.69
474.93	6230.51
475.12	6167.31
475.30	6296.04
475.48	6101.78
475.66	6366.26
475.84	6356.90
476.02	6424.77
476.20	6326.47
476.38	6586.27
476.56	6661.16
476.74	6642.44
476.92	6583.93
477.10	6429.45
477.28	6789.89
477.46	6792.23
477.64	6841.39
477.82	6775.85
478.00	6951.39
478.18	7045.01
478.36	7007.56
478.54	7096.50
478.72	7248.64
478.90	7398.43
479.08	7250.98
479.26	7475.67
479.44	7475.67
479.62	7265.02
479.80	7545.89
479.98	7447.58
480.16	7754.19
480.34	7620.78
480.52	7805.69
480.70	7950.80
480.88	7555.25
481.06	7960.16
481.24	7763.56
481.41	7847.82
481.59	8042.08
481.77	8112.30
481.95	8140.38
482.13	8269.11
482.31	8215.28
482.49	8318.26
482.67	8276.13
482.85	8416.57
483.03	8538.27
483.21	8730.20
483.39	8821.48
483.57	8564.02
483.74	8725.52
483.92	9001.70
484.10	8863.61
484.28	9043.83
484.46	9151.49
484.64	9240.44
484.82	9153.84
485.00	9214.69
485.18	9420.66
485.35	9483.85
485.53	9497.89
485.71	9650.03
485.89	9825.57
486.07	9605.56
486.25	9741.31
486.43	9841.95
486.61	9888.76
486.78	10024.51
486.96	10113.45
487.14	10225.80
487.32	10176.65
487.50	10450.49
487.68	10363.89
487.85	10431.77
488.03	10656.46
488.21	10780.51
488.39	10546.45
488.57	10698.59
488.75	10883.49
488.92	11019.24
489.10	11033.29
489.28	10995.84
489.46	11283.72
489.64	11393.73
489.81	11400.75
489.99	11543.52
490.17	11456.92
490.35	11541.18
490.53	11555.22
490.70	12114.61
490.88	11733.11
491.06	11791.62
491.24	11805.66
491.41	11960.14
491.59	12145.04
491.77	12226.96
491.95	12315.90
492.13	12294.83
492.30	12339.30
492.48	12446.97
492.66	12578.04
492.84	12472.71
493.01	12816.77
493.19	12884.65
493.37	13036.78
493.54	13001.68
493.72	13013.38
493.90	12999.34
494.08	13097.64
494.25	13427.65
494.43	13224.03
494.61	13383.18
494.79	13612.56
494.96	13411.27
495.14	13390.20
495.32	13687.45
495.49	13671.07
495.67	13757.67
495.85	13942.57
496.02	14097.05
496.20	14104.07
496.38	14115.77
496.55	14136.84
496.73	14420.04
496.91	14396.64
497.09	14504.30
497.26	14677.50
497.44	14485.58
497.62	14693.88
497.79	14588.56
497.97	14808.57
498.14	14822.61
498.32	15227.53
498.50	14918.57
498.67	15307.10
498.85	15103.48
499.03	15213.48
499.20	15012.20
499.38	15372.64
499.56	15382.00
499.73	15466.26
499.91	15585.63
500.08	15845.43
500.26	15641.80
500.44	15800.96
500.61	15805.64
500.79	15777.55
500.97	15721.38
501.14	16156.72
501.32	16205.87
501.49	16079.48
501.67	15957.77
501.84	16074.80
502.02	16079.48
502.20	16259.70
502.37	16524.18
502.55	16636.53
502.72	16432.90
502.90	16423.54
503.07	16652.91
503.25	16304.17
503.43	16334.60
503.60	16723.13
503.78	16730.15
503.95	16624.83
504.13	16821.43
504.30	16992.29
504.48	16964.20
504.65	16891.65
504.83	17003.99
505.01	17521.25
505.18	17109.32
505.36	17158.47
505.53	17062.51
505.71	17568.06
505.88	17240.39
506.06	17282.52
506.23	17610.19
506.41	17855.95
506.58	17668.70
506.76	17582.10
506.93	17596.15
507.11	17612.53
507.28	17823.18
507.46	18094.68
507.63	17837.22
507.81	18164.90
507.98	17750.62
508.16	18019.78
508.33	17998.72
508.50	18024.47
508.68	18192.98
508.85	18218.73
509.03	18347.46
509.20	18466.83
509.38	18602.58
509.55	18609.60
509.73	18710.24
509.90	18721.95
510.08	19021.53
510.25	18773.44
510.42	18796.84
510.60	19171.33
510.77	19073.03
510.95	19110.47
511.12	18937.27
511.30	18810.89
511.47	18984.09
511.64	18967.70
511.82	19761.14
511.99	19473.26
512.17	19293.04
512.34	19358.57
512.51	19573.90
512.69	19536.45
512.86	19611.35
513.04	19606.67
513.21	19714.33
513.38	20269.04
513.56	19800.93
513.73	19749.44
513.90	19726.04
514.08	19850.08
514.25	20105.20
514.43	19807.95
514.60	19981.15
514.77	20329.89
514.95	20201.16
515.12	19704.97
515.29	20198.82
515.47	20460.96
515.64	20659.91
515.81	20828.43
515.99	20622.46
516.16	20989.92
516.33	20800.34
516.51	20706.72
516.68	20379.04
516.85	20582.67
517.03	20437.56
517.20	20999.29
517.37	20713.74
517.54	21151.42
517.72	21106.95
517.89	20854.17
518.06	21074.18
518.24	20898.64
518.41	20903.32
518.58	21139.72
518.75	21137.38
518.93	21404.20
519.10	21280.15
519.27	21188.87
519.45	21355.05
519.62	21301.22
519.79	21165.46
519.96	21570.38
520.14	21443.99
520.31	21493.14
520.48	21717.83
520.65	21392.50
520.83	22059.55
521.00	21975.29
521.17	21369.09
521.34	21745.92
521.52	22031.46
521.69	21886.35
521.86	22272.54
522.03	22359.14
522.20	22298.28
522.38	22204.66
522.55	21935.50
522.72	22022.10
522.89	22295.94
523.07	22368.50
523.24	22504.25
523.41	22565.10
523.58	22115.72
523.75	22415.31
523.92	22588.51
524.10	22464.46
524.27	22960.66
524.44	22829.59
524.61	22909.16
524.78	22822.56
524.96	22707.88
525.13	22815.54
525.30	22806.18
525.47	22925.55
525.64	22759.37
525.81	22967.68
525.98	23400.68
526.16	23435.78
526.33	22773.41
526.50	23346.84
526.67	23192.37
526.84	23498.98
527.01	23206.41
527.18	23475.57
527.36	23445.15
527.53	23634.73
527.70	23704.95
527.87	23627.71
528.04	23805.59
528.21	23660.48
528.38	23967.09
528.55	23733.03
528.72	23800.91
528.89	23728.35
529.07	23824.31
529.24	23711.97
529.41	23936.66
529.58	23604.30
529.75	23733.03
529.92	23662.82
530.09	23866.44
530.26	23814.95
530.43	24315.83
530.60	24081.77
530.77	23887.51
530.94	24109.86
531.11	24006.87
531.28	24053.69
531.46	24170.71
531.63	24257.31
531.80	24606.05
531.97	24652.86
532.14	24582.65
532.31	24269.01
532.48	24641.16
532.65	24507.75
532.82	24144.97
532.99	24409.45
533.16	24706.70
533.33	24662.22
533.50	24641.16
533.67	24641.16
533.84	24531.15
534.01	24678.61
534.18	24680.95
534.35	25006.28
534.52	24816.70
534.69	25165.44
534.86	25280.13
535.03	24884.58
535.20	25055.43
535.37	25067.14
535.54	24996.92
535.71	25029.69
535.88	25186.50
536.05	25006.28
536.22	25095.22
536.38	25656.95
536.55	25401.83
536.72	25511.84
536.89	25139.69
537.06	25413.54
537.23	25282.47
537.40	25097.56
537.57	25575.03
537.74	25259.06
537.91	25902.71
538.08	25893.35
538.25	25488.43
538.42	25926.11
538.59	25621.84
538.75	25624.18
538.92	25790.36
539.09	26082.93
539.26	25493.12
539.43	26249.11
539.60	25968.24
539.77	25830.15
539.94	26162.51
540.11	26003.35
540.28	26031.44
540.44	26148.46
540.61	26167.19
540.78	26103.99
540.95	26120.38
541.12	26075.91
541.29	26206.98
541.46	26244.43
541.62	26073.57
541.79	26125.06
541.96	25963.56
542.13	26309.96
542.30	26335.71
542.47	26733.60
542.63	26504.23
542.80	26789.77
542.97	26843.60
543.14	27058.93
543.31	26492.52
543.48	26775.73
543.64	27049.57
543.81	26766.37
543.98	26771.05
544.15	26876.37
544.32	26820.20
544.48	27070.64
544.65	26705.51
544.82	27171.28
544.99	26764.03
545.16	27154.90
545.32	27264.90
545.49	27562.15
545.66	27208.73
545.83	27267.24
546.00	27426.40
546.16	27541.08
546.33	26827.22
546.50	27194.68
546.67	27297.67
546.83	26752.32
547.00	27246.18
547.17	27576.19
547.34	27534.06
547.50	27768.12
547.67	27868.76
547.84	27304.69
548.00	27606.62
548.17	27178.30
548.34	27592.58
548.51	27482.57
548.67	27637.05
548.84	27711.94
549.01	27632.36
549.18	27779.82
549.34	27702.58
549.51	27819.61
549.68	27924.93
549.84	27552.79
550.01	27426.40
550.18	27819.61
550.34	27953.02
550.51	27618.32
550.68	28484.32
550.84	27594.92
551.01	28088.77
551.18	28114.52
551.34	27995.15
551.51	28093.45
551.68	28231.54
551.84	28180.05
552.01	28009.19
552.18	28077.07
552.34	27967.06
552.51	28467.94
552.68	27889.82
552.84	28224.52
553.01	27946.00
553.18	28259.63
553.34	28811.99
553.51	28390.70
553.67	28774.55
553.84	28741.78
554.01	28584.96
554.17	28552.20
554.34	28374.31
554.51	28678.58
554.67	28538.15
554.84	28371.97
555.00	28776.89
555.17	28716.03
555.33	28931.36
555.50	28304.10
555.67	28814.34
555.83	28395.38
556.00	28524.11
556.16	28828.38
556.33	28716.03
556.50	28987.53
556.66	28896.25
556.83	28884.55
556.99	29142.01
557.16	28938.38
557.32	28957.11
557.49	28870.51
557.65	29060.09
557.82	28521.77
557.98	28886.89
558.15	29240.31
558.32	29039.03
558.48	29376.06
558.65	29010.94
558.81	29113.92
558.98	29146.69
559.14	29256.70
559.31	29022.64
559.47	29216.91
559.64	29067.11
559.80	29418.19
559.97	29472.03
560.13	29088.18
560.30	29296.49
560.46	29532.88
560.63	29055.41
560.79	29600.76
560.96	29090.52
561.12	28982.85
561.29	29137.33
561.45	29565.65
561.61	28905.62
561.78	29443.94
561.94	29481.39
562.11	29661.61
562.27	29352.66
562.44	29373.72
562.60	29446.28
562.77	29453.30
562.93	29434.58
563.10	29539.90
563.26	29413.51
563.42	29727.14
563.59	29783.32
563.75	29474.37
563.92	29703.74
564.08	29689.70
564.24	29591.39
564.41	29263.72
564.57	29399.47
564.74	29465.00
564.90	29919.07
565.07	29743.53
565.23	29930.77
565.39	29654.59
565.56	29965.88
565.72	29677.99
565.88	29869.92
566.05	29633.52
566.21	29881.62
566.38	29677.99
566.54	29977.58
566.70	30132.06
566.87	29860.55
567.03	30094.61
567.19	30253.76
567.36	30096.95
567.52	29851.19
567.68	29949.50
567.85	29993.97
568.01	29895.66
568.17	29710.76
568.34	29912.05
568.50	30370.79
568.66	30174.19
568.83	30382.49
568.99	29998.65
569.15	29806.72
569.32	30096.95
569.48	29762.25
569.64	30103.97
569.81	30136.74
569.97	30082.91
570.13	29869.92
570.30	30040.78
570.46	30354.41
570.62	30328.66
570.78	29862.90
570.95	30054.82
571.11	29816.08
571.27	29900.34
571.43	29855.87
571.60	29912.05
571.76	29947.15
571.92	30405.90
572.09	29905.02
572.25	30370.79
572.41	30211.64
572.57	30581.44
572.74	30155.46
572.90	30174.19
573.06	30511.22
573.22	30274.83
573.38	29792.68
573.55	30204.61
573.71	30050.14
573.87	30572.08
574.03	30216.32
574.20	30349.73
574.36	30396.54
574.52	29951.84
574.68	30239.72
574.84	30160.14
575.01	30190.57
575.17	30281.85
575.33	30080.56
575.49	30036.09
575.65	30242.06
575.82	30389.52
575.98	29937.79
576.14	30508.88
576.30	30288.87
576.46	30164.82
576.62	30356.75
576.79	30441.01
576.95	30625.91
577.11	30597.82
577.27	30251.42
577.43	30829.54
577.59	30403.56
577.75	30139.08
577.92	30286.53
578.08	30183.55
578.24	30078.22
578.40	30368.45
578.56	30335.68
578.72	30356.75
578.88	30801.45
579.04	30740.60
579.21	30368.45
579.37	30504.20
579.53	30536.97
579.69	30181.21
579.85	30464.41
580.01	30298.23
580.17	30246.74
580.33	30408.24
580.49	30396.54
580.65	30642.29
580.82	30576.76
580.98	30541.65
581.14	30349.73
581.30	30389.52
581.46	30600.16
581.62	30089.93
581.78	30754.64
581.94	30607.19
582.10	30263.13
582.26	30609.53
582.42	30286.53
582.58	30998.06
582.74	30340.36
582.90	30373.13
583.06	30625.91
583.22	30260.79
583.38	30602.50
583.54	30272.49
583.70	30485.48
583.86	30546.33
584.02	30319.30
584.18	30686.76
584.34	30352.07
584.50	30733.57
584.66	30328.66
584.82	30331.00
584.98	31065.93
585.14	30206.95
585.30	29982.26
585.46	30803.79
585.62	30096.95
585.78	30604.84
585.94	30272.49
586.10	30361.43
586.26	30801.45
586.42	30682.08
586.58	30740.60
586.74	30295.89
586.90	30675.06
587.06	30696.13
587.22	30600.16
587.38	30438.67
587.54	30649.32
587.70	31075.29
587.86	30726.55
588.02	30995.71
588.18	30967.63
588.34	30471.43
588.49	30967.63
588.65	30335.68
588.81	30878.69
588.97	30836.56
589.13	30579.10
589.29	30436.33
589.45	30696.13
589.61	30829.54
589.77	31014.44
589.93	31459.14
590.08	31159.55
590.24	30787.41
590.40	31033.16
590.56	31094.02
590.72	30941.88
590.88	30904.43
591.04	30536.97
591.20	30878.69
591.35	31187.64
591.51	31601.91
591.67	31040.18
591.83	31199.34
591.99	31166.57
592.15	31318.71
592.31	30616.55
592.46	30855.28
592.62	30864.64
592.78	31236.79
592.94	30541.65
593.10	30857.62
593.26	31330.41
593.41	31005.08
593.57	30958.27
593.73	30883.37
593.89	30925.50
594.05	31147.85
594.20	30895.07
594.36	31189.98
594.52	30874.01
594.68	30993.37
594.84	30955.93
594.99	31262.54
595.15	31023.80
595.31	31426.37
595.47	31417.01
595.62	31276.58
595.78	30813.15
595.94	30932.52
596.10	30726.55
596.25	30838.90
596.41	30953.58
596.57	30579.10
596.73	31248.49
596.88	31058.91
597.04	31005.08
597.20	31353.82
597.36	30967.63
597.51	31480.21
597.67	31206.36
597.83	30742.94
597.99	31445.10
598.14	31136.15
598.30	31171.25
598.46	30836.56
598.61	30913.80
598.77	31175.94
598.93	31115.08
599.09	31124.44
599.24	31817.24
599.40	31400.63
599.56	31344.45
599.71	31379.56
599.87	30986.35
600.03	31449.78
600.18	31005.08
600.34	30728.89
600.50	30941.88
600.65	31084.65
600.81	31068.27
600.97	31381.90
601.12	31426.37
601.28	31262.54
601.44	31124.44
601.59	31208.70
601.75	31384.24
601.91	31498.93
602.06	31145.51
602.22	31185.30
602.37	31285.94
602.53	31098.70
602.69	31381.90
602.84	31075.29
603.00	31417.01
603.16	30962.95
603.31	31564.46
603.47	31587.87
603.62	30876.35
603.78	31316.37
603.94	31044.87
604.09	31091.68
604.25	31026.14
604.40	31075.29
604.56	31419.35
604.71	31409.99
604.87	31220.41
605.03	31260.20
605.18	31461.48
605.34	31082.31
605.49	30639.95
605.65	31101.04
605.80	30845.92
605.96	31023.80
606.12	31204.02
606.27	31290.62
606.43	30927.84
606.58	31414.67
606.74	31241.47
606.89	31618.30
607.05	31260.20
607.20	31473.18
607.36	30890.39
607.51	31103.38
607.67	30899.75
607.82	31021.46
607.98	30981.67
608.13	31035.50
608.29	30761.66
608.44	30850.60
608.60	30836.56
608.75	31314.03
608.91	31072.95
609.06	31126.78
609.22	31143.17
609.37	30602.50
609.53	30969.97
609.68	30359.09
609.84	30909.11
609.99	30717.19
610.15	30621.23
610.30	30909.11
610.46	31129.12
610.61	30707.83
610.76	31072.95
610.92	31072.95
611.07	30773.36
611.23	30642.29
611.38	31122.10
611.54	30728.89
611.69	30642.29
611.84	30766.34
612.00	30459.73
612.15	30499.52
612.31	31021.46
612.46	30768.68
612.62	30876.35
612.77	30668.04
612.92	31157.21
613.08	30466.75
613.23	30764.00
613.39	30726.55
613.54	30345.05
613.69	30672.72
613.85	30766.34
614.00	30438.67
614.15	30738.26
614.31	30408.24
614.46	31040.18
614.62	30422.28
614.77	30651.66
614.92	30668.04
615.08	30272.49
615.23	30656.34
615.38	30497.18
615.54	30279.51
615.69	30326.32
615.84	30092.27
616.00	30361.43
616.15	30213.98
616.30	30218.66
616.46	30525.27
616.61	30665.70
616.76	30764.00
616.92	30742.94
617.07	30464.41
617.22	30185.89
617.37	29986.94
617.53	30366.11
617.68	30050.14
617.83	29926.09
617.99	30080.56
618.14	30263.13
618.29	30015.03
618.45	29937.79
618.60	30630.59
618.75	29965.88
618.90	30600.16
619.06	30230.36
619.21	29991.62
619.36	30164.82
619.51	29670.97
619.67	29743.53
619.82	29860.55
619.97	29834.81
620.12	29846.51
620.28	29991.62
620.43	29890.98
620.58	30031.41
620.73	29912.05
620.89	30223.34
621.04	30206.95
621.19	30272.49
621.34	30000.99
621.49	29851.19
621.65	29926.09
621.80	30000.99
621.95	29514.16
622.10	29535.22
622.25	29703.74
622.41	29474.37
622.56	29860.55
622.71	29940.13
622.86	30022.05
623.01	30033.75
623.16	29750.55
623.32	29535.22
623.47	29584.37
623.62	29586.71
623.77	29607.78
623.92	29858.21
624.07	29741.19
624.23	30082.91
624.38	29619.48
624.53	29287.12
624.68	29469.69
624.83	29532.88
624.98	29788.00
625.13	29837.15
625.29	29584.37
625.44	29795.02
625.59	29589.05
625.74	29322.23
625.89	29144.35
626.04	29249.67
626.19	29219.25
626.34	29401.81
626.49	28854.12
626.65	29315.21
626.80	29336.27
626.95	29198.18
627.10	29205.20
627.25	29579.69
627.40	29434.58
627.55	29216.91
627.70	28929.02
627.85	29027.32
628.00	28922.00
628.15	29319.89
628.30	28819.02
628.45	29022.64
628.60	28877.53
628.76	28912.64
628.91	29060.09
629.06	28882.21
629.21	29123.29
629.36	29132.65
629.51	29120.95
629.66	28896.25
629.81	28865.83
629.96	28940.72
630.11	28568.58
630.26	28781.57
630.41	28699.65
630.56	28617.73
630.71	28814.34
630.86	28849.44
631.01	28542.83
631.16	28465.60
631.31	29078.82
631.46	28779.23
631.61	28861.15
631.76	28741.78
631.91	28629.43
632.06	28591.98
632.21	28774.55
632.36	28697.31
632.51	28210.48
632.66	28496.02
632.81	28383.68
632.96	28570.92
633.10	28128.56
633.25	28748.80
633.40	28847.10
633.55	28381.34
633.70	28196.43
633.85	28261.97
634.00	28528.79
634.15	28512.41
634.30	28575.60
634.45	27917.91
634.60	28100.47
634.75	28091.11
634.90	28283.03
635.05	28641.14
635.19	28203.46
635.34	28245.58
635.49	28486.66
635.64	28219.84
635.79	28503.04
635.94	28119.20
636.09	28599.01
636.24	28444.53
636.39	28187.07
636.53	27665.13
636.68	27967.06
636.83	27864.08
636.98	28334.53
637.13	28123.88
637.28	28084.09
637.43	28154.30
637.57	28048.98
637.72	27983.44
637.87	28276.01
638.02	27618.32
638.17	28009.19
638.32	27587.89
638.46	28011.53
638.61	27475.55
638.76	27833.65
638.91	27957.70
639.06	27681.52
639.20	28018.55
639.35	28058.34
639.50	27908.55
639.65	27491.93
639.80	28065.36
639.94	27543.42
640.09	27690.88
640.24	28006.85
640.39	27826.63
640.54	27702.58
640.68	27300.01
640.83	27604.28
640.98	27597.26
641.13	27112.77
641.27	27866.42
641.42	27592.58
641.57	27281.28
641.72	27316.39
641.86	27644.07
642.01	27264.90
642.16	27419.38
642.31	27072.98
642.45	27353.84
642.60	27089.36
642.75	27307.03
642.90	27065.96
643.04	27101.06
643.19	27028.51
643.34	27178.30
643.48	27538.74
643.63	27206.39
643.78	27058.93
643.93	27232.13
644.07	27541.08
644.22	27398.31
644.37	27234.47
644.51	27253.20
644.66	27131.49
644.81	27051.91
644.95	26848.29
645.10	27260.22
645.25	27182.98
645.39	27264.90
645.54	26944.25
645.69	27215.75
645.83	27412.35
645.98	27386.61
646.13	27192.34
646.27	27180.64
646.42	27087.02
646.57	27110.43
646.71	27091.70
646.86	26597.85
647.00	26658.70
647.15	26848.29
647.30	26728.92
647.44	26796.79
647.59	27019.14
647.74	26822.54
647.88	27199.37
648.03	26834.24
648.17	26909.14
648.32	26787.43
648.47	26867.01
648.61	26972.33
648.76	26874.03
648.90	26813.18
649.05	26668.06
649.20	26588.49
649.34	26698.49
649.49	26370.82
649.63	26471.46
649.78	26803.82
649.92	26534.65
650.07	26745.30
650.21	26630.62
650.36	26572.10
650.51	26611.89
650.65	26752.32
650.80	26829.56
650.94	26595.51
651.09	26005.69
651.23	26340.39
651.38	26279.54
651.52	26487.84
651.67	26443.37
651.81	26256.13
651.96	26366.13
652.10	26380.18
652.25	26253.79
652.39	26595.51
652.54	26377.84
652.68	26052.50
652.83	26331.03
652.97	26347.41
653.12	26125.06
653.26	26111.02
653.41	26429.33
653.55	25755.26
653.70	26267.83
653.84	26331.03
653.99	25970.58
654.13	25886.32
654.27	25982.29
654.42	26366.13
654.56	26293.58
654.71	26216.34
654.85	26164.85
655.00	26485.50
655.14	25944.84
655.29	26005.69
655.43	25942.50
655.57	26073.57
655.72	25570.35
655.86	26209.32
656.01	26263.15
656.15	25979.95
656.30	25656.95
656.44	26054.84
656.58	25635.89
656.73	25757.60
656.87	25769.30
657.01	25926.11
657.16	25792.70
657.30	26160.17
657.45	25954.20
657.59	25783.34
657.73	25427.58
657.88	25745.89
658.02	25479.07
658.16	25493.12
658.31	25731.85
658.45	25612.48
658.60	25247.36
658.74	25411.20
658.88	25127.99
659.03	25301.19
659.17	25352.68
659.31	25425.24
659.46	25652.27
659.60	25593.76
659.74	25537.59
659.89	25467.37
660.03	25535.24
660.17	25179.48
660.32	25390.13
660.46	25118.63
660.60	25275.45
660.74	25207.57
660.89	25118.63
661.03	24484.34
661.17	24917.34
661.32	25060.12
661.46	25146.72
661.60	24896.28
661.74	25268.42
661.89	25158.42
662.03	24919.68
662.17	25001.60
662.31	24797.98
662.46	24840.11
662.60	24589.67
662.74	24800.32
662.88	24615.41
663.03	24683.29
663.17	24709.04
663.31	24503.07
663.45	24453.92
663.60	24306.46
663.74	24311.14
663.88	24411.79
664.02	24580.31
664.17	24755.85
664.31	24418.81
664.45	24285.40
664.59	24491.37
664.73	24013.90
664.88	24531.15
665.02	23662.82
665.16	24030.28
665.30	23861.76
665.44	24123.90
665.59	24058.37
665.73	24058.37
665.87	23878.15
666.01	24105.18
666.15	23948.36
666.29	23775.16
666.44	23655.79
666.58	23953.04
666.72	23990.49
666.86	23796.23
667.00	24039.64
667.14	23707.29
667.28	23793.89
667.43	23494.30
667.57	23459.19
667.71	23597.28
667.85	23480.25
667.99	23400.68
668.13	23407.70
668.27	23817.29
668.41	23627.71
668.56	23391.31
668.70	23606.64
668.84	23412.38
668.98	23379.61
669.12	23796.23
669.26	23171.30
669.40	22836.61
669.54	23197.05
669.68	22955.97
669.82	22572.13
669.96	22963.00
670.10	22970.02
670.25	22689.15
670.39	22963.00
670.53	22906.82
670.67	22548.72
670.81	22778.09
670.95	22895.12
671.09	22775.75
671.23	22848.31
671.37	22682.13
671.51	22515.95
671.65	22876.40
671.79	22712.56
671.93	22560.42
672.07	22309.99
672.21	22412.97
672.35	22354.46
672.49	22494.89
672.63	22415.31
672.77	22043.17
672.91	22214.02
673.05	22270.20
673.19	21757.62
673.33	22024.44
673.47	22078.27
673.61	21806.77
673.75	22211.68
673.89	22136.79
674.03	22132.11
674.17	21881.67
674.31	21750.60
674.45	21837.20
674.59	21876.99
674.73	21961.25
674.87	21593.78
675.01	21509.52
675.15	21446.33
675.29	21483.78
675.43	21385.47
675.56	21528.25
675.70	21387.82
675.84	21465.05
675.98	20826.09
676.12	21275.47
676.26	21544.63
676.40	21640.59
676.54	21317.60
676.68	20945.45
676.82	20695.02
676.96	20903.32
677.10	20563.95
677.23	20620.12
677.37	20790.98
677.51	20725.44
677.65	20650.55
677.79	20652.89
677.93	20479.69
678.07	20666.93
678.21	20250.32
678.34	20166.06
678.48	20252.66
678.62	20421.17
678.76	20027.96
678.90	20266.70
679.04	20070.09
679.18	19857.10
679.31	19838.38
679.45	19920.30
679.59	19770.51
679.73	19674.54
679.87	19442.83
680.00	19410.06
680.14	19356.23
680.28	19604.33
680.42	19302.40
680.56	19426.45
680.70	19391.34
680.83	19358.57
680.97	19054.30
681.11	19503.68
681.25	19075.37
681.39	19103.45
681.52	18937.27
681.66	19105.79
681.80	18951.32
681.94	18991.11
682.07	18775.78
682.21	18890.46
682.35	18750.03
682.49	18581.51
682.62	18604.92
682.76	18623.64
682.90	18499.59
683.04	18530.02
683.17	18331.08
683.31	18310.01
683.45	18553.43
683.59	18251.50
683.72	17935.53
683.86	18045.53
684.00	18185.96
684.13	17998.72
684.27	17734.24
684.41	17771.69
684.55	17738.92
684.68	17668.70
684.82	17703.81
684.96	17944.89
685.09	17619.55
685.23	17441.67
685.37	17355.07
685.50	17511.89
685.64	17399.54
685.78	17626.57
685.91	17317.62
686.05	17525.93
686.19	17532.95
686.32	17135.06
686.46	17011.01
686.60	16833.13
686.73	17090.59
686.87	17380.82
687.01	16922.07
687.14	16800.37
687.28	16910.37
687.42	16673.98
687.55	16615.46
687.69	16610.78
687.82	16458.65
687.96	16435.24
688.10	16498.44
688.23	16369.71
688.37	16142.67
688.50	16428.22
688.64	16243.32
688.78	16245.66
688.91	15838.41
689.05	16395.45
689.18	16060.76
689.32	15822.02
689.46	15939.05
689.59	15995.22
689.73	15765.85
689.86	15712.02
690.00	15639.46
690.13	15782.23
690.27	15765.85
690.41	15510.73
690.54	15529.45
690.68	15742.44
690.81	15639.46
690.95	15396.04
691.08	15257.95
691.22	15232.21
691.35	15323.49
691.49	15140.93
691.62	15433.49
691.76	15096.46
691.89	14991.13
692.03	14745.38
692.16	14808.57
692.30	14604.94
692.43	14654.09
692.57	14623.67
692.70	14520.68
692.84	14675.16
692.97	14155.56
693.11	14635.37
693.24	14286.63
693.38	14476.21
693.51	14310.04
693.65	14401.32
693.78	14328.76
693.92	14305.35
694.05	14237.48
694.19	14122.79
694.32	13914.48
694.45	13811.50
694.59	13720.22
694.72	13802.14
694.86	13521.27
694.99	13745.97
695.13	13523.62
695.26	13504.89
695.39	13282.54
695.53	13582.13
695.66	13596.17
695.80	13598.51
695.93	13378.50
696.07	13277.86
696.20	13397.23
696.33	13441.70
696.47	13221.69
696.60	12882.31
696.73	13107.00
696.87	13041.46
697.00	12922.10
697.14	12805.07
697.27	12793.37
697.40	12556.97
697.54	12524.21
697.67	12484.42
697.80	12423.56
697.94	12435.27
698.07	12458.67
698.21	12400.16
698.34	12587.40
698.47	12575.70
698.61	12182.49
698.74	12264.41
698.87	12109.93
699.01	12191.85
699.14	12259.73
699.27	12070.14
699.40	12016.31
699.54	12109.93
699.67	12013.97
699.80	11831.41
699.94	11730.76
700.07	11901.62
700.20	11786.94
700.34	11634.80
700.47	11356.28
700.60	11632.46
700.73	11412.45
700.87	11529.48
701.00	11447.56
701.13	11473.31
701.26	11534.16
701.40	11496.71
701.53	11250.96
701.66	11421.81
701.79	10953.71
701.93	11082.44
702.06	10993.50
702.19	10883.49
702.32	10813.28
702.46	10820.30
702.59	10801.57
702.72	10736.04
702.85	10820.30
702.99	10546.45
703.12	10827.32
703.25	10555.82
703.38	10614.33
703.51	10623.69
703.65	10626.03
703.78	10516.03
703.91	10480.92
704.04	10382.62
704.17	10270.27
704.31	10382.62
704.44	10335.81
704.57	10171.97
704.70	10176.65
704.83	9973.02
704.96	9933.23
705.10	9879.40
705.23	9689.82
>>>>>End Processed Spectral Data<<<<<
