SpectraSuite Data File
++++++++++++++++++++++++++++++++++++
Date: Fri Oct 18 13:57:59 GMT-05:00 2013
User: bianchi
Dark Spectrum Present: No
Reference Spectrum Present: No
Number of Sampled Component Spectra: 1
Spectrometers: USB2+H05261
Integration Time (usec): 50000 (USB2+H05261)
Spectra Averaged: 1 (USB2+H05261)
Boxcar Smoothing: 0 (USB2+H05261)
Correct for Electrical Dark: No (USB2+H05261)
Strobe/Lamp Enabled: No (USB2+H05261)
Correct for Detector Non-linearity: No (USB2+H05261)
Correct for Stray Light: No (USB2+H05261)
Number of Pixels in Processed Spectrum: 2048
>>>>>Begin Processed Spectral Data<<<<<
365.73	0.00
365.92	0.00
366.12	0.00
366.32	0.00
366.52	0.00
366.72	0.00
366.91	0.00
367.11	0.00
367.31	0.00
367.51	0.00
367.70	0.00
367.90	0.00
368.10	0.00
368.30	0.00
368.49	0.00
368.69	0.00
368.89	0.00
369.09	0.00
369.28	0.00
369.48	0.00
369.68	0.00
369.87	0.00
370.07	0.00
370.27	0.00
370.47	0.00
370.66	107.66
370.86	63.19
371.06	152.13
371.25	231.71
371.45	138.09
371.65	133.41
371.84	117.03
372.04	156.82
372.24	180.22
372.44	196.60
372.63	180.22
372.83	205.97
373.03	128.73
373.22	163.84
373.42	198.95
373.62	220.01
373.81	196.60
374.01	194.26
374.21	276.18
374.40	231.71
374.60	271.50
374.79	243.42
374.99	297.25
375.19	243.42
375.38	205.97
375.58	224.69
375.78	304.27
375.97	285.55
376.17	311.29
376.37	252.78
376.56	245.76
376.76	236.39
376.95	238.73
377.15	306.61
377.35	241.08
377.54	215.33
377.74	227.03
377.93	315.97
378.13	243.42
378.33	208.31
378.52	250.44
378.72	313.63
378.91	283.20
379.11	283.20
379.31	273.84
379.50	297.25
379.70	304.27
379.89	306.61
380.09	358.10
380.28	360.44
380.48	360.44
380.68	297.25
380.87	306.61
381.07	330.02
381.26	330.02
381.46	311.29
381.65	337.04
381.85	292.57
382.04	276.18
382.24	325.33
382.43	297.25
382.63	292.57
382.83	315.97
383.02	346.40
383.22	416.62
383.41	334.70
383.61	381.51
383.80	411.93
384.00	407.25
384.19	407.25
384.39	449.38
384.58	358.10
384.78	437.68
384.97	416.62
385.17	437.68
385.36	381.51
385.56	451.72
385.75	315.97
385.95	386.19
386.14	428.32
386.34	362.78
386.53	433.00
386.72	411.93
386.92	519.60
387.11	411.93
387.31	442.36
387.50	390.87
387.70	360.44
387.89	409.59
388.09	447.04
388.28	425.98
388.48	381.51
388.67	395.55
388.86	475.13
389.06	397.89
389.25	505.56
389.45	500.87
389.64	507.90
389.84	526.62
390.03	463.43
390.22	514.92
390.42	470.45
390.61	421.30
390.81	463.43
391.00	491.51
391.19	447.04
391.39	514.92
391.58	550.03
391.78	517.26
391.97	482.15
392.16	524.28
392.36	559.39
392.55	519.60
392.75	589.82
392.94	505.56
393.13	528.96
393.33	540.66
393.52	603.86
393.71	645.99
393.91	557.05
394.10	545.34
394.29	594.50
394.49	559.39
394.68	564.07
394.88	592.16
395.07	528.96
395.26	528.96
395.46	528.96
395.65	676.41
395.84	763.01
396.04	664.71
396.23	587.47
396.42	674.07
396.62	575.77
396.81	669.39
397.00	709.18
397.19	669.39
397.39	643.65
397.58	627.26
397.77	671.73
397.97	732.59
398.16	774.72
398.35	760.67
398.55	709.18
398.74	676.41
398.93	795.78
399.12	704.50
399.32	737.27
399.51	725.57
399.70	821.53
399.90	788.76
400.09	805.14
400.28	713.86
400.47	795.78
400.67	798.12
400.86	730.25
401.05	772.38
401.24	863.66
401.44	833.23
401.63	866.00
401.82	894.08
402.01	875.36
402.21	821.53
402.40	851.96
402.59	926.85
402.78	894.08
402.97	800.46
403.17	882.38
403.36	880.04
403.55	889.40
403.74	945.58
403.93	945.58
404.13	884.72
404.32	971.32
404.51	884.72
404.70	961.96
404.89	997.07
405.09	971.32
405.28	983.02
405.47	1069.62
405.66	875.36
405.85	994.73
406.05	1025.15
406.24	1029.84
406.43	1025.15
406.62	997.07
406.81	1128.14
407.00	987.71
407.20	1067.28
407.39	1055.58
407.58	1027.50
407.77	1018.13
407.96	1107.07
408.15	1032.18
408.34	1123.46
408.54	1036.86
408.73	1067.28
408.92	1069.62
409.11	1118.78
409.30	1184.31
409.49	1186.65
409.68	1130.48
409.87	1226.44
410.07	1291.98
410.26	1214.74
410.45	1275.59
410.64	1270.91
410.83	1193.67
411.02	1207.72
411.21	1313.04
411.40	1252.19
411.59	1306.02
411.78	1308.36
411.98	1226.44
412.17	1373.89
412.36	1224.10
412.55	1338.79
412.74	1336.45
412.93	1324.74
413.12	1401.98
413.31	1401.98
413.50	1373.89
413.69	1488.58
413.88	1551.78
414.07	1563.48
414.26	1554.12
414.45	1462.83
414.64	1533.05
414.83	1568.16
415.02	1472.20
415.22	1526.03
415.41	1551.78
415.60	1549.43
415.79	1526.03
415.98	1633.69
416.17	1605.61
416.36	1591.56
416.55	1636.03
416.74	1706.25
416.93	1605.61
417.12	1638.38
417.31	1753.06
417.50	1781.15
417.69	1652.42
417.88	1795.19
418.07	1844.34
418.26	1809.23
418.45	1720.29
418.64	1933.28
418.83	1799.87
419.02	1816.26
419.21	1919.24
419.39	1809.23
419.58	1778.81
419.77	1991.80
419.96	1870.09
420.15	1902.86
420.34	1930.94
420.53	1944.99
420.72	1928.60
420.91	2001.16
421.10	2001.16
421.29	2015.20
421.48	1973.07
421.67	2026.90
421.86	2069.03
422.05	1980.09
422.24	1947.33
422.43	2064.35
422.61	2029.24
422.80	2012.86
422.99	2080.74
423.18	2045.63
423.37	2029.24
423.56	2078.40
423.75	2143.93
423.94	2036.27
424.13	1912.22
424.32	1895.83
424.50	2057.33
424.69	2111.16
424.88	2127.55
425.07	2033.93
425.26	2038.61
425.45	2097.12
425.64	2040.95
425.83	2003.50
426.01	2188.40
426.20	1996.48
426.39	2188.40
426.58	2062.01
426.77	2097.12
426.96	2136.91
427.15	2237.55
427.33	2136.91
427.52	2118.18
427.71	2235.21
427.90	2321.81
428.09	2270.32
428.28	2235.21
428.46	2155.63
428.65	2277.34
428.84	2211.81
429.03	2298.41
429.22	2298.41
429.40	2340.54
429.59	2368.62
429.78	2200.10
429.97	2263.30
430.16	2279.68
430.34	2314.79
430.53	2361.60
430.72	2342.88
430.91	2385.01
431.10	2385.01
431.28	2399.05
431.47	2441.18
431.66	2417.77
431.85	2333.51
432.03	2455.22
432.22	2401.39
432.41	2415.43
432.60	2558.21
432.79	2490.33
432.97	2487.99
433.16	2516.08
433.35	2483.31
433.54	2595.65
433.72	2450.54
433.91	2551.18
434.10	2583.95
434.28	2499.69
434.47	2649.49
434.66	2698.64
434.85	2689.28
435.03	2745.45
435.22	2640.12
435.41	2813.32
435.59	2658.85
435.78	2785.24
435.97	2675.23
436.16	2677.57
436.34	2733.75
436.53	2757.15
436.72	2766.51
436.90	2691.62
437.09	2818.00
437.28	2663.53
437.46	2752.47
437.65	2848.43
437.84	2829.71
438.02	2850.77
438.21	2857.79
438.40	2787.58
438.58	2867.16
438.77	2993.55
438.96	2925.67
439.14	2974.82
439.33	2991.20
439.52	2899.92
439.70	3080.14
439.89	3068.44
440.08	3056.74
440.26	3110.57
440.45	3077.80
440.63	3148.02
440.82	3159.72
441.01	3133.98
441.19	3159.72
441.38	3138.66
441.57	3176.11
441.75	3300.16
441.94	3346.97
442.12	3365.69
442.31	3391.44
442.50	3330.58
442.68	3393.78
442.87	3417.18
443.05	3433.57
443.24	3375.05
443.43	3295.47
443.61	3473.36
443.80	3590.38
443.98	3361.01
444.17	3325.90
444.35	3452.29
444.54	3449.95
444.73	3501.44
444.91	3517.83
445.10	3562.30
445.28	3510.80
445.47	3487.40
445.65	3396.12
445.84	3581.02
446.02	3625.49
446.21	3459.31
446.39	3499.10
446.58	3508.46
446.77	3438.25
446.95	3501.44
447.14	3644.21
447.32	3627.83
447.51	3517.83
447.69	3407.82
447.88	3609.11
448.06	3534.21
448.25	3475.70
448.43	3667.62
448.62	3604.42
448.80	3595.06
448.99	3597.40
449.17	3702.73
449.36	3676.98
449.54	3552.93
449.73	3747.20
449.91	3749.54
450.10	3695.71
450.28	3995.29
450.46	3737.84
450.65	3899.33
450.83	3810.39
451.02	3775.28
451.20	4014.02
451.39	3913.38
451.57	3899.33
451.76	3896.99
451.94	3953.16
452.13	3836.14
452.31	3950.82
452.49	3918.06
452.68	3871.25
452.86	3976.57
453.05	3957.85
453.23	3941.46
453.42	3985.93
453.60	4065.51
453.78	4009.34
453.97	3950.82
454.15	4042.11
454.34	3857.20
454.52	4049.13
454.70	4212.96
454.89	4126.36
455.07	4032.74
455.26	4138.07
455.44	4266.80
455.62	4163.81
455.81	4079.55
455.99	4191.90
456.17	4114.66
456.36	4248.07
456.54	4257.43
456.73	4259.78
456.91	4510.21
457.09	4528.94
457.28	4346.37
457.46	4498.51
457.64	4493.83
457.83	4428.29
458.01	4306.59
458.19	4421.27
458.38	4386.16
458.56	4681.07
458.74	4617.88
458.93	4526.60
459.11	4479.79
459.29	4512.55
459.48	4573.41
459.66	4606.17
459.84	4615.54
460.03	4564.04
460.21	4720.86
460.39	4706.82
460.57	4664.69
460.76	4657.67
460.94	4791.08
461.12	4760.65
461.31	4770.01
461.49	4638.94
461.67	4657.67
461.85	4821.50
462.04	4706.82
462.22	4966.62
462.40	4816.82
462.59	4887.04
462.77	4980.66
462.95	5001.72
463.13	5011.09
463.32	4830.87
463.50	4898.74
463.68	5001.72
463.86	4912.78
464.05	4877.68
464.23	5076.62
464.41	5034.49
464.59	4873.00
464.78	5057.90
464.96	4997.04
465.14	4873.00
465.32	5001.72
465.50	5046.20
465.69	5231.10
465.87	5053.22
466.05	5062.58
466.23	5053.22
466.41	5114.07
466.60	5448.77
466.78	5135.14
466.96	5249.82
467.14	4938.53
467.32	5348.12
467.51	5355.15
467.69	5151.52
467.87	5249.82
468.05	5228.76
468.23	5289.61
468.41	5331.74
468.60	5282.59
468.78	5207.69
468.96	5186.63
469.14	5495.58
469.32	5434.72
469.50	5298.97
469.69	5430.04
469.87	5652.39
470.05	5715.59
470.23	5441.75
470.41	5467.49
470.59	5738.99
470.77	5577.50
470.95	5547.07
471.14	5624.31
471.32	5493.24
471.50	5617.29
471.68	5689.84
471.86	5659.42
472.04	5724.95
472.22	5963.68
472.40	5657.07
472.58	5776.44
472.77	5832.62
472.95	5856.02
473.13	6003.47
473.31	5865.38
473.49	5977.73
473.67	5809.21
473.85	6066.67
474.03	5937.94
474.21	6090.07
474.39	6214.12
474.57	6106.46
474.75	6244.55
474.93	6186.04
475.12	6104.12
475.30	6462.22
475.48	6310.08
475.66	6366.26
475.84	6174.33
476.02	6518.39
476.20	6541.80
476.38	6502.01
476.56	6569.88
476.74	6586.27
476.92	6644.78
477.10	6644.78
477.28	6736.06
477.46	6897.56
477.64	6878.83
477.82	6860.11
478.00	7206.51
478.18	7159.70
478.36	7126.93
478.54	7014.59
478.72	7108.21
478.90	7421.84
479.08	7236.94
479.26	7391.41
479.44	7543.55
479.62	7583.34
479.80	7566.95
479.98	7644.19
480.16	7868.88
480.34	7693.34
480.52	7793.98
480.70	7763.56
480.88	7999.95
481.06	7840.79
481.24	7847.82
481.41	7941.44
481.59	8173.15
481.77	8212.94
481.95	8280.82
482.13	8327.63
482.31	8133.36
482.49	8430.61
482.67	8348.69
482.85	8369.76
483.03	8589.77
483.21	8828.50
483.39	8835.52
483.57	8692.75
483.74	8863.61
483.92	8847.22
484.10	8964.25
484.28	9174.90
484.46	9224.05
484.64	9462.79
484.82	9238.09
485.00	9380.87
485.18	9619.60
485.35	9640.67
485.53	9504.92
485.71	9736.63
485.89	9841.95
486.07	9661.73
486.25	9783.44
486.43	9886.42
486.61	9865.36
486.78	10265.59
486.96	10314.74
487.14	10441.13
487.32	10434.11
487.50	10265.59
487.68	10693.91
487.85	10789.87
488.03	10619.01
488.21	10836.68
488.39	10789.87
488.57	10841.36
488.75	10761.78
488.92	11122.23
489.10	11147.97
489.28	10911.58
489.46	11342.24
489.64	11180.74
489.81	11552.88
489.99	11548.20
490.17	11716.72
490.35	11740.13
490.53	11789.28
490.70	11733.11
490.88	11875.88
491.06	12058.44
491.24	11918.01
491.41	11990.56
491.59	12215.26
491.77	12334.62
491.95	12423.56
492.13	12423.56
492.30	12751.24
492.48	12610.81
492.66	12528.89
492.84	12753.58
493.01	12505.48
493.19	13022.74
493.37	12929.12
493.54	13130.41
493.72	13020.40
493.90	12929.12
494.08	13312.97
494.25	13139.77
494.43	13385.52
494.61	13612.56
494.79	13767.03
494.96	13586.81
495.14	13771.71
495.32	13893.42
495.49	13771.71
495.67	13767.03
495.85	13973.00
496.02	14033.85
496.20	14384.93
496.38	14003.43
496.55	14303.01
496.73	14384.93
496.91	14214.07
497.09	14586.22
497.26	14436.42
497.44	14637.71
497.62	14644.73
497.79	15178.37
497.97	14822.61
498.14	15147.95
498.32	15035.60
498.50	14839.00
498.67	15342.21
498.85	15267.31
499.03	15449.88
499.20	15272.00
499.38	15328.17
499.56	15433.49
499.73	15494.35
499.91	15784.57
500.08	15822.02
500.26	15452.22
500.44	15906.28
500.61	16049.05
500.79	15976.50
500.97	16013.95
501.14	16240.98
501.32	16196.51
501.49	16257.36
501.67	16182.46
501.84	16322.90
502.02	16517.16
502.20	16465.67
502.37	16893.99
502.55	16542.91
502.72	16613.12
502.90	16879.94
503.07	16580.36
503.25	16489.07
503.43	16720.79
503.60	16889.31
503.78	17088.25
503.95	16891.65
504.13	16893.99
504.30	16711.42
504.48	16985.27
504.65	17121.02
504.83	17212.30
505.01	17539.97
505.18	17483.80
505.36	17385.50
505.53	17518.91
505.71	17465.08
505.88	17638.28
506.06	17364.43
506.23	17893.40
506.41	17458.06
506.58	18008.08
506.76	17921.48
506.93	17926.16
507.11	17806.80
507.28	17907.44
507.46	17757.64
507.63	17937.87
507.81	18370.86
507.98	18071.28
508.16	18092.34
508.33	18200.01
508.50	18333.42
508.68	18405.97
508.85	18644.71
509.03	18537.04
509.20	18492.57
509.38	18654.07
509.55	18916.21
509.73	18761.73
509.90	18972.38
510.08	18829.61
510.25	18487.89
510.42	19164.31
510.60	18970.04
510.77	18951.32
510.95	19227.50
511.12	19206.44
511.30	19012.17
511.47	19426.45
511.64	19604.33
511.82	19536.45
511.99	19522.41
512.17	19454.53
512.34	19445.17
512.51	19524.75
512.69	19524.75
512.86	19522.41
513.04	19964.77
513.21	19742.42
513.38	19798.59
513.56	20128.61
513.73	19889.87
513.90	19992.86
514.08	19838.38
514.25	20245.63
514.43	20233.93
514.60	20336.91
514.77	20514.80
514.95	20166.06
515.12	20334.57
515.29	20400.11
515.47	20322.87
515.64	20659.91
515.81	20264.36
515.99	20652.89
516.16	20688.00
516.33	20673.95
516.51	20978.22
516.68	20849.49
516.85	20779.28
517.03	21170.15
517.20	21057.80
517.37	20912.69
517.54	21039.08
517.72	21284.83
517.89	21013.33
518.06	21326.96
518.24	21268.45
518.41	20893.96
518.58	21373.77
518.75	21357.39
518.93	21216.96
519.10	21488.46
519.27	21453.35
519.45	21792.73
519.62	21661.66
519.79	21329.30
519.96	21523.57
520.14	21963.59
520.31	21586.76
520.48	21848.90
520.65	22080.61
520.83	21867.63
521.00	22291.26
521.17	21886.35
521.34	21998.70
521.52	22155.51
521.69	21858.26
521.86	22473.82
522.03	22331.05
522.20	22216.36
522.38	22551.06
522.55	22466.80
522.72	22232.75
522.89	22419.99
523.07	22747.67
523.24	22740.64
523.41	22899.80
523.58	22742.99
523.75	22759.37
523.92	22438.72
524.10	22565.10
524.27	23054.28
524.44	22792.14
524.61	23101.09
524.78	23070.66
524.96	22775.75
525.13	23058.96
525.30	23295.35
525.47	23314.08
525.64	23000.44
525.81	23353.87
525.98	23786.86
526.16	23246.20
526.33	23325.78
526.50	23866.44
526.67	22600.21
526.84	23473.23
527.01	23417.06
527.18	23552.81
527.36	23924.96
527.53	23772.82
527.70	23950.70
527.87	23632.39
528.04	23789.20
528.21	23807.93
528.38	23531.75
528.55	23873.46
528.72	23714.31
528.89	24070.07
529.07	23948.36
529.24	23929.64
529.41	23917.93
529.58	24201.14
529.75	23608.98
529.92	24137.94
530.09	24168.37
530.26	24194.12
530.43	24610.73
530.60	24187.10
530.77	24444.56
530.94	24133.26
531.11	24039.64
531.28	24477.32
531.46	24634.14
531.63	24322.85
531.80	24404.77
531.97	24709.04
532.14	24734.78
532.31	24603.71
532.48	24643.50
532.65	24961.81
532.82	24641.16
532.99	24924.36
533.16	24947.77
533.33	25053.09
533.50	25001.60
533.67	25216.93
533.84	24907.98
534.01	25034.37
534.18	24762.87
534.35	25249.70
534.52	25273.10
534.69	25130.33
534.86	25427.58
535.03	25165.44
535.20	25628.87
535.37	25102.25
535.54	25472.05
535.71	25357.36
535.88	25230.98
536.05	25249.70
536.22	25429.92
536.38	25472.05
536.55	25612.48
536.72	25528.22
536.89	25614.82
537.06	25619.50
537.23	25729.51
537.40	25504.82
537.57	25551.63
537.74	25795.04
537.91	26396.56
538.08	26230.38
538.25	25949.52
538.42	26052.50
538.59	25968.24
538.75	25781.00
538.92	25790.36
539.09	26031.44
539.26	25795.04
539.43	26087.61
539.60	25947.18
539.77	26001.01
539.94	26548.70
540.11	26532.31
540.28	26228.04
540.44	26368.48
540.61	26253.79
540.78	26586.15
540.95	26232.72
541.12	26080.59
541.29	26316.98
541.46	26405.92
541.62	26415.29
541.79	26366.13
541.96	25837.17
542.13	26508.91
542.30	26754.66
542.47	26731.26
542.63	26480.82
542.80	26616.57
542.97	27194.68
543.14	26731.26
543.31	26808.50
543.48	26691.47
543.64	27426.40
543.81	27349.16
543.98	26838.92
544.15	27232.13
544.32	27297.67
544.48	27264.90
544.65	27140.85
544.82	27297.67
544.99	27234.47
545.16	27157.24
545.32	27019.14
545.49	27417.04
545.66	27751.73
545.83	27529.38
546.00	27634.71
546.16	27505.98
546.33	27115.11
546.50	27405.33
546.67	27459.16
546.83	27035.53
547.00	27676.83
547.17	27494.27
547.34	27424.06
547.50	27803.22
547.67	27887.48
547.84	27812.59
548.00	27454.48
548.17	28091.11
548.34	27892.16
548.51	28203.46
548.67	28166.01
548.84	27807.90
549.01	28013.87
549.18	27821.95
549.34	28030.26
549.51	27681.52
549.68	27477.89
549.84	27765.78
550.01	28264.31
550.18	28044.30
550.34	27948.34
550.51	27995.15
550.68	28318.14
550.84	27821.95
551.01	28238.56
551.18	28088.77
551.34	27725.99
551.51	27962.38
551.68	28229.20
551.84	28421.13
552.01	28496.02
552.18	28608.37
552.34	28170.69
552.51	28067.70
552.68	28503.04
552.84	28245.58
553.01	28795.61
553.18	28533.47
553.34	28416.44
553.51	28271.33
553.67	28716.03
553.84	29008.60
554.01	28849.44
554.17	28379.00
554.34	28723.05
554.51	29120.95
554.67	28587.30
554.84	28676.24
555.00	29177.12
555.17	28746.46
555.33	29125.63
555.50	29001.58
555.67	28542.83
555.83	28891.57
556.00	28751.14
556.16	28863.49
556.33	29050.73
556.50	29151.37
556.66	29261.38
556.83	29113.92
556.99	29273.08
557.16	29149.03
557.32	29113.92
557.49	29455.64
557.65	29050.73
557.82	28964.13
557.98	28975.83
558.15	29010.94
558.32	29120.95
558.48	29275.42
558.65	29219.25
558.81	29474.37
558.98	29104.56
559.14	29163.08
559.31	29170.10
559.47	29333.93
559.64	29237.97
559.80	29413.51
559.97	29605.44
560.13	29553.94
560.30	29369.04
560.46	29750.55
560.63	29277.76
560.79	29305.85
560.96	29619.48
561.12	29612.46
561.29	29745.87
561.45	29387.77
561.61	29633.52
561.78	29558.63
561.94	29708.42
562.11	29907.37
562.27	29706.08
562.44	29273.08
562.60	29874.60
562.77	29916.73
562.93	29474.37
563.10	29830.13
563.26	29769.27
563.42	29769.27
563.59	29577.35
563.75	29769.27
563.92	29668.63
564.08	29551.60
564.24	29993.97
564.41	29766.93
564.57	29879.28
564.74	30052.48
564.90	30106.31
565.07	29902.68
565.23	29837.15
565.39	29968.22
565.56	30717.19
565.72	29820.77
565.88	30075.88
566.05	29855.87
566.21	29883.96
566.38	29895.66
566.54	29832.47
566.70	30298.23
566.87	30178.87
567.03	29996.31
567.19	30143.76
567.36	29825.45
567.52	30333.34
567.68	30022.05
567.85	30078.22
568.01	30356.75
568.17	30244.40
568.34	30033.75
568.50	30281.85
568.66	30548.67
568.83	30384.83
568.99	29677.99
569.15	30118.01
569.32	29979.92
569.48	30029.07
569.64	30361.43
569.81	30469.09
569.97	30356.75
570.13	30572.08
570.30	29914.39
570.46	30513.56
570.62	30256.11
570.78	30129.72
570.95	30068.86
571.11	30171.85
571.27	30443.35
571.43	30246.74
571.60	30235.04
571.76	30162.48
571.92	30338.02
572.09	30595.48
572.25	30223.34
572.41	30129.72
572.57	30522.93
572.74	30307.60
572.90	30209.29
573.06	30452.71
573.22	30445.69
573.38	30834.22
573.55	30410.58
573.71	30426.96
573.87	30778.04
574.03	30216.32
574.20	30139.08
574.36	30377.81
574.52	30188.23
574.68	30405.90
574.84	30382.49
575.01	30433.99
575.17	30349.73
575.33	30581.44
575.49	30572.08
575.65	30448.03
575.82	30672.72
575.98	30670.38
576.14	30328.66
576.30	30658.68
576.46	30384.83
576.62	30338.02
576.79	30326.32
576.95	30368.45
577.11	30590.80
577.27	30824.86
577.43	30820.17
577.59	30377.81
577.75	30490.16
577.92	30298.23
578.08	30541.65
578.24	30462.07
578.40	30597.82
578.56	30483.14
578.72	30911.46
578.88	30607.19
579.04	30689.10
579.21	30522.93
579.37	30305.26
579.53	30541.65
579.69	30176.53
579.85	30682.08
580.01	30396.54
580.17	30558.03
580.33	30539.31
580.49	30443.35
580.65	30852.94
580.82	30703.15
580.98	30817.83
581.14	30457.39
581.30	30937.20
581.46	30555.69
581.62	30838.90
581.78	30628.25
581.94	30721.87
582.10	30326.32
582.26	30373.13
582.42	30874.01
582.58	30646.97
582.74	30429.30
582.90	30398.88
583.06	30782.73
583.22	30581.44
583.38	30518.25
583.54	30684.42
583.70	30834.22
583.86	30548.67
584.02	30347.39
584.18	31054.23
584.34	30953.58
584.50	31281.26
584.66	30604.84
584.82	31033.16
584.98	31026.14
585.14	30534.63
585.30	30546.33
585.46	30543.99
585.62	30429.30
585.78	30609.53
585.94	30401.22
586.10	31077.63
586.26	30806.13
586.42	31101.04
586.58	30934.86
586.74	30543.99
586.90	30457.39
587.06	30478.46
587.22	30806.13
587.38	31087.00
587.54	31143.17
587.70	31129.12
587.86	30944.22
588.02	31136.15
588.18	30824.86
588.34	31232.11
588.49	30986.35
588.65	30731.23
588.81	31185.30
588.97	30850.60
589.13	31096.36
589.29	30717.19
589.45	31157.21
589.61	31199.34
589.77	31140.83
589.93	31145.51
590.08	31094.02
590.24	31307.01
590.40	31150.19
590.56	31309.35
590.72	30541.65
590.88	30768.68
591.04	30981.67
591.20	31248.49
591.35	31133.81
591.51	31608.93
591.67	31487.23
591.83	31365.52
591.99	31402.97
592.15	31388.92
592.31	31133.81
592.46	31150.19
592.62	31421.69
592.78	31079.97
592.94	31054.23
593.10	31370.20
593.26	31337.43
593.41	31473.18
593.57	31269.56
593.73	31419.35
593.89	31281.26
594.05	31353.82
594.20	30911.46
594.36	31077.63
594.52	31335.09
594.68	31225.09
594.84	31328.07
594.99	31714.26
595.15	31438.08
595.31	31608.93
595.47	31576.17
595.62	31152.53
595.78	31435.74
595.94	31290.62
596.10	31049.55
596.25	30817.83
596.41	30876.35
596.57	31091.68
596.73	31367.86
596.88	31145.51
597.04	31487.23
597.20	31356.16
597.36	31215.72
597.51	31538.72
597.67	31307.01
597.83	31103.38
597.99	31395.95
598.14	31152.53
598.30	31140.83
598.46	31494.25
598.61	31363.18
598.77	31475.52
598.93	31718.94
599.09	31498.93
599.24	31737.66
599.40	31868.73
599.56	31321.05
599.71	31332.75
599.87	31672.13
600.03	31307.01
600.18	31248.49
600.34	31143.17
600.50	31070.61
600.65	31608.93
600.81	31271.90
600.97	31414.67
601.12	31517.65
601.28	31714.26
601.44	31372.54
601.59	31552.76
601.75	31580.85
601.91	31335.09
602.06	31218.07
602.22	31426.37
602.37	31248.49
602.53	31220.41
602.69	31688.51
602.84	31828.95
603.00	31555.10
603.16	31749.37
603.31	31360.84
603.47	31311.69
603.62	31669.79
603.78	31417.01
603.94	31365.52
604.09	31061.25
604.25	31391.26
604.40	30960.61
604.56	31154.87
604.71	31758.73
604.87	31276.58
605.03	31512.97
605.18	31501.27
605.34	31456.80
605.49	31112.74
605.65	31168.91
605.80	31395.95
605.96	31447.44
606.12	31040.18
606.27	31405.31
606.43	30827.20
606.58	31491.91
606.74	31538.72
606.89	31440.42
607.05	31576.17
607.20	31810.22
607.36	31473.18
607.51	31047.21
607.67	31321.05
607.82	30684.42
607.98	31346.79
608.13	31171.25
608.29	31243.81
608.44	31213.38
608.60	31117.42
608.75	31508.29
608.91	31325.73
609.06	31299.98
609.22	31168.91
609.37	31442.76
609.53	31239.13
609.68	31009.76
609.84	31206.36
609.99	31318.71
610.15	31014.44
610.30	31269.56
610.46	30852.94
610.61	31021.46
610.76	31356.16
610.92	31494.25
611.07	30764.00
611.23	30628.25
611.38	31072.95
611.54	30815.49
611.69	30525.27
611.84	30972.31
612.00	30597.82
612.15	30923.16
612.31	31143.17
612.46	30747.62
612.62	31227.43
612.77	30813.15
612.92	31028.48
613.08	30843.58
613.23	31138.49
613.39	30721.87
613.54	30618.89
613.69	30932.52
613.85	30988.69
614.00	31171.25
614.15	30972.31
614.31	30962.95
614.46	31241.47
614.62	30866.98
614.77	30888.05
614.92	31033.16
615.08	30426.96
615.23	30668.04
615.38	30902.09
615.54	30822.51
615.69	30642.29
615.84	30724.21
616.00	30487.82
616.15	30663.36
616.30	31328.07
616.46	30745.28
616.61	30520.59
616.76	31014.44
616.92	30852.94
617.07	30551.01
617.22	30745.28
617.37	30483.14
617.53	30466.75
617.68	30555.69
617.83	30625.91
617.99	30562.72
618.14	30443.35
618.29	30347.39
618.45	30728.89
618.60	30567.40
618.75	30263.13
618.90	30410.58
619.06	30511.22
619.21	30246.74
619.36	30176.53
619.51	30153.12
619.67	29759.91
619.82	30106.31
619.97	30202.27
620.12	30195.25
620.28	30221.00
620.43	30094.61
620.58	30270.15
620.73	30141.42
620.89	30204.61
621.04	30415.26
621.19	30132.06
621.34	30419.94
621.49	30288.87
621.65	29886.30
621.80	30382.49
621.95	30403.56
622.10	30099.29
622.25	29804.38
622.41	30396.54
622.56	29759.91
622.71	30323.98
622.86	30047.80
623.01	30579.10
623.16	29834.81
623.32	29514.16
623.47	29970.56
623.62	29832.47
623.77	30195.25
623.92	29923.75
624.07	29514.16
624.23	29811.40
624.38	29970.56
624.53	29935.45
624.68	29759.91
624.83	30024.39
624.98	30125.04
625.13	29797.36
625.29	29750.55
625.44	29827.79
625.59	29631.18
625.74	29546.92
625.89	29675.65
626.04	29200.52
626.19	29635.86
626.34	29542.24
626.49	29305.85
626.65	29399.47
626.80	29670.97
626.95	29535.22
627.10	29495.43
627.25	29476.71
627.40	29565.65
627.55	29343.30
627.70	29380.74
627.85	29455.64
628.00	29427.56
628.15	29511.81
628.30	29322.23
628.45	29282.44
628.60	29207.55
628.76	29376.06
628.91	29347.98
629.06	29205.20
629.21	29071.79
629.36	29113.92
629.51	28912.64
629.66	28973.49
629.81	28856.46
629.96	29216.91
630.11	28861.15
630.26	29048.39
630.41	28943.06
630.56	28851.78
630.71	29125.63
630.86	29029.66
631.01	29305.85
631.16	29104.56
631.31	29230.95
631.46	29053.07
631.61	28868.17
631.76	28875.19
631.91	29230.95
632.06	29170.10
632.21	28800.29
632.36	29076.48
632.51	28290.06
632.66	28917.32
632.81	28669.22
632.96	28716.03
633.10	28727.74
633.25	28896.25
633.40	28582.62
633.55	28875.19
633.70	28425.81
633.85	28582.62
634.00	28407.08
634.15	28545.17
634.30	28388.36
634.45	28474.96
634.60	28194.09
634.75	28388.36
634.90	28634.11
635.05	28716.03
635.19	28503.04
635.34	28446.87
635.49	28613.05
635.64	28659.86
635.79	28376.66
635.94	28428.15
636.09	28673.90
636.24	28339.21
636.39	28243.24
636.53	28315.80
636.68	27866.42
636.83	28261.97
636.98	28278.35
637.13	28709.01
637.28	28521.77
637.43	28486.66
637.57	28128.56
637.72	28091.11
637.87	28531.13
638.02	28091.11
638.17	28088.77
638.32	28100.47
638.46	28205.80
638.61	27924.93
638.76	28116.86
638.91	27875.78
639.06	27901.53
639.20	27971.74
639.35	28060.68
639.50	28191.75
639.65	28271.33
639.80	28222.18
639.94	28175.37
640.09	28147.28
640.24	28133.24
640.39	28025.57
640.54	28196.43
640.68	27667.47
640.83	27779.82
640.98	27644.07
641.13	27311.71
641.27	27964.72
641.42	28063.02
641.57	27903.87
641.72	27960.04
641.86	27358.52
642.01	27386.61
642.16	27929.61
642.31	27716.62
642.45	27831.31
642.60	27463.85
642.75	27391.29
642.90	27360.86
643.04	27424.06
643.19	27487.25
643.34	27421.72
643.48	27384.27
643.63	27517.68
643.78	27505.98
643.93	27878.12
644.07	27300.01
644.22	27613.64
644.37	27625.34
644.51	27508.32
644.66	27283.62
644.81	27047.23
644.95	27431.08
645.10	27147.87
645.25	27524.70
645.39	27271.92
645.54	27410.01
645.69	27325.75
645.83	27253.20
645.98	27243.84
646.13	27274.26
646.27	27180.64
646.42	27428.74
646.57	27197.02
646.71	26991.06
646.86	27260.22
647.00	27152.55
647.15	27026.17
647.30	27412.35
647.44	26808.50
647.59	27028.51
647.74	27229.79
647.88	27098.72
648.03	27124.47
648.17	27229.79
648.32	27515.34
648.47	27199.37
648.61	27178.30
648.76	27182.98
648.90	27119.79
649.05	26829.56
649.20	26637.64
649.34	27044.89
649.49	26859.99
649.63	26892.76
649.78	26651.68
649.92	26661.04
650.07	26551.04
650.21	27016.80
650.36	26965.31
650.51	26623.59
650.65	26602.53
650.80	27044.89
650.94	26394.22
651.09	26913.82
651.23	26621.25
651.38	26991.06
651.52	26611.89
651.67	26625.93
651.81	26480.82
651.96	26583.80
652.10	26565.08
652.25	26349.75
652.39	26628.27
652.54	26984.04
652.68	26345.07
652.83	26766.37
652.97	26623.59
653.12	26305.28
653.26	26068.89
653.41	26141.44
653.55	26230.38
653.70	26094.63
653.84	26396.56
653.99	26127.40
654.13	25996.33
654.27	26143.78
654.42	26328.69
654.56	26043.14
654.71	26579.12
654.85	26384.86
655.00	26340.39
655.14	26338.05
655.29	26038.46
655.43	26286.56
655.57	25998.67
655.72	26127.40
655.86	26204.64
656.01	25993.99
656.15	26008.03
656.30	26288.90
656.44	25851.22
656.58	25862.92
656.73	25792.70
656.87	26160.17
657.01	25914.41
657.16	26539.33
657.30	26249.11
657.45	25806.75
657.59	25703.76
657.73	25776.32
657.88	26036.12
658.02	25610.14
658.16	25867.60
658.31	25460.35
658.45	25502.48
658.60	25453.33
658.74	25617.16
658.88	25518.86
659.03	25656.95
659.17	25703.76
659.31	25401.83
659.46	25350.34
659.60	25418.22
659.74	25799.73
659.89	25249.70
660.03	25460.35
660.17	25586.74
660.32	25326.94
660.46	25289.49
660.60	25490.77
660.74	25003.94
660.89	25235.66
661.03	24856.49
661.17	24982.88
661.32	25223.95
661.46	24982.88
661.60	25097.56
661.74	25113.95
661.89	25289.49
662.03	25343.32
662.17	25083.52
662.31	24793.29
662.46	24809.68
662.60	24950.11
662.74	25165.44
662.88	24699.67
663.03	24702.01
663.17	24613.07
663.31	24278.38
663.45	24526.47
663.60	24624.78
663.74	24594.35
663.88	24510.09
664.02	24126.24
664.17	24940.75
664.31	24870.53
664.45	24556.90
664.59	24271.36
664.73	24343.91
664.88	24552.22
665.02	23733.03
665.16	24271.36
665.30	24161.35
665.44	24278.38
665.59	23999.85
665.73	24217.52
665.87	23857.08
666.01	24203.48
666.15	24077.09
666.29	24287.74
666.44	24051.34
666.58	23840.70
666.72	23964.75
666.86	24058.37
667.00	23948.36
667.14	24189.44
667.28	23889.85
667.43	24147.31
667.57	23927.30
667.71	23718.99
667.85	23997.51
667.99	23576.22
668.13	23847.72
668.27	23503.66
668.41	23552.81
668.56	23325.78
668.70	24023.26
668.84	23665.16
668.98	23580.90
669.12	23438.12
669.26	23903.89
669.40	23157.26
669.54	23234.50
669.68	23183.01
669.82	23435.78
669.96	23037.89
670.10	23012.15
670.25	23220.45
670.39	23061.30
670.53	22689.15
670.67	22759.37
670.81	23080.02
670.95	22927.89
671.09	23096.41
671.23	23068.32
671.37	23180.67
671.51	22904.48
671.65	23073.00
671.79	22696.17
671.93	22490.21
672.07	22614.26
672.21	22185.94
672.35	22668.09
672.49	22558.08
672.63	22333.39
672.77	22562.76
672.91	22183.60
673.05	22576.81
673.19	22286.58
673.33	22361.48
673.47	22246.79
673.61	22225.73
673.75	22197.64
673.89	22288.92
674.03	21926.14
674.17	21970.61
674.31	22113.38
674.45	21823.16
674.59	21961.25
674.73	21778.68
674.87	21743.58
675.01	21642.93
675.15	21724.85
675.29	21275.47
675.43	21458.03
675.56	21965.93
675.70	21614.85
675.84	21720.17
675.98	21081.21
676.12	21628.89
676.26	21797.41
676.40	21366.75
676.54	21413.56
676.68	21516.54
676.82	21076.52
676.96	21195.89
677.10	21067.16
677.23	21219.30
677.37	20774.60
677.51	20519.48
677.65	20666.93
677.79	20606.08
677.93	20793.32
678.07	20559.27
678.21	20613.10
678.34	20608.42
678.48	20444.58
678.62	20617.78
678.76	20191.80
678.90	20184.78
679.04	20257.34
679.18	20369.68
679.31	20091.16
679.45	19789.23
679.59	19800.93
679.73	19805.61
679.87	19583.26
680.00	19871.15
680.14	19765.82
680.28	19697.95
680.42	19641.78
680.56	20074.77
680.70	19812.63
680.83	19747.10
680.97	19440.49
681.11	19316.44
681.25	19283.67
681.39	19393.68
681.52	19091.75
681.66	19323.46
681.80	18897.49
681.94	18981.74
682.07	19066.00
682.21	18864.72
682.35	18602.58
682.49	18775.78
682.62	18595.56
682.76	18595.56
682.90	18724.29
683.04	18628.32
683.17	18714.92
683.31	18686.84
683.45	18661.09
683.59	18085.32
683.72	18649.39
683.86	18630.66
684.00	17998.72
684.13	18108.72
684.27	17912.12
684.41	18024.47
684.55	17778.71
684.68	17853.61
684.82	17811.48
684.96	17722.54
685.09	17696.79
685.23	17387.84
685.37	17376.14
685.50	17886.37
685.64	17806.80
685.78	17685.09
685.91	17729.56
686.05	17376.14
686.19	17427.63
686.32	17600.83
686.46	17092.93
686.60	17280.18
686.73	17242.73
686.87	17029.74
687.01	17013.35
687.14	16725.47
687.28	16783.98
687.42	16528.86
687.55	16561.63
687.69	16905.69
687.82	16573.33
687.96	16830.79
688.10	16762.92
688.23	16446.94
688.37	16465.67
688.50	16343.96
688.64	16348.64
688.78	16226.93
688.91	16582.70
689.05	16269.06
689.18	16011.60
689.32	15875.85
689.46	15847.77
689.59	15995.22
689.73	15988.20
689.86	15878.19
690.00	15833.72
690.13	15997.56
690.27	15566.90
690.41	15899.26
690.54	15693.29
690.68	15683.93
690.81	15908.62
690.95	15482.64
691.08	15515.41
691.22	15440.51
691.35	15433.49
691.49	15257.95
691.62	15318.81
691.76	15208.80
691.89	14923.26
692.03	15035.60
692.16	14789.85
692.30	14789.85
692.43	14658.78
692.57	14806.23
692.70	14518.34
692.84	14583.88
692.97	14541.75
693.11	14286.63
693.24	14431.74
693.38	14567.49
693.51	14420.04
693.65	14448.13
693.78	14633.03
693.92	14527.71
694.05	14036.19
694.19	14277.27
694.32	13968.32
694.45	14073.64
694.59	13792.78
694.72	13736.60
694.86	13825.54
694.99	13404.25
695.13	13689.79
695.26	13619.58
695.39	13731.92
695.53	13610.22
695.66	13453.40
695.80	13628.94
695.93	13561.06
696.07	13371.48
696.20	13453.40
696.33	13476.80
696.47	13348.08
696.60	13270.84
696.73	13036.78
696.87	13212.32
697.00	13254.45
697.14	13085.94
697.27	12732.51
697.40	12772.30
697.54	12779.32
697.67	12376.75
697.80	12381.43
697.94	12365.05
698.07	12592.08
698.21	12393.14
698.34	12442.29
698.47	12636.55
698.61	12343.99
698.74	12519.53
698.87	12362.71
699.01	12189.51
699.14	12032.69
699.27	12142.70
699.40	12343.99
699.54	12411.86
699.67	11950.78
699.80	12184.83
699.94	11550.54
700.07	11896.94
700.20	11686.29
700.34	11974.18
700.47	11658.21
700.60	11679.27
700.73	11845.45
700.87	11566.93
701.00	11412.45
701.13	11487.35
701.26	11447.56
701.40	11534.16
701.53	11433.52
701.66	11604.38
701.79	11257.98
701.93	11126.91
702.06	11037.97
702.19	11009.88
702.32	11075.42
702.46	10981.79
702.59	10906.90
702.72	10600.29
702.85	10834.34
702.99	10754.76
703.12	10768.80
703.25	10490.28
703.38	10759.44
703.51	10436.45
703.65	10518.37
703.78	10626.03
703.91	10597.95
704.04	10647.10
704.17	10413.04
704.31	10476.24
704.44	10354.53
704.57	10370.91
704.70	10190.69
704.83	10061.96
704.96	10300.70
705.10	10122.82
705.23	10024.51
>>>>>End Processed Spectral Data<<<<<
