SpectraSuite Data File
++++++++++++++++++++++++++++++++++++
Date: Fri Oct 18 13:58:42 GMT-05:00 2013
User: bianchi
Dark Spectrum Present: No
Reference Spectrum Present: No
Number of Sampled Component Spectra: 1
Spectrometers: USB2+H05261
Integration Time (usec): 50000 (USB2+H05261)
Spectra Averaged: 1 (USB2+H05261)
Boxcar Smoothing: 0 (USB2+H05261)
Correct for Electrical Dark: No (USB2+H05261)
Strobe/Lamp Enabled: No (USB2+H05261)
Correct for Detector Non-linearity: No (USB2+H05261)
Correct for Stray Light: No (USB2+H05261)
Number of Pixels in Processed Spectrum: 2048
>>>>>Begin Processed Spectral Data<<<<<
365.73	0.00
365.92	0.00
366.12	0.00
366.32	0.00
366.52	0.00
366.72	0.00
366.91	0.00
367.11	0.00
367.31	0.00
367.51	0.00
367.70	0.00
367.90	0.00
368.10	0.00
368.30	0.00
368.49	0.00
368.69	0.00
368.89	0.00
369.09	0.00
369.28	0.00
369.48	0.00
369.68	0.00
369.87	0.00
370.07	0.00
370.27	0.00
370.47	0.00
370.66	74.90
370.86	67.88
371.06	145.11
371.25	187.24
371.45	58.51
371.65	189.58
371.84	156.82
372.04	159.16
372.24	227.03
372.44	180.22
372.63	234.05
372.83	220.01
373.03	170.86
373.22	205.97
373.42	243.42
373.62	250.44
373.81	212.99
374.01	234.05
374.21	210.65
374.40	222.35
374.60	220.01
374.79	166.18
374.99	248.10
375.19	241.08
375.38	215.33
375.58	278.52
375.78	227.03
375.97	208.31
376.17	330.02
376.37	212.99
376.56	290.23
376.76	208.31
376.95	285.55
377.15	236.39
377.35	287.89
377.54	234.05
377.74	252.78
377.93	311.29
378.13	299.59
378.33	276.18
378.52	269.16
378.72	355.76
378.91	315.97
379.11	255.12
379.31	273.84
379.50	285.55
379.70	332.36
379.89	294.91
380.09	294.91
380.28	259.80
380.48	290.23
380.68	285.55
380.87	264.48
381.07	262.14
381.26	313.63
381.46	248.10
381.65	315.97
381.85	365.12
382.04	341.72
382.24	341.72
382.43	315.97
382.63	339.38
382.83	315.97
383.02	339.38
383.22	372.15
383.41	304.27
383.61	348.74
383.80	337.04
384.00	393.21
384.19	304.27
384.39	320.65
384.58	360.44
384.78	376.83
384.97	339.38
385.17	404.91
385.36	451.72
385.56	339.38
385.75	447.04
385.95	421.30
386.14	517.26
386.34	386.19
386.53	374.49
386.72	388.53
386.92	381.51
387.11	414.27
387.31	458.74
387.50	383.85
387.70	369.80
387.89	330.02
388.09	393.21
388.28	421.30
388.48	454.06
388.67	409.59
388.86	381.51
389.06	451.72
389.25	418.96
389.45	409.59
389.64	465.77
389.84	484.49
390.03	451.72
390.22	472.79
390.42	517.26
390.61	421.30
390.81	475.13
391.00	519.60
391.19	545.34
391.39	505.56
391.58	500.87
391.78	524.28
391.97	557.05
392.16	458.74
392.36	482.15
392.55	578.11
392.75	645.99
392.94	512.58
393.13	524.28
393.33	507.90
393.52	496.19
393.71	603.86
393.91	559.39
394.10	526.62
394.29	552.37
394.49	566.41
394.68	545.34
394.88	624.92
395.07	624.92
395.26	596.84
395.46	543.00
395.65	617.90
395.84	622.58
396.04	650.67
396.23	533.64
396.42	641.31
396.62	606.20
396.81	662.37
397.00	608.54
397.19	683.44
397.39	674.07
397.58	671.73
397.77	653.01
397.97	685.78
398.16	713.86
398.35	669.39
398.55	627.26
398.74	685.78
398.93	758.33
399.12	746.63
399.32	697.48
399.51	784.08
399.70	695.14
399.90	744.29
400.09	779.40
400.28	777.06
400.47	758.33
400.67	788.76
400.86	791.10
401.05	739.61
401.24	774.72
401.44	835.57
401.63	816.85
401.82	849.61
402.01	898.77
402.21	807.48
402.40	866.00
402.59	835.57
402.78	837.91
402.97	802.80
403.17	870.68
403.36	898.77
403.55	795.78
403.74	917.49
403.93	875.36
404.13	917.49
404.32	802.80
404.51	819.19
404.70	1013.45
404.89	905.79
405.09	926.85
405.28	922.17
405.47	943.24
405.66	840.25
405.85	940.90
406.05	987.71
406.24	938.55
406.43	1027.50
406.62	931.53
406.81	1071.97
407.00	1013.45
407.20	1020.47
407.39	1008.77
407.58	1050.90
407.77	1041.54
407.96	1078.99
408.15	1090.69
408.34	1074.31
408.54	1088.35
408.73	1032.18
408.92	1123.46
409.11	1104.73
409.30	1130.48
409.49	1104.73
409.68	1165.59
409.87	1238.14
410.07	1191.33
410.26	1212.40
410.45	1102.39
410.64	1226.44
410.83	1226.44
411.02	1291.98
411.21	1268.57
411.40	1181.97
411.59	1256.87
411.78	1327.08
411.98	1212.40
412.17	1331.76
412.36	1310.70
412.55	1273.25
412.74	1341.13
412.93	1221.76
413.12	1266.23
413.31	1387.94
413.50	1270.91
413.69	1430.07
413.88	1385.60
414.07	1441.77
414.26	1357.51
414.45	1406.66
414.64	1320.06
414.83	1507.30
415.02	1420.71
415.22	1507.30
415.41	1486.24
415.60	1542.41
415.79	1465.18
415.98	1678.16
416.17	1612.63
416.36	1579.86
416.55	1600.93
416.74	1631.35
416.93	1643.06
417.12	1689.87
417.31	1612.63
417.50	1650.08
417.69	1699.23
417.88	1753.06
418.07	1769.44
418.26	1675.82
418.45	1797.53
418.64	1797.53
418.83	1743.70
419.02	1682.85
419.21	1867.75
419.39	1935.62
419.58	1790.51
419.77	1832.64
419.96	1872.43
420.15	1891.15
420.34	1797.53
420.53	1783.49
420.72	1928.60
420.91	1863.07
421.10	1914.56
421.29	2008.18
421.48	1942.64
421.67	2012.86
421.86	1853.70
422.05	2024.56
422.24	1909.88
422.43	1872.43
422.61	1989.46
422.80	2040.95
422.99	1914.56
423.18	2010.52
423.37	2148.61
423.56	2125.21
423.75	1982.43
423.94	1991.80
424.13	1914.56
424.32	1998.82
424.50	2064.35
424.69	2111.16
424.88	2200.10
425.07	2090.10
425.26	1881.79
425.45	1935.62
425.64	2064.35
425.83	2026.90
426.01	2054.99
426.20	1991.80
426.39	2031.58
426.58	1952.01
426.77	2085.42
426.96	2129.89
427.15	2125.21
427.33	2174.36
427.52	2080.74
427.71	2176.70
427.90	2106.48
428.09	2155.63
428.28	2146.27
428.46	2129.89
428.65	2267.98
428.84	2202.44
429.03	2244.57
429.22	2193.08
429.40	2188.40
429.59	2202.44
429.78	2221.17
429.97	2118.18
430.16	2328.83
430.34	2385.01
430.53	2356.92
430.72	2279.68
430.91	2186.06
431.10	2270.32
431.28	2359.26
431.47	2326.49
431.66	2490.33
431.85	2422.45
432.03	2314.79
432.22	2403.73
432.41	2326.49
432.60	2413.09
432.79	2445.86
432.97	2480.97
433.16	2382.67
433.35	2377.98
433.54	2450.54
433.72	2445.86
433.91	2626.08
434.10	2558.21
434.28	2511.39
434.47	2553.52
434.66	2597.99
434.85	2534.80
435.03	2553.52
435.22	2537.14
435.41	2605.02
435.59	2693.96
435.78	2700.98
435.97	2588.63
436.16	2626.08
436.34	2658.85
436.53	2710.34
436.72	2724.38
436.90	2619.06
437.09	2745.45
437.28	2691.62
437.46	2679.91
437.65	2827.37
437.84	2799.28
438.02	2661.19
438.21	2752.47
438.40	2703.32
438.58	2827.37
438.77	2799.28
438.96	2717.36
439.14	2974.82
439.33	2972.48
439.52	2972.48
439.70	2998.23
439.89	2984.18
440.08	3021.63
440.26	2956.10
440.45	3087.17
440.63	3035.67
440.82	3150.36
441.01	3089.51
441.19	3166.74
441.38	3141.00
441.57	3098.87
441.75	3229.94
441.94	3265.05
442.12	3117.59
442.31	3339.94
442.50	3403.14
442.68	3440.59
442.87	3393.78
443.05	3232.28
443.24	3353.99
443.43	3356.33
443.61	3288.45
443.80	3531.87
443.98	3337.60
444.17	3173.77
444.35	3346.97
444.54	3361.01
444.73	3478.04
444.91	3286.11
445.10	3358.67
445.28	3335.26
445.47	3529.53
445.65	3262.71
445.84	3377.39
446.02	3550.59
446.21	3454.63
446.39	3389.10
446.58	3510.80
446.77	3463.99
446.95	3309.52
447.14	3527.19
447.32	3421.86
447.51	3435.91
447.69	3435.91
447.88	3499.10
448.06	3421.86
448.25	3602.08
448.43	3471.01
448.62	3428.88
448.80	3335.26
448.99	3463.99
449.17	3625.49
449.36	3566.98
449.54	3651.24
449.73	3552.93
449.91	3618.47
450.10	3705.07
450.28	3758.90
450.46	3719.11
450.65	3819.75
450.83	3616.13
451.02	3637.19
451.20	3798.69
451.39	3733.15
451.57	3758.90
451.76	3723.79
451.94	3686.34
452.13	3789.33
452.31	3740.18
452.49	3761.24
452.68	3655.92
452.86	3801.03
453.05	3782.31
453.23	3857.20
453.42	3829.12
453.60	3880.61
453.78	3946.14
453.97	3819.75
454.15	3932.10
454.34	3915.72
454.52	3974.23
454.70	3904.01
454.89	3936.78
455.07	3992.95
455.26	3985.93
455.44	4114.66
455.62	4021.04
455.81	3976.57
455.99	4184.88
456.17	4210.62
456.36	4189.56
456.54	4294.88
456.73	4159.13
456.91	4414.25
457.09	4189.56
457.28	4444.68
457.46	4224.67
457.64	4421.27
457.83	4372.12
458.01	4217.65
458.19	4278.50
458.38	4292.54
458.56	4425.95
458.74	4264.46
458.93	4425.95
459.11	4334.67
459.29	4379.14
459.48	4428.29
459.66	4440.00
459.84	4470.42
460.03	4557.02
460.21	4624.90
460.39	4514.89
460.57	4514.89
460.76	4435.32
460.94	4645.96
461.12	4454.04
461.31	4606.17
461.49	4489.15
461.67	4585.11
461.85	4753.63
462.04	4620.22
462.22	4884.70
462.40	4837.89
462.59	4774.69
462.77	4713.84
462.95	4777.03
463.13	4755.97
463.32	4854.27
463.50	4823.84
463.68	4910.44
463.86	4695.11
464.05	4983.00
464.23	4753.63
464.41	4922.15
464.59	4643.62
464.78	5001.72
464.96	4966.62
465.14	4849.59
465.32	5020.45
465.50	4975.98
465.69	4997.04
465.87	5013.43
466.05	5041.51
466.23	4887.04
466.41	5018.11
466.60	4983.00
466.78	5181.95
466.96	4994.70
467.14	5074.28
467.32	5046.20
467.51	5217.05
467.69	5034.49
467.87	5142.16
468.05	5167.90
468.23	4975.98
468.41	5055.56
468.60	5172.58
468.78	5186.63
468.96	5032.15
469.14	5128.11
469.32	5345.78
469.50	5277.91
469.69	5139.82
469.87	5301.31
470.05	5261.52
470.23	5256.84
470.41	5320.04
470.59	5523.66
470.77	5408.98
470.95	5423.02
471.14	5617.29
471.32	5397.28
471.50	5589.20
471.68	5619.63
471.86	5694.52
472.04	5633.67
472.22	5696.86
472.40	5495.58
472.58	5518.98
472.77	5610.26
472.95	5820.91
473.13	5933.26
473.31	5671.12
473.49	5741.33
473.67	5762.40
473.85	5837.30
474.03	6040.92
474.21	5870.06
474.39	5937.94
474.57	6115.82
474.75	6155.61
474.93	6078.37
475.12	6232.85
475.30	6092.41
475.48	6047.94
475.66	6127.52
475.84	6115.82
476.02	6279.66
476.20	6317.11
476.38	6436.47
476.56	6436.47
476.74	6464.56
476.92	6471.58
477.10	6593.29
477.28	6628.40
477.46	6450.52
477.64	6782.87
477.82	6843.73
478.00	6895.22
478.18	6815.64
478.36	6899.90
478.54	7012.24
478.72	7122.25
478.90	7365.67
479.08	7215.87
479.26	7232.26
479.44	7321.20
479.62	7213.53
479.80	7426.52
479.98	7363.33
480.16	7356.30
480.34	7599.72
480.52	7470.99
480.70	7611.42
480.88	7571.63
481.06	7557.59
481.24	7627.81
481.41	7765.90
481.59	7882.92
481.77	8067.83
481.95	7864.20
482.13	7992.93
482.31	8056.12
482.49	8379.12
482.67	8329.97
482.85	8208.26
483.03	8238.69
483.21	8472.74
483.39	8549.98
483.57	8662.32
483.74	8573.38
483.92	8638.92
484.10	8580.40
484.28	8795.73
484.46	8833.18
484.64	9092.98
484.82	8915.10
485.00	9235.75
485.18	9132.77
485.35	9446.40
485.53	9289.59
485.71	9399.59
485.89	9444.06
486.07	9722.59
486.25	9458.10
486.43	9502.58
486.61	9521.30
486.78	9813.87
486.96	9816.21
487.14	9905.15
487.32	9975.36
487.50	9886.42
487.68	9996.43
487.85	10303.04
488.03	10420.06
488.21	10518.37
488.39	10590.92
488.57	10626.03
488.75	10513.69
488.92	10600.29
489.10	10951.37
489.28	10906.90
489.46	11040.31
489.64	10909.24
489.81	11021.58
489.99	11234.57
490.17	11143.29
490.35	11552.88
490.53	11220.53
490.70	11580.97
490.88	11452.24
491.06	11754.17
491.24	11634.80
491.41	11524.80
491.59	11915.67
491.77	12063.12
491.95	12098.23
492.13	12175.47
492.30	12004.61
492.48	12135.68
492.66	12205.89
492.84	12224.62
493.01	12517.18
493.19	12393.14
493.37	12713.79
493.54	12353.35
493.72	12702.09
493.90	12776.98
494.08	12814.43
494.25	12933.80
494.43	13111.68
494.61	13167.85
494.79	13235.73
494.96	13064.87
495.14	13324.67
495.32	13345.73
495.49	13385.52
495.67	13345.73
495.85	13528.30
496.02	13916.83
496.20	13598.51
496.38	13827.88
496.55	13806.82
496.73	14223.44
496.91	13930.87
497.09	14155.56
497.26	14288.97
497.44	14359.19
497.62	14232.80
497.79	14483.24
497.97	14380.25
498.14	14607.28
498.32	14368.55
498.50	14637.71
498.67	14728.99
498.85	14595.58
499.03	14724.31
499.20	14920.92
499.38	14815.59
499.56	15227.53
499.73	15166.67
499.91	15246.25
500.08	15342.21
500.26	15234.55
500.44	15246.25
500.61	15391.36
500.79	15353.91
500.97	15506.05
501.14	15719.04
501.32	15651.16
501.49	15536.48
501.67	16074.80
501.84	15885.22
502.02	15765.85
502.20	16119.27
502.37	16255.02
502.55	15896.92
502.72	16112.25
502.90	16159.06
503.07	16173.10
503.25	16079.48
503.43	15875.85
503.60	16243.32
503.78	16613.12
503.95	16601.42
504.13	16533.54
504.30	16510.14
504.48	16613.12
504.65	16521.84
504.83	17039.10
505.01	17104.64
505.18	16765.26
505.36	16931.44
505.53	16678.66
505.71	17018.04
505.88	17011.01
506.06	16812.07
506.23	17167.83
506.41	16898.67
506.58	17167.83
506.76	17331.67
506.93	17219.32
507.11	17242.73
507.28	17436.99
507.46	17556.36
507.63	17671.04
507.81	17741.26
507.98	17406.56
508.16	17305.92
508.33	18008.08
508.50	17591.47
508.68	17572.74
508.85	18071.28
509.03	18082.98
509.20	18153.20
509.38	18136.81
509.55	18068.94
509.73	18066.60
509.90	18181.28
510.08	18511.30
510.25	18139.15
510.42	18288.95
510.60	18838.97
510.77	18546.40
510.95	18735.99
511.12	18560.45
511.30	18827.27
511.47	18658.75
511.64	18565.13
511.82	18757.05
511.99	18808.54
512.17	19077.71
512.34	18963.02
512.51	18909.19
512.69	19021.53
512.86	19122.18
513.04	19173.67
513.21	19213.46
513.38	19332.82
513.56	19215.80
513.73	19403.04
513.90	19428.79
514.08	19222.82
514.25	19435.81
514.43	19475.60
514.60	19833.70
514.77	19812.63
514.95	19887.53
515.12	19683.91
515.29	19510.71
515.47	19756.46
515.64	19964.77
515.81	19791.57
515.99	20084.14
516.16	20140.31
516.33	19974.13
516.51	20414.15
516.68	19974.13
516.85	19971.79
517.03	20011.58
517.20	20240.95
517.37	20460.96
517.54	20638.84
517.72	20535.86
517.89	20383.73
518.06	20575.65
518.24	20365.00
518.41	20400.11
518.58	20856.51
518.75	20664.59
518.93	20840.13
519.10	20673.95
519.27	20685.65
519.45	21071.84
519.62	21069.50
519.79	21055.46
519.96	20798.00
520.14	20879.92
520.31	20968.86
520.48	21214.62
520.65	21020.35
520.83	21490.80
521.00	21326.96
521.17	21120.99
521.34	21226.32
521.52	21366.75
521.69	21469.73
521.86	21570.38
522.03	21582.08
522.20	21549.31
522.38	21448.67
522.55	21586.76
522.72	21638.25
522.89	21846.56
523.07	22001.04
523.24	21750.60
523.41	22185.94
523.58	21909.75
523.75	22146.15
523.92	21825.50
524.10	22298.28
524.27	22146.15
524.44	22462.12
524.61	22345.09
524.78	22022.10
524.96	22417.65
525.13	22125.08
525.30	22164.87
525.47	22417.65
525.64	22211.68
525.81	22464.46
525.98	22616.60
526.16	22548.72
526.33	22530.00
526.50	22941.93
526.67	22560.42
526.84	22546.38
527.01	22590.85
527.18	22597.87
527.36	23040.23
527.53	22932.57
527.70	23192.37
527.87	22895.12
528.04	23204.07
528.21	23314.08
528.38	22710.22
528.55	22782.77
528.72	23316.42
528.89	23300.03
529.07	23269.61
529.24	23180.67
529.41	23264.92
529.58	23625.37
529.75	23213.43
529.92	23353.87
530.09	23424.08
530.26	23611.32
530.43	23777.50
530.60	23491.96
530.77	23632.39
530.94	23510.68
531.11	23744.73
531.28	23510.68
531.46	23765.80
531.63	23803.25
531.80	23810.27
531.97	23901.55
532.14	23868.78
532.31	23929.64
532.48	24095.82
532.65	23768.14
532.82	23564.51
532.99	23969.43
533.16	23903.89
533.33	24229.23
533.50	24201.14
533.67	24205.82
533.84	24163.69
534.01	24229.23
534.18	24390.72
534.35	24369.66
534.52	24346.25
534.69	24624.78
534.86	24437.53
535.03	24191.78
535.20	24484.34
535.37	24620.10
535.54	24535.84
535.71	24336.89
535.88	24584.99
536.05	24482.00
536.22	24744.14
536.38	25085.86
536.55	24711.38
536.72	24844.79
536.89	24795.64
537.06	24837.76
537.23	24648.18
537.40	24690.31
537.57	24781.59
537.74	25319.92
537.91	24907.98
538.08	25118.63
538.25	24772.23
538.42	25240.34
538.59	25146.72
538.75	25055.43
538.92	25043.73
539.09	24938.41
539.26	25008.62
539.43	25266.08
539.60	25298.85
539.77	25443.96
539.94	25193.53
540.11	25343.32
540.28	25238.00
540.44	25458.01
540.61	25287.15
540.78	25156.08
540.95	25598.44
541.12	25610.14
541.29	25713.13
541.46	25530.56
541.62	25448.64
541.79	25715.47
541.96	25467.37
542.13	25624.18
542.30	25497.80
542.47	25584.40
542.63	25947.18
542.80	25993.99
542.97	26218.68
543.14	26305.28
543.31	26326.35
543.48	25933.14
543.64	26092.29
543.81	26272.51
543.98	26382.52
544.15	26359.11
544.32	26513.59
544.48	26534.65
544.65	26143.78
544.82	26279.54
544.99	25930.80
545.16	26026.76
545.32	26286.56
545.49	26885.73
545.66	26948.93
545.83	26761.69
546.00	26742.96
546.16	26443.37
546.33	26492.52
546.50	26448.05
546.67	26810.84
546.83	26462.10
547.00	26560.40
547.17	26696.15
547.34	26808.50
547.50	26817.86
547.67	26988.72
547.84	26705.51
548.00	27175.96
548.17	26981.70
548.34	26752.32
548.51	26951.27
548.67	27166.60
548.84	27410.01
549.01	27075.32
549.18	26852.97
549.34	26815.52
549.51	26539.33
549.68	26981.70
549.84	26726.58
550.01	26778.07
550.18	27098.72
550.34	27175.96
550.51	27225.11
550.68	27393.63
550.84	27302.35
551.01	27182.98
551.18	27030.85
551.34	27152.55
551.51	27412.35
551.68	27321.07
551.84	27370.22
552.01	27449.80
552.18	27950.68
552.34	27534.06
552.51	27473.21
552.68	27276.60
552.84	27459.16
553.01	27690.88
553.18	27555.13
553.34	28006.85
553.51	27807.90
553.67	27559.81
553.84	28023.23
554.01	27641.73
554.17	27578.53
554.34	27857.06
554.51	27934.29
554.67	28072.39
554.84	27475.55
555.00	27707.26
555.17	27175.96
555.33	28240.90
555.50	27917.91
555.67	27899.19
555.83	28175.37
556.00	27943.66
556.16	28292.40
556.33	27791.52
556.50	27920.25
556.66	28201.11
556.83	27931.95
556.99	28229.20
557.16	28397.72
557.32	28238.56
557.49	28362.61
557.65	27906.21
557.82	27974.08
557.98	27974.08
558.15	28364.95
558.32	28456.23
558.48	28514.75
558.65	28622.41
558.81	28229.20
558.98	28357.93
559.14	28261.97
559.31	28137.92
559.47	28463.25
559.64	28205.80
559.80	28631.77
559.97	28332.18
560.13	28493.68
560.30	28521.77
560.46	28629.43
560.63	28671.56
560.79	28416.44
560.96	28753.48
561.12	28725.39
561.29	28484.32
561.45	28636.45
561.61	29015.62
561.78	28840.08
561.94	28697.31
562.11	28753.48
562.27	28826.04
562.44	28577.94
562.60	28811.99
562.77	28982.85
562.93	28357.93
563.10	29050.73
563.26	29177.12
563.42	29118.60
563.59	29090.52
563.75	28809.65
563.92	28835.40
564.08	28535.81
564.24	28575.60
564.41	28444.53
564.57	28720.71
564.74	28872.85
564.90	28961.79
565.07	28919.66
565.23	29228.61
565.39	28968.81
565.56	29006.26
565.72	28882.21
565.88	29027.32
566.05	28774.55
566.21	28776.89
566.38	28802.63
566.54	29144.35
566.70	29214.57
566.87	29472.03
567.03	28772.21
567.19	29132.65
567.36	29252.02
567.52	29032.00
567.68	29296.49
567.85	29034.35
568.01	29212.23
568.17	29010.94
568.34	29486.07
568.50	29113.92
568.66	29247.33
568.83	29242.65
568.99	29078.82
569.15	29057.75
569.32	29247.33
569.48	29153.71
569.64	29792.68
569.81	29139.67
569.97	29301.17
570.13	29401.81
570.30	28945.41
570.46	29184.14
570.62	29123.29
570.78	29340.96
570.95	29039.03
571.11	29277.76
571.27	29097.54
571.43	29237.97
571.60	29249.67
571.76	29048.39
571.92	29263.72
572.09	29298.83
572.25	29542.24
572.41	29586.71
572.57	29537.56
572.74	29434.58
572.90	28877.53
573.06	29268.40
573.22	29078.82
573.38	29338.62
573.55	29338.62
573.71	29717.78
573.87	29565.65
574.03	29329.25
574.20	29266.06
574.36	29130.31
574.52	29390.11
574.68	29230.95
574.84	29811.40
575.01	29846.51
575.17	29275.42
575.33	29553.94
575.49	29488.41
575.65	29799.70
575.82	29324.57
575.98	29399.47
576.14	29408.83
576.30	29586.71
576.46	29488.41
576.62	29427.56
576.79	29479.05
576.95	29532.88
577.11	29441.60
577.27	29518.84
577.43	29422.87
577.59	29706.08
577.75	29219.25
577.92	29252.02
578.08	29331.59
578.24	29537.56
578.40	29329.25
578.56	29209.89
578.72	29408.83
578.88	29851.19
579.04	29907.37
579.21	29408.83
579.37	29551.60
579.53	29408.83
579.69	29425.22
579.85	29500.11
580.01	29610.12
580.17	29790.34
580.33	29497.77
580.49	29495.43
580.65	29347.98
580.82	29785.66
580.98	29610.12
581.14	29745.87
581.30	29624.16
581.46	29284.78
581.62	29441.60
581.78	29537.56
581.94	29649.91
582.10	29731.83
582.26	29659.27
582.42	29771.61
582.58	29626.50
582.74	29741.19
582.90	29837.15
583.06	29839.49
583.22	29542.24
583.38	29282.44
583.54	29483.73
583.70	29364.36
583.86	29886.30
584.02	29366.70
584.18	30132.06
584.34	29979.92
584.50	29577.35
584.66	29872.26
584.82	29329.25
584.98	29895.66
585.14	29820.77
585.30	29762.25
585.46	29563.31
585.62	29537.56
585.78	29757.57
585.94	29364.36
586.10	29546.92
586.26	29937.79
586.42	29841.83
586.58	30265.47
586.74	29827.79
586.90	29490.75
587.06	29390.11
587.22	29322.23
587.38	29577.35
587.54	29745.87
587.70	29898.00
587.86	29965.88
588.02	29839.49
588.18	29743.53
588.34	30115.67
588.49	29486.07
588.65	29680.33
588.81	29600.76
588.97	29914.39
589.13	29839.49
589.29	29549.26
589.45	29699.06
589.61	30040.78
589.77	29912.05
589.93	30312.28
590.08	30551.01
590.24	30188.23
590.40	30197.59
590.56	30199.93
590.72	29900.34
590.88	30012.69
591.04	29612.46
591.20	30045.46
591.35	30036.09
591.51	30466.75
591.67	30513.56
591.83	30162.48
591.99	30066.52
592.15	30012.69
592.31	29944.81
592.46	30213.98
592.62	29886.30
592.78	30281.85
592.94	30052.48
593.10	30108.65
593.26	30190.57
593.41	30405.90
593.57	30431.65
593.73	30340.36
593.89	30415.26
594.05	29979.92
594.20	29567.99
594.36	29998.65
594.52	30054.82
594.68	29743.53
594.84	29977.58
594.99	30548.67
595.15	30136.74
595.31	30422.28
595.47	30307.60
595.62	30167.16
595.78	30125.04
595.94	30380.15
596.10	30347.39
596.25	29977.58
596.41	29858.21
596.57	29916.73
596.73	30000.99
596.88	30239.72
597.04	30356.75
597.20	30450.37
597.36	29977.58
597.51	30359.09
597.67	30452.71
597.83	30352.07
597.99	30534.63
598.14	30127.38
598.30	30415.26
598.46	30031.41
598.61	30110.99
598.77	30026.73
598.93	30707.83
599.09	30066.52
599.24	30150.78
599.40	30885.71
599.56	30263.13
599.71	30195.25
599.87	30445.69
600.03	30213.98
600.18	30132.06
600.34	30017.37
600.50	30218.66
600.65	30221.00
600.81	30789.75
600.97	30424.62
601.12	30309.94
601.28	30529.95
601.44	30611.87
601.59	30632.93
601.75	29886.30
601.91	30326.32
602.06	30354.41
602.22	30080.56
602.37	30270.15
602.53	30426.96
602.69	30485.48
602.84	30368.45
603.00	30237.38
603.16	30401.22
603.31	30162.48
603.47	30548.67
603.62	30199.93
603.78	30249.08
603.94	30216.32
604.09	30000.99
604.25	30197.59
604.40	30160.14
604.56	30253.76
604.71	30845.92
604.87	30438.67
605.03	30157.80
605.18	30548.67
605.34	30597.82
605.49	30012.69
605.65	30274.83
605.80	30026.73
605.96	30197.59
606.12	30539.31
606.27	30525.27
606.43	29832.47
606.58	30188.23
606.74	30221.00
606.89	30452.71
607.05	30157.80
607.20	30520.59
607.36	30061.84
607.51	30036.09
607.67	30071.20
607.82	30045.46
607.98	30064.18
608.13	30096.95
608.29	29970.56
608.44	29993.97
608.60	30176.53
608.75	30221.00
608.91	30122.69
609.06	29954.18
609.22	30052.48
609.37	29949.50
609.53	30157.80
609.68	29825.45
609.84	30122.69
609.99	29996.31
610.15	30066.52
610.30	29694.38
610.46	29860.55
610.61	29656.93
610.76	30185.89
610.92	29912.05
611.07	29886.30
611.23	29982.26
611.38	30326.32
611.54	29853.53
611.69	29670.97
611.84	29659.27
612.00	30031.41
612.15	29799.70
612.31	30143.76
612.46	30031.41
612.62	30022.05
612.77	29895.66
612.92	29764.59
613.08	29766.93
613.23	29876.94
613.39	29537.56
613.54	29411.17
613.69	30008.01
613.85	29521.18
614.00	29905.02
614.15	29469.69
614.31	29614.80
614.46	29649.91
614.62	29876.94
614.77	29874.60
614.92	29851.19
615.08	29453.30
615.23	29551.60
615.38	29577.35
615.54	29565.65
615.69	29680.33
615.84	29462.66
616.00	29467.34
616.15	29677.99
616.30	29591.39
616.46	29736.51
616.61	29394.79
616.76	29818.42
616.92	29706.08
617.07	29738.85
617.22	29216.91
617.37	29134.99
617.53	30045.46
617.68	29329.25
617.83	29256.70
617.99	29345.64
618.14	29504.79
618.29	29247.33
618.45	29076.48
618.60	29198.18
618.75	29308.19
618.90	29429.90
619.06	29551.60
619.21	29649.91
619.36	29259.04
619.51	29212.23
619.67	28854.12
619.82	28987.53
619.97	29502.45
620.12	28723.05
620.28	29179.46
620.43	29284.78
620.58	29261.38
620.73	29188.82
620.89	29235.63
621.04	29465.00
621.19	29273.08
621.34	28671.56
621.49	29099.88
621.65	29134.99
621.80	28709.01
621.95	28844.76
622.10	29223.93
622.25	28833.06
622.41	29425.22
622.56	28961.79
622.71	29425.22
622.86	29020.30
623.01	29095.20
623.16	29048.39
623.32	28510.07
623.47	29160.73
623.62	28877.53
623.77	28772.21
623.92	29254.36
624.07	28566.24
624.23	28596.67
624.38	28924.34
624.53	28795.61
624.68	28861.15
624.83	28690.29
624.98	28865.83
625.13	28713.69
625.29	28872.85
625.44	28568.58
625.59	28339.21
625.74	28166.01
625.89	28332.18
626.04	28491.34
626.19	28484.32
626.34	28421.13
626.49	28430.49
626.65	28606.03
626.80	28809.65
626.95	28360.27
627.10	28610.71
627.25	28402.40
627.40	28208.14
627.55	28142.60
627.70	28151.96
627.85	28304.10
628.00	28037.28
628.15	28149.62
628.30	28360.27
628.45	28116.86
628.60	28095.79
628.76	28147.28
628.91	28376.66
629.06	28318.14
629.21	27927.27
629.36	28137.92
629.51	28290.06
629.66	27988.13
629.81	27861.74
629.96	28229.20
630.11	27924.93
630.26	27934.29
630.41	28257.29
630.56	27922.59
630.71	28339.21
630.86	28009.19
631.01	28140.26
631.16	28411.76
631.31	27800.88
631.46	27770.46
631.61	28065.36
631.76	27627.68
631.91	27763.43
632.06	27775.14
632.21	27786.84
632.36	28142.60
632.51	27660.45
632.66	27527.04
632.81	27789.18
632.96	27667.47
633.10	27828.97
633.25	27878.12
633.40	27838.33
633.55	27534.06
633.70	27777.48
633.85	27550.45
634.00	27604.28
634.15	27494.27
634.30	27190.00
634.45	27302.35
634.60	27571.51
634.75	27683.86
634.90	27683.86
635.05	27985.79
635.19	27271.92
635.34	27843.01
635.49	27552.79
635.64	27463.85
635.79	27332.78
635.94	27339.80
636.09	27412.35
636.24	27377.25
636.39	26967.65
636.53	27173.62
636.68	27091.70
636.83	27281.28
636.98	27028.51
637.13	27468.53
637.28	27442.78
637.43	27520.02
637.57	27632.36
637.72	27274.26
637.87	27180.64
638.02	27208.73
638.17	27192.34
638.32	27199.37
638.46	26808.50
638.61	26977.01
638.76	26759.34
638.91	26639.98
639.06	27147.87
639.20	26813.18
639.35	26813.18
639.50	27187.66
639.65	27197.02
639.80	27190.00
639.94	26663.38
640.09	27290.65
640.24	26906.80
640.39	26827.22
640.54	26714.87
640.68	26539.33
640.83	26480.82
640.98	26981.70
641.13	26586.15
641.27	26916.16
641.42	26913.82
641.57	27077.66
641.72	26656.36
641.86	26632.96
642.01	26389.54
642.16	26506.57
642.31	26642.32
642.45	26651.68
642.60	26235.06
642.75	26536.99
642.90	26438.69
643.04	26192.94
643.19	26324.01
643.34	26654.02
643.48	26480.82
643.63	26199.96
643.78	26558.06
643.93	26436.35
644.07	27009.78
644.22	26616.57
644.37	26764.03
644.51	26415.29
644.66	26522.95
644.81	26368.48
644.95	26078.25
645.10	26263.15
645.25	26403.58
645.39	26579.12
645.54	26153.15
645.69	26635.30
645.83	26188.25
645.98	26272.51
646.13	26015.05
646.27	26298.26
646.42	26157.83
646.57	25937.82
646.71	26087.61
646.86	26347.41
647.00	26204.64
647.15	26246.77
647.30	25919.09
647.44	25797.38
647.59	26141.44
647.74	26438.69
647.88	25951.86
648.03	26045.48
648.17	26033.78
648.32	26050.16
648.47	26052.50
648.61	26136.76
648.76	26602.53
648.90	26309.96
649.05	26115.70
649.20	25996.33
649.34	26012.71
649.49	25455.67
649.63	25869.94
649.78	25790.36
649.92	25661.63
650.07	25715.47
650.21	25390.13
650.36	25781.00
650.51	25872.28
650.65	25888.67
650.80	25853.56
650.94	25788.02
651.09	25855.90
651.23	25598.44
651.38	25647.59
651.52	25472.05
651.67	25343.32
651.81	25741.21
651.96	25443.96
652.10	25806.75
652.25	25397.15
652.39	25619.50
652.54	25614.82
652.68	25706.10
652.83	25771.64
652.97	25568.01
653.12	25649.93
653.26	25427.58
653.41	25720.15
653.55	25371.41
653.70	25539.93
653.84	25069.48
653.99	24954.79
654.13	25460.35
654.27	25261.40
654.42	25481.41
654.56	25408.86
654.71	25638.23
654.85	25092.88
655.00	25397.15
655.14	25146.72
655.29	25193.53
655.43	25383.11
655.57	25221.61
655.72	24940.75
655.86	24872.87
656.01	25317.57
656.15	25151.40
656.30	25106.93
656.44	25092.88
656.58	24847.13
656.73	24896.28
656.87	24886.92
657.01	25034.37
657.16	25460.35
657.30	25174.80
657.45	24512.43
657.59	24982.88
657.73	24954.79
657.88	25151.40
658.02	24903.30
658.16	24870.53
658.31	25123.31
658.45	24767.55
658.60	24484.34
658.74	24645.84
658.88	24362.64
659.03	24762.87
659.17	24690.31
659.31	24755.85
659.46	24161.35
659.60	24657.54
659.74	24760.53
659.89	24620.10
660.03	24638.82
660.17	24592.01
660.32	24170.71
660.46	24456.26
660.60	24318.17
660.74	24362.64
660.89	24437.53
661.03	24105.18
661.17	24056.03
661.32	24154.33
661.46	24374.34
661.60	24283.06
661.74	24421.15
661.89	24547.54
662.03	24189.44
662.17	24355.61
662.31	23920.28
662.46	24212.84
662.60	23960.06
662.74	23768.14
662.88	23419.40
663.03	23655.79
663.17	23627.71
663.31	23564.51
663.45	23721.33
663.60	23707.29
663.74	23637.07
663.88	23899.21
664.02	23779.84
664.17	23990.49
664.31	23627.71
664.45	23709.63
664.59	23779.84
664.73	23576.22
664.88	23449.83
665.02	23068.32
665.16	23426.42
665.30	23342.16
665.44	23311.74
665.59	23047.26
665.73	22939.59
665.87	23040.23
666.01	23173.64
666.15	23201.73
666.29	23159.60
666.44	23164.28
666.58	22902.14
666.72	22881.08
666.86	23225.14
667.00	23337.48
667.14	23005.13
667.28	22981.72
667.43	23089.38
667.57	22742.99
667.71	22597.87
667.85	22724.26
667.99	22721.92
668.13	22728.94
668.27	22724.26
668.41	22881.08
668.56	22391.91
668.70	22230.41
668.84	22649.36
668.98	22728.94
669.12	22455.10
669.26	22621.28
669.40	22391.91
669.54	22384.88
669.68	22583.83
669.82	22232.75
669.96	22127.42
670.10	22104.02
670.25	22239.77
670.39	22089.98
670.53	21963.59
670.67	21965.93
670.81	21902.73
670.95	21876.99
671.09	22169.55
671.23	22185.94
671.37	21921.46
671.51	22024.44
671.65	22120.40
671.79	22082.95
671.93	21546.97
672.07	21816.13
672.21	21795.07
672.35	21675.70
672.49	21216.96
672.63	21563.36
672.77	21975.29
672.91	21427.60
673.05	21385.47
673.19	21717.83
673.33	21530.59
673.47	21270.79
673.61	21404.20
673.75	21317.60
673.89	21455.69
674.03	21216.96
674.17	21252.06
674.31	21558.67
674.45	21013.33
674.59	20973.54
674.73	21006.31
674.87	20973.54
675.01	21149.08
675.15	20943.11
675.29	20788.64
675.43	20706.72
675.56	21043.76
675.70	20835.45
675.84	20826.09
675.98	19943.70
676.12	20500.75
676.26	20753.53
676.40	20730.12
676.54	20486.71
676.68	20467.98
676.82	20025.62
676.96	20098.18
677.10	20280.74
677.23	20322.87
677.37	20119.24
677.51	20130.95
677.65	19906.26
677.79	19709.65
677.93	19847.74
678.07	19719.01
678.21	19627.73
678.34	19515.39
678.48	19513.05
678.62	19466.24
678.76	19468.58
678.90	19487.30
679.04	19728.38
679.18	19435.81
679.31	19096.43
679.45	19199.41
679.59	19129.20
679.73	19311.76
679.87	19014.51
680.00	18897.49
680.14	18850.67
680.28	18677.48
680.42	18771.10
680.56	19009.83
680.70	19030.90
680.83	18848.33
680.97	18635.35
681.11	18750.03
681.25	18448.10
681.39	18443.42
681.52	18633.00
681.66	18188.30
681.80	18373.21
681.94	18129.79
682.07	18349.80
682.21	18202.35
682.35	18118.09
682.49	17781.05
682.62	17823.18
682.76	17628.92
682.90	17881.69
683.04	17867.65
683.17	17914.46
683.31	17642.96
683.45	17734.24
683.59	17647.64
683.72	17741.26
683.86	17532.95
684.00	17708.49
684.13	17298.90
684.27	17355.07
684.41	17404.22
684.55	17345.71
684.68	17116.34
684.82	17029.74
684.96	16999.31
685.09	17025.06
685.23	16872.92
685.37	17263.79
685.50	16996.97
685.64	16954.84
685.78	16858.88
685.91	16903.35
686.05	16985.27
686.19	16765.26
686.32	16905.69
686.46	16500.78
686.60	16540.57
686.73	16603.76
686.87	16276.09
687.01	16332.26
687.14	16114.59
687.28	16217.57
687.42	16133.31
687.55	15955.43
687.69	16152.04
687.82	16196.51
687.96	16027.99
688.10	15873.51
688.23	16027.99
688.37	15932.03
688.50	15765.85
688.64	15793.94
688.78	15709.68
688.91	15712.02
689.05	15353.91
689.18	15391.36
689.32	15267.31
689.46	15379.66
689.59	15129.22
689.73	15506.05
689.86	15300.08
690.00	14993.47
690.13	14981.77
690.27	15075.39
690.41	15105.82
690.54	15014.54
690.68	15199.44
690.81	14855.38
690.95	15028.58
691.08	15098.80
691.22	14623.67
691.35	14686.86
691.49	14850.70
691.62	14576.86
691.76	14635.37
691.89	14602.60
692.03	14478.55
692.16	13877.04
692.30	14146.20
692.43	14228.12
692.57	14092.37
692.70	14068.96
692.84	14038.53
692.97	14083.00
693.11	14185.99
693.24	14216.41
693.38	13919.17
693.51	13881.72
693.65	13912.14
693.78	13820.86
693.92	13720.22
694.05	13650.00
694.19	13509.57
694.32	13605.53
694.45	13668.73
694.59	13181.90
694.72	13294.24
694.86	13305.95
694.99	13104.66
695.13	13179.56
695.26	13132.75
695.39	13209.98
695.53	13142.11
695.66	13097.64
695.80	12746.56
695.93	13083.59
696.07	12868.27
696.20	12739.54
696.33	12690.38
696.47	12552.29
696.60	12512.50
696.73	12566.34
696.87	12582.72
697.00	12622.51
697.14	12409.52
697.27	12400.16
697.40	12112.27
697.54	12404.84
697.67	11892.26
697.80	12060.78
697.94	12145.04
698.07	11985.88
698.21	11800.98
698.34	12112.27
698.47	11925.03
698.61	12016.31
698.74	12020.99
698.87	11967.16
699.01	11819.71
699.14	11969.50
699.27	11721.40
699.40	11768.21
699.54	11552.88
699.67	11595.01
699.80	11272.02
699.94	11386.71
700.07	11293.08
700.20	11279.04
700.34	11002.86
700.47	11138.61
700.60	11225.21
700.73	11339.90
700.87	11061.37
701.00	11185.42
701.13	11019.24
701.26	11030.94
701.40	11047.33
701.53	10995.84
701.66	10958.39
701.79	10761.78
701.93	10850.72
702.06	10459.85
702.19	10551.14
702.32	10483.26
702.46	10492.62
702.59	10314.74
702.72	10331.12
702.85	10281.97
702.99	10333.47
703.12	10363.89
703.25	10349.85
703.38	10153.24
703.51	10331.12
703.65	10228.14
703.78	10148.56
703.91	9949.62
704.04	10122.82
704.17	10101.75
704.31	9998.77
704.44	9966.00
704.57	9933.23
704.70	9628.96
704.83	9802.16
704.96	9811.53
705.10	9465.13
705.23	9437.04
>>>>>End Processed Spectral Data<<<<<
