SpectraSuite Data File
++++++++++++++++++++++++++++++++++++
Date: Fri Oct 18 13:58:07 GMT-05:00 2013
User: bianchi
Dark Spectrum Present: No
Reference Spectrum Present: No
Number of Sampled Component Spectra: 1
Spectrometers: USB2+H05261
Integration Time (usec): 50000 (USB2+H05261)
Spectra Averaged: 1 (USB2+H05261)
Boxcar Smoothing: 0 (USB2+H05261)
Correct for Electrical Dark: No (USB2+H05261)
Strobe/Lamp Enabled: No (USB2+H05261)
Correct for Detector Non-linearity: No (USB2+H05261)
Correct for Stray Light: No (USB2+H05261)
Number of Pixels in Processed Spectrum: 2048
>>>>>Begin Processed Spectral Data<<<<<
365.73	0.00
365.92	0.00
366.12	0.00
366.32	0.00
366.52	0.00
366.72	0.00
366.91	0.00
367.11	0.00
367.31	0.00
367.51	0.00
367.70	0.00
367.90	0.00
368.10	0.00
368.30	0.00
368.49	0.00
368.69	0.00
368.89	0.00
369.09	0.00
369.28	0.00
369.48	0.00
369.68	0.00
369.87	0.00
370.07	0.00
370.27	0.00
370.47	0.00
370.66	102.98
370.86	168.52
371.06	168.52
371.25	159.16
371.45	145.11
371.65	128.73
371.84	180.22
372.04	105.32
372.24	166.18
372.44	138.09
372.63	208.31
372.83	252.78
373.03	217.67
373.22	147.45
373.42	257.46
373.62	215.33
373.81	248.10
374.01	297.25
374.21	297.25
374.40	283.20
374.60	229.37
374.79	198.95
374.99	252.78
375.19	283.20
375.38	177.88
375.58	283.20
375.78	285.55
375.97	241.08
376.17	271.50
376.37	250.44
376.56	266.82
376.76	292.57
376.95	229.37
377.15	229.37
377.35	287.89
377.54	294.91
377.74	245.76
377.93	285.55
378.13	297.25
378.33	287.89
378.52	304.27
378.72	278.52
378.91	285.55
379.11	252.78
379.31	404.91
379.50	236.39
379.70	294.91
379.89	294.91
380.09	278.52
380.28	358.10
380.48	311.29
380.68	292.57
380.87	262.14
381.07	379.17
381.26	334.70
381.46	308.95
381.65	264.48
381.85	334.70
382.04	346.40
382.24	407.25
382.43	390.87
382.63	276.18
382.83	376.83
383.02	379.17
383.22	423.64
383.41	402.57
383.61	360.44
383.80	327.68
384.00	330.02
384.19	503.22
384.39	388.53
384.58	334.70
384.78	369.80
384.97	395.55
385.17	334.70
385.36	376.83
385.56	404.91
385.75	435.34
385.95	348.74
386.14	451.72
386.34	390.87
386.53	472.79
386.72	402.57
386.92	376.83
387.11	489.17
387.31	418.96
387.50	353.42
387.70	397.89
387.89	425.98
388.09	444.70
388.28	463.43
388.48	442.36
388.67	404.91
388.86	449.38
389.06	411.93
389.25	395.55
389.45	468.11
389.64	528.96
389.84	503.22
390.03	498.53
390.22	503.22
390.42	491.51
390.61	428.32
390.81	472.79
391.00	374.49
391.19	482.15
391.39	454.06
391.58	540.66
391.78	475.13
391.97	477.47
392.16	526.62
392.36	552.37
392.55	521.94
392.75	535.98
392.94	554.71
393.13	498.53
393.33	461.09
393.52	594.50
393.71	589.82
393.91	655.35
394.10	528.96
394.29	596.84
394.49	573.43
394.68	599.18
394.88	580.45
395.07	514.92
395.26	645.99
395.46	566.41
395.65	664.71
395.84	657.69
396.04	678.76
396.23	587.47
396.42	592.16
396.62	655.35
396.81	606.20
397.00	678.76
397.19	660.03
397.39	671.73
397.58	716.20
397.77	739.61
397.97	723.23
398.16	669.39
398.35	692.80
398.55	629.60
398.74	643.65
398.93	676.41
399.12	627.26
399.32	622.58
399.51	767.70
399.70	744.29
399.90	716.20
400.09	772.38
400.28	830.89
400.47	669.39
400.67	830.89
400.86	767.70
401.05	716.20
401.24	788.76
401.44	800.46
401.63	840.25
401.82	805.14
402.01	847.27
402.21	880.04
402.40	748.97
402.59	851.96
402.78	830.89
402.97	877.70
403.17	926.85
403.36	861.32
403.55	856.64
403.74	828.55
403.93	933.87
404.13	994.73
404.32	875.36
404.51	809.83
404.70	880.04
404.89	856.64
405.09	999.41
405.28	954.94
405.47	931.53
405.66	983.02
405.85	940.90
406.05	987.71
406.24	1004.09
406.43	1114.10
406.62	1036.86
406.81	978.34
407.00	1050.90
407.20	983.02
407.39	947.92
407.58	1053.24
407.77	1095.37
407.96	1071.97
408.15	1130.48
408.34	1041.54
408.54	1102.39
408.73	1174.95
408.92	1062.60
409.11	1228.78
409.30	1090.69
409.49	1130.48
409.68	1156.22
409.87	1086.01
410.07	1153.88
410.26	1137.50
410.45	1233.46
410.64	1104.73
410.83	1231.12
411.02	1146.86
411.21	1296.66
411.40	1329.42
411.59	1238.14
411.78	1277.93
411.98	1249.85
412.17	1280.27
412.36	1235.80
412.55	1355.17
412.74	1446.45
412.93	1446.45
413.12	1301.34
413.31	1373.89
413.50	1359.85
413.69	1373.89
413.88	1411.34
414.07	1455.81
414.26	1439.43
414.45	1526.03
414.64	1404.32
414.83	1549.43
415.02	1570.50
415.22	1549.43
415.41	1596.25
415.60	1575.18
415.79	1612.63
415.98	1568.16
416.17	1657.10
416.36	1507.30
416.55	1600.93
416.74	1675.82
416.93	1668.80
417.12	1701.57
417.31	1799.87
417.50	1640.72
417.69	1762.42
417.88	1849.02
418.07	1753.06
418.26	1689.87
418.45	1687.53
418.64	1872.43
418.83	1778.81
419.02	1872.43
419.21	1863.07
419.39	1860.73
419.58	1797.53
419.77	1851.36
419.96	1842.00
420.15	1912.22
420.34	1874.77
420.53	1933.28
420.72	1963.71
420.91	1966.05
421.10	2012.86
421.29	2062.01
421.48	2040.95
421.67	1919.24
421.86	1895.83
422.05	1902.86
422.24	1994.14
422.43	1987.11
422.61	2115.84
422.80	2043.29
422.99	2071.37
423.18	1982.43
423.37	2136.91
423.56	2099.46
423.75	1994.14
423.94	1968.39
424.13	1881.79
424.32	1898.17
424.50	1984.77
424.69	1980.09
424.88	1973.07
425.07	1973.07
425.26	2080.74
425.45	2069.03
425.64	1928.60
425.83	2050.31
426.01	2172.02
426.20	2122.87
426.39	2113.50
426.58	2029.24
426.77	2167.34
426.96	2111.16
427.15	2122.87
427.33	2136.91
427.52	2237.55
427.71	2186.06
427.90	2148.61
428.09	2230.53
428.28	2101.80
428.46	2062.01
428.65	2223.51
428.84	2279.68
429.03	2319.47
429.22	2188.40
429.40	2333.51
429.59	2256.28
429.78	2179.04
429.97	2083.08
430.16	2265.64
430.34	2223.51
430.53	2275.00
430.72	2431.82
430.91	2298.41
431.10	2157.97
431.28	2347.56
431.47	2406.07
431.66	2457.56
431.85	2366.28
432.03	2457.56
432.22	2480.97
432.41	2424.80
432.60	2600.34
432.79	2480.97
432.97	2408.41
433.16	2527.78
433.35	2401.39
433.54	2609.70
433.72	2539.48
433.91	2586.29
434.10	2483.31
434.28	2537.14
434.47	2452.88
434.66	2677.57
434.85	2640.12
435.03	2616.72
435.22	2689.28
435.41	2766.51
435.59	2623.74
435.78	2586.29
435.97	2731.41
436.16	2651.83
436.34	2588.63
436.53	2686.94
436.72	2750.13
436.90	2693.96
437.09	2787.58
437.28	2679.91
437.46	2682.25
437.65	2633.10
437.84	2846.09
438.02	2820.35
438.21	2796.94
438.40	2696.30
438.58	2981.84
438.77	2956.10
438.96	2787.58
439.14	2995.89
439.33	2935.03
439.52	3042.70
439.70	3028.65
439.89	2960.78
440.08	2991.20
440.26	3084.83
440.45	3119.93
440.63	3131.64
440.82	3094.19
441.01	3208.87
441.19	3119.93
441.38	3255.69
441.57	3335.26
441.75	3325.90
441.94	3279.09
442.12	3220.58
442.31	3337.60
442.50	3239.30
442.68	3276.75
442.87	3396.12
443.05	3227.60
443.24	3246.32
443.43	3445.27
443.61	3384.41
443.80	3384.41
443.98	3344.63
444.17	3279.09
444.35	3503.78
444.54	3513.14
444.73	3410.16
444.91	3571.66
445.10	3391.44
445.28	3452.29
445.47	3452.29
445.65	3421.86
445.84	3473.36
446.02	3482.72
446.21	3684.00
446.39	3377.39
446.58	3606.77
446.77	3492.08
446.95	3482.72
447.14	3466.33
447.32	3496.76
447.51	3665.28
447.69	3438.25
447.88	3644.21
448.06	3566.98
448.25	3524.85
448.43	3574.00
448.62	3562.30
448.80	3662.94
448.99	3599.74
449.17	3571.66
449.36	3669.96
449.54	3684.00
449.73	3639.53
449.91	3698.05
450.10	3749.54
450.28	3801.03
450.46	3794.01
450.65	3695.71
450.83	3822.09
451.02	3763.58
451.20	3808.05
451.39	3747.20
451.57	3824.44
451.76	3772.94
451.94	3836.14
452.13	3929.76
452.31	3845.50
452.49	3735.50
452.68	3871.25
452.86	3969.55
453.05	3847.84
453.23	4070.19
453.42	3775.28
453.60	3861.88
453.78	3957.85
453.97	3908.69
454.15	4058.49
454.34	3913.38
454.52	3981.25
454.70	4114.66
454.89	4070.19
455.07	4077.21
455.26	4011.68
455.44	4191.90
455.62	4063.17
455.81	4072.53
455.99	4156.79
456.17	4297.22
456.36	4133.39
456.54	4257.43
456.73	4229.35
456.91	4395.53
457.09	4264.46
457.28	4306.59
457.46	4248.07
457.64	4386.16
457.83	4383.82
458.01	4257.43
458.19	4500.85
458.38	4491.49
458.56	4402.55
458.74	4470.42
458.93	4486.81
459.11	4304.25
459.29	4362.76
459.48	4535.96
459.66	4454.04
459.84	4561.70
460.03	4650.64
460.21	4737.24
460.39	4477.44
460.57	4372.12
460.76	4667.03
460.94	4760.65
461.12	4784.06
461.31	4575.75
461.49	4683.41
461.67	4622.56
461.85	4844.91
462.04	4758.31
462.22	5123.43
462.40	4800.44
462.59	4861.29
462.77	4870.65
462.95	4924.49
463.13	4767.67
463.32	4908.10
463.50	4830.87
463.68	4877.68
463.86	4898.74
464.05	4975.98
464.23	4884.70
464.41	4814.48
464.59	5039.17
464.78	5053.22
464.96	4924.49
465.14	4746.61
465.32	5032.15
465.50	5025.13
465.69	4973.64
465.87	4901.08
466.05	4938.53
466.23	4940.87
466.41	5025.13
466.60	5261.52
466.78	4973.64
466.96	4985.34
467.14	5025.13
467.32	5322.38
467.51	5085.98
467.69	5172.58
467.87	5027.47
468.05	5146.84
468.23	5088.32
468.41	5114.07
468.60	5203.01
468.78	5245.14
468.96	5203.01
469.14	5305.99
469.32	5336.42
469.50	5280.25
469.69	5401.96
469.87	5518.98
470.05	5380.89
470.23	5394.93
470.41	5607.92
470.59	5376.21
470.77	5366.85
470.95	5467.49
471.14	5474.51
471.32	5497.92
471.50	5746.02
471.68	5530.69
471.86	5596.22
472.04	5685.16
472.22	5940.28
472.40	5755.38
472.58	5839.64
472.77	5921.56
472.95	5996.45
473.13	6193.06
473.31	5781.12
473.49	5767.08
473.67	5998.79
473.85	5968.37
474.03	6005.81
474.21	5994.11
474.39	6106.46
474.57	6146.25
474.75	6218.80
474.93	6099.44
475.12	6050.28
475.30	6307.74
475.48	6321.79
475.66	6286.68
475.84	6312.42
476.02	6438.81
476.20	6448.18
476.38	6621.38
476.56	6534.78
476.74	6724.36
476.92	6530.09
477.10	6684.57
477.28	6799.26
477.46	6635.42
477.64	6878.83
477.82	6822.66
478.00	7169.06
478.18	7054.37
478.36	7164.38
478.54	7180.76
478.72	7054.37
478.90	7049.69
479.08	7162.04
479.26	7405.46
479.44	7297.79
479.62	7510.78
479.80	7325.88
479.98	7485.03
480.16	7637.17
480.34	7578.65
480.52	7815.05
480.70	7653.55
480.88	7845.48
481.06	7742.49
481.24	7840.79
481.41	8154.43
481.59	8084.21
481.77	7873.56
481.95	7983.57
482.13	8287.84
482.31	8229.32
482.49	8397.84
482.67	8421.25
482.85	8592.11
483.03	8613.17
483.21	8800.41
483.39	8514.87
483.57	8678.71
483.74	8936.17
483.92	8877.65
484.10	8950.21
484.28	8990.00
484.46	9071.92
484.64	9458.10
484.82	8952.55
485.00	9104.68
485.18	9329.38
485.35	9500.23
485.53	9390.23
485.71	9451.08
485.89	9867.70
486.07	9509.60
486.25	9579.81
486.43	9827.91
486.61	9767.06
486.78	10211.76
486.96	10066.64
487.14	10436.45
487.32	10160.27
487.50	10092.39
487.68	10399.00
487.85	10455.17
488.03	10541.77
488.21	10904.56
488.39	10700.93
488.57	10881.15
488.75	10965.41
488.92	10963.07
489.10	11021.58
489.28	10995.84
489.46	11108.18
489.64	11091.80
489.81	11253.30
489.99	11389.05
490.17	11454.58
490.35	11768.21
490.53	11489.69
490.70	11644.17
490.88	11552.88
491.06	11833.75
491.24	11674.59
491.41	11950.78
491.59	12116.95
491.77	12140.36
491.95	12339.30
492.13	12072.48
492.30	12198.87
492.48	12524.21
492.66	12542.93
492.84	12297.17
493.01	12519.53
493.19	12945.50
493.37	12697.41
493.54	12776.98
493.72	13102.32
493.90	12933.80
494.08	13259.13
494.25	13076.57
494.43	13184.24
494.61	13429.99
494.79	13324.67
494.96	13406.59
495.14	13724.90
495.32	13673.41
495.49	13816.18
495.67	13865.33
495.85	13855.97
496.02	14068.96
496.20	14150.88
496.38	14125.13
496.55	14150.88
496.73	14651.75
496.91	14246.84
497.09	14579.20
497.26	14513.66
497.44	14537.07
497.62	14644.73
497.79	14654.09
497.97	14766.44
498.14	14881.13
498.32	14998.15
498.50	15049.64
498.67	15260.29
498.85	15227.53
499.03	15171.35
499.20	15328.17
499.38	15379.66
499.56	15410.09
499.73	15286.04
499.91	15510.73
500.08	15548.18
500.26	15272.00
500.44	15669.89
500.61	15644.14
500.79	15370.30
500.97	15833.72
501.14	16088.84
501.32	16006.92
501.49	15894.58
501.67	15976.50
501.84	16095.86
502.02	15733.08
502.20	15976.50
502.37	16360.34
502.55	16496.10
502.72	16578.01
502.90	16379.07
503.07	16231.62
503.25	16570.99
503.43	16496.10
503.60	16699.72
503.78	16456.31
503.95	16664.61
504.13	16725.47
504.30	16751.21
504.48	16683.34
504.65	16718.45
504.83	16851.86
505.01	17266.13
505.18	17376.14
505.36	17287.20
505.53	17212.30
505.71	17078.89
505.88	17415.93
506.06	17317.62
506.23	17373.80
506.41	17462.74
506.58	17439.33
506.76	17678.07
506.93	17455.72
507.11	17476.78
507.28	17654.66
507.46	17685.09
507.63	17830.20
507.81	18382.57
507.98	18047.87
508.16	17940.21
508.33	17965.95
508.50	18071.28
508.68	18218.73
508.85	18284.26
509.03	18366.18
509.20	18523.00
509.38	18696.20
509.55	18689.18
509.73	18651.73
509.90	18410.65
510.08	18579.17
510.25	18548.75
510.42	18665.77
510.60	18871.74
510.77	18916.21
510.95	18867.06
511.12	18885.78
511.30	18913.87
511.47	19056.64
511.64	19190.05
511.82	19154.94
511.99	19213.46
512.17	19534.11
512.34	19515.39
512.51	19342.19
512.69	19232.18
512.86	19466.24
513.04	19735.40
513.21	19585.60
513.38	19669.86
513.56	19503.68
513.73	19662.84
513.90	19576.24
514.08	19836.04
514.25	20063.07
514.43	19868.81
514.60	19964.77
514.77	19913.28
514.95	20322.87
515.12	20152.01
515.29	19903.92
515.47	20020.94
515.64	20119.24
515.81	20308.83
515.99	20641.18
516.16	20709.06
516.33	20573.31
516.51	20812.04
516.68	20407.13
516.85	20582.67
517.03	20631.82
517.20	20723.10
517.37	20875.24
517.54	20943.11
517.72	21120.99
517.89	20554.58
518.06	21153.76
518.24	21233.34
518.41	20891.62
518.58	21252.06
518.75	20912.69
518.93	21170.15
519.10	21149.08
519.27	21418.24
519.45	20961.84
519.62	21177.17
519.79	21287.17
519.96	21289.51
520.14	21549.31
520.31	21357.39
520.48	21750.60
520.65	21598.46
520.83	21376.11
521.00	21537.61
521.17	21802.09
521.34	21729.53
521.52	21930.82
521.69	21891.03
521.86	21928.48
522.03	21902.73
522.20	22335.73
522.38	22267.86
522.55	22134.45
522.72	22178.92
522.89	22106.36
523.07	22066.57
523.24	22501.91
523.41	22665.75
523.58	22178.92
523.75	22452.76
523.92	22555.74
524.10	22637.66
524.27	22670.43
524.44	22738.30
524.61	22616.60
524.78	22941.93
524.96	22998.10
525.13	23033.21
525.30	23021.51
525.47	22775.75
525.64	22801.50
525.81	23218.11
525.98	22995.76
526.16	23007.47
526.33	23005.13
526.50	23157.26
526.67	23051.94
526.84	23044.91
527.01	23119.81
527.18	23456.85
527.36	23339.82
527.53	23506.00
527.70	23433.44
527.87	23491.96
528.04	23339.82
528.21	23555.15
528.38	23782.18
528.55	23534.09
528.72	23641.75
528.89	23716.65
529.07	23672.18
529.24	23845.38
529.41	24116.88
529.58	23442.81
529.75	23714.31
529.92	23908.57
530.09	23833.68
530.26	23859.42
530.43	23676.86
530.60	24002.19
530.77	23962.40
530.94	23927.30
531.11	23608.98
531.28	23697.92
531.46	24514.77
531.63	24301.78
531.80	24416.47
531.97	24711.38
532.14	24549.88
532.31	24126.24
532.48	24208.16
532.65	24641.16
532.82	24032.62
532.99	24430.51
533.16	24341.57
533.33	24903.30
533.50	24603.71
533.67	24936.07
533.84	24247.95
534.01	24489.03
534.18	24629.46
534.35	24966.49
534.52	24966.49
534.69	25017.99
534.86	25067.14
535.03	24683.29
535.20	24931.39
535.37	24940.75
535.54	25362.04
535.71	25247.36
535.88	25067.14
536.05	24828.40
536.22	25490.77
536.38	25532.90
536.55	25600.78
536.72	25113.95
536.89	25228.63
537.06	25352.68
537.23	25209.91
537.40	25273.10
537.57	25273.10
537.74	25528.22
537.91	25680.36
538.08	25888.67
538.25	25350.34
538.42	25928.45
538.59	25783.34
538.75	25481.41
538.92	25434.60
539.09	25919.09
539.26	25982.29
539.43	25834.83
539.60	26064.21
539.77	25778.66
539.94	26284.22
540.11	25839.51
540.28	25771.64
540.44	26197.62
540.61	25942.50
540.78	26073.57
540.95	26162.51
541.12	25905.05
541.29	26199.96
541.46	26064.21
541.62	25881.64
541.79	25706.10
541.96	25781.00
542.13	26160.17
542.30	26565.08
542.47	26143.78
542.63	26511.25
542.80	26539.33
542.97	26513.59
543.14	26822.54
543.31	26455.08
543.48	26391.88
543.64	26806.16
543.81	26810.84
543.98	26991.06
544.15	26789.77
544.32	27159.58
544.48	27220.43
544.65	26962.97
544.82	27374.91
544.99	26567.42
545.16	26635.30
545.32	26735.94
545.49	27131.49
545.66	27178.30
545.83	27012.12
546.00	27412.35
546.16	26962.97
546.33	27075.32
546.50	26740.62
546.67	26895.10
546.83	27002.76
547.00	26892.76
547.17	27360.86
547.34	27388.95
547.50	27318.73
547.67	27913.23
547.84	27604.28
548.00	27562.15
548.17	27449.80
548.34	27241.50
548.51	27583.21
548.67	27625.34
548.84	27777.48
549.01	27597.26
549.18	27428.74
549.34	27630.02
549.51	27896.85
549.68	27604.28
549.84	27388.95
550.01	27941.32
550.18	27517.68
550.34	27667.47
550.51	27789.18
550.68	27777.48
550.84	27852.38
551.01	28046.64
551.18	27716.62
551.34	27793.86
551.51	27812.59
551.68	27735.35
551.84	27618.32
552.01	27892.16
552.18	28198.77
552.34	28156.64
552.51	28070.04
552.68	28016.21
552.84	28046.64
553.01	28364.95
553.18	28114.52
553.34	28322.82
553.51	28390.70
553.67	28299.42
553.84	28886.89
554.01	28376.66
554.17	27999.83
554.34	28271.33
554.51	28226.86
554.67	28683.27
554.84	28278.35
555.00	28559.22
555.17	28481.98
555.33	28425.81
555.50	28240.90
555.67	28306.44
555.83	28386.02
556.00	28690.29
556.16	28723.05
556.33	28929.02
556.50	28517.09
556.66	28769.86
556.83	28936.04
556.99	29060.09
557.16	28936.04
557.32	28711.35
557.49	29020.30
557.65	28797.95
557.82	28790.93
557.98	28416.44
558.15	28938.38
558.32	28987.53
558.48	29039.03
558.65	29319.89
558.81	29020.30
558.98	29041.37
559.14	28931.36
559.31	28828.38
559.47	28718.37
559.64	29151.37
559.80	29123.29
559.97	29062.43
560.13	28783.91
560.30	29170.10
560.46	29120.95
560.63	28961.79
560.79	29268.40
560.96	29200.52
561.12	29123.29
561.29	29064.77
561.45	28936.04
561.61	29303.51
561.78	29432.24
561.94	29202.86
562.11	29050.73
562.27	29589.05
562.44	29123.29
562.60	29230.95
562.77	29530.54
562.93	29516.50
563.10	29457.98
563.26	29324.57
563.42	29872.26
563.59	29167.76
563.75	29376.06
563.92	29315.21
564.08	29607.78
564.24	29415.85
564.41	29432.24
564.57	29343.30
564.74	29401.81
564.90	29582.03
565.07	29834.81
565.23	29717.78
565.39	29743.53
565.56	29919.07
565.72	29401.81
565.88	29795.02
566.05	29752.89
566.21	29317.55
566.38	29486.07
566.54	29905.02
566.70	30120.35
566.87	29970.56
567.03	29972.90
567.19	29755.23
567.36	29926.09
567.52	29687.36
567.68	29659.27
567.85	29783.32
568.01	29544.58
568.17	29848.85
568.34	29790.34
568.50	30089.93
568.66	29776.30
568.83	30036.09
568.99	29553.94
569.15	29788.00
569.32	29949.50
569.48	29727.14
569.64	29900.34
569.81	29886.30
569.97	29745.87
570.13	29788.00
570.30	29832.47
570.46	30188.23
570.62	30031.41
570.78	29631.18
570.95	29783.32
571.11	29685.01
571.27	29748.21
571.43	29755.23
571.60	29827.79
571.76	29837.15
571.92	29862.90
572.09	29809.06
572.25	30066.52
572.41	30223.34
572.57	30064.18
572.74	30356.75
572.90	29752.89
573.06	30082.91
573.22	30066.52
573.38	29923.75
573.55	30012.69
573.71	30085.25
573.87	30199.93
574.03	29942.47
574.20	30263.13
574.36	29979.92
574.52	30118.01
574.68	30071.20
574.84	29951.84
575.01	30195.25
575.17	30237.38
575.33	29755.23
575.49	30094.61
575.65	30625.91
575.82	30213.98
575.98	30047.80
576.14	30110.99
576.30	30511.22
576.46	30059.50
576.62	30078.22
576.79	30017.37
576.95	30167.16
577.11	30529.95
577.27	30438.67
577.43	30366.11
577.59	30146.10
577.75	30033.75
577.92	30153.12
578.08	29783.32
578.24	30012.69
578.40	30359.09
578.56	30291.21
578.72	30059.50
578.88	30527.61
579.04	30843.58
579.21	30136.74
579.37	30417.60
579.53	30246.74
579.69	30380.15
579.85	30513.56
580.01	29998.65
580.17	30382.49
580.33	30239.72
580.49	30122.69
580.65	30274.83
580.82	30403.56
580.98	30036.09
581.14	30492.50
581.30	30380.15
581.46	30216.32
581.62	30242.06
581.78	30520.59
581.94	30445.69
582.10	29944.81
582.26	30302.92
582.42	30597.82
582.58	30661.02
582.74	30682.08
582.90	30235.04
583.06	30501.86
583.22	30471.43
583.38	30450.37
583.54	30396.54
583.70	30235.04
583.86	30204.61
584.02	30066.52
584.18	30431.65
584.34	30515.90
584.50	30651.66
584.66	30136.74
584.82	30321.64
584.98	30532.29
585.14	30412.92
585.30	30225.68
585.46	30335.68
585.62	30040.78
585.78	30602.50
585.94	30160.14
586.10	30354.41
586.26	30712.51
586.42	30682.08
586.58	30623.57
586.74	30759.32
586.90	30525.27
587.06	30448.03
587.22	30120.35
587.38	30766.34
587.54	30731.23
587.70	30953.58
587.86	30661.02
588.02	30644.63
588.18	31133.81
588.34	30654.00
588.49	30646.97
588.65	30677.40
588.81	30553.35
588.97	30618.89
589.13	30595.48
589.29	30593.14
589.45	30506.54
589.61	30747.62
589.77	30888.05
589.93	31030.82
590.08	30658.68
590.24	30937.20
590.40	30974.65
590.56	31182.96
590.72	30387.18
590.88	30494.84
591.04	30703.15
591.20	31131.47
591.35	30991.03
591.51	31168.91
591.67	30646.97
591.83	31353.82
591.99	31000.40
592.15	30747.62
592.31	30881.03
592.46	30768.68
592.62	30263.13
592.78	30457.39
592.94	30726.55
593.10	30522.93
593.26	30766.34
593.41	30820.17
593.57	30993.37
593.73	31232.11
593.89	31058.91
594.05	30698.47
594.20	30618.89
594.36	30836.56
594.52	30799.11
594.68	30686.76
594.84	31101.04
594.99	31063.59
595.15	30937.20
595.31	30941.88
595.47	30920.82
595.62	30801.45
595.78	30852.94
595.94	30782.73
596.10	30536.97
596.25	31131.47
596.41	30775.70
596.57	30590.80
596.73	30815.49
596.88	30520.59
597.04	31056.57
597.20	31264.88
597.36	30841.24
597.51	31211.04
597.67	30740.60
597.83	31131.47
597.99	31117.42
598.14	31426.37
598.30	30752.30
598.46	31199.34
598.61	31253.17
598.77	31087.00
598.93	31164.23
599.09	31494.25
599.24	31208.70
599.40	31042.53
599.56	31117.42
599.71	31058.91
599.87	31150.19
600.03	30731.23
600.18	30761.66
600.34	30588.46
600.50	30705.49
600.65	31047.21
600.81	30785.07
600.97	31356.16
601.12	31094.02
601.28	31054.23
601.44	31105.72
601.59	31496.59
601.75	30874.01
601.91	31328.07
602.06	30780.39
602.22	31161.89
602.37	31367.86
602.53	31222.75
602.69	31508.29
602.84	31281.26
603.00	31236.79
603.16	31447.44
603.31	31061.25
603.47	31283.60
603.62	30843.58
603.78	30981.67
603.94	30675.06
604.09	31152.53
604.25	31084.65
604.40	30745.28
604.56	31314.03
604.71	31407.65
604.87	30623.57
605.03	31204.02
605.18	30955.93
605.34	31358.50
605.49	30696.13
605.65	31185.30
605.80	30803.79
605.96	30923.16
606.12	30909.11
606.27	31096.36
606.43	30639.95
606.58	31157.21
606.74	30984.01
606.89	31250.83
607.05	31075.29
607.20	31178.28
607.36	31023.80
607.51	31014.44
607.67	30506.54
607.82	30768.68
607.98	30768.68
608.13	30923.16
608.29	31051.89
608.44	30775.70
608.60	31070.61
608.75	31136.15
608.91	30841.24
609.06	31098.70
609.22	31047.21
609.37	30574.42
609.53	30665.70
609.68	31119.76
609.84	30808.47
609.99	30614.21
610.15	30876.35
610.30	30693.79
610.46	30478.46
610.61	30792.09
610.76	30918.48
610.92	30553.35
611.07	31178.28
611.23	30394.20
611.38	30897.41
611.54	30857.62
611.69	30321.64
611.84	30422.28
612.00	30293.55
612.15	30457.39
612.31	31087.00
612.46	30494.84
612.62	30808.47
612.77	30768.68
612.92	30520.59
613.08	30518.25
613.23	30689.10
613.39	30672.72
613.54	30321.64
613.69	30644.63
613.85	30565.06
614.00	30583.78
614.15	30794.43
614.31	30483.14
614.46	30682.08
614.62	30426.96
614.77	30480.80
614.92	30242.06
615.08	30436.33
615.23	30567.40
615.38	30370.79
615.54	30536.97
615.69	30216.32
615.84	30319.30
616.00	30235.04
616.15	30008.01
616.30	30455.05
616.46	30462.07
616.61	30239.72
616.76	30565.06
616.92	30551.01
617.07	30054.82
617.22	29715.44
617.37	30230.36
617.53	30436.33
617.68	30352.07
617.83	29795.02
617.99	30134.40
618.14	29874.60
618.29	29909.71
618.45	29958.86
618.60	30223.34
618.75	30036.09
618.90	30052.48
619.06	30293.55
619.21	30099.29
619.36	30038.44
619.51	29858.21
619.67	29619.48
619.82	29926.09
619.97	29825.45
620.12	29900.34
620.28	29783.32
620.43	29940.13
620.58	30036.09
620.73	29991.62
620.89	30274.83
621.04	30211.64
621.19	29867.58
621.34	30183.55
621.49	29729.48
621.65	29841.83
621.80	29961.20
621.95	29624.16
622.10	29792.68
622.25	29680.33
622.41	29914.39
622.56	29921.41
622.71	29872.26
622.86	29886.30
623.01	29668.63
623.16	29628.84
623.32	29436.92
623.47	29755.23
623.62	29699.06
623.77	29727.14
623.92	29336.27
624.07	29560.97
624.23	29633.52
624.38	29472.03
624.53	29631.18
624.68	29844.17
624.83	29851.19
624.98	29476.71
625.13	29127.97
625.29	29673.31
625.44	29371.38
625.59	29069.45
625.74	29301.17
625.89	29064.77
626.04	29598.41
626.19	29163.08
626.34	29242.65
626.49	28964.13
626.65	29259.04
626.80	29322.23
626.95	28907.96
627.10	28671.56
627.25	28922.00
627.40	29350.32
627.55	28828.38
627.70	28900.94
627.85	29001.58
628.00	28952.43
628.15	29333.93
628.30	28577.94
628.45	28584.96
628.60	29111.58
628.76	29420.53
628.91	28943.06
629.06	28898.59
629.21	29064.77
629.36	28898.59
629.51	28826.04
629.66	28931.36
629.81	28760.50
629.96	28816.68
630.11	28489.00
630.26	29137.33
630.41	28842.42
630.56	28294.74
630.71	28907.96
630.86	28634.11
631.01	28624.75
631.16	28718.37
631.31	28594.32
631.46	28386.02
631.61	29039.03
631.76	28900.94
631.91	28868.17
632.06	28311.12
632.21	28549.85
632.36	28362.61
632.51	28166.01
632.66	28631.77
632.81	28350.91
632.96	28297.08
633.10	28407.08
633.25	28451.55
633.40	28687.95
633.55	28856.46
633.70	28379.00
633.85	28334.53
634.00	28245.58
634.15	27824.29
634.30	28287.71
634.45	28004.51
634.60	28350.91
634.75	28294.74
634.90	28088.77
635.05	28058.34
635.19	28107.49
635.34	28507.72
635.49	28449.21
635.64	28383.68
635.79	28343.89
635.94	28034.94
636.09	28526.45
636.24	28264.31
636.39	27700.24
636.53	28367.29
636.68	28166.01
636.83	27777.48
636.98	28114.52
637.13	28041.96
637.28	27871.10
637.43	28203.46
637.57	28060.68
637.72	27920.25
637.87	27908.55
638.02	27990.47
638.17	27889.82
638.32	27580.87
638.46	27470.87
638.61	27810.25
638.76	27625.34
638.91	27552.79
639.06	27576.19
639.20	27967.06
639.35	28056.00
639.50	27442.78
639.65	28081.75
639.80	27566.83
639.94	27929.61
640.09	27672.15
640.24	27557.47
640.39	27536.40
640.54	27367.88
640.68	27524.70
640.83	27527.04
640.98	27271.92
641.13	27410.01
641.27	27583.21
641.42	27527.04
641.57	27702.58
641.72	27321.07
641.86	27513.00
642.01	27452.14
642.16	27065.96
642.31	27323.41
642.45	27325.75
642.60	26785.09
642.75	27220.43
642.90	27110.43
643.04	26953.61
643.19	27023.83
643.34	27047.23
643.48	27529.38
643.63	27538.74
643.78	27042.55
643.93	27370.22
644.07	27091.70
644.22	27503.64
644.37	27199.37
644.51	27098.72
644.66	27080.00
644.81	26969.99
644.95	26757.00
645.10	27016.80
645.25	26869.35
645.39	26946.59
645.54	27199.37
645.69	26691.47
645.83	26637.64
645.98	27292.99
646.13	27232.13
646.27	27395.97
646.42	27192.34
646.57	27065.96
646.71	27112.77
646.86	27047.23
647.00	27101.06
647.15	26969.99
647.30	26616.57
647.44	26773.39
647.59	27035.53
647.74	26920.84
647.88	26927.86
648.03	26993.40
648.17	26923.18
648.32	27246.18
648.47	26845.94
648.61	26441.03
648.76	26757.00
648.90	26820.20
649.05	26565.08
649.20	26445.71
649.34	26604.87
649.49	26373.16
649.63	26291.24
649.78	26466.78
649.92	26501.89
650.07	26618.91
650.21	26281.88
650.36	26658.70
650.51	26267.83
650.65	26710.19
650.80	26785.09
650.94	26457.42
651.09	26476.14
651.23	26361.45
651.38	26206.98
651.52	26134.42
651.67	26349.75
651.81	26237.41
651.96	26239.75
652.10	26316.98
652.25	26057.18
652.39	26183.57
652.54	26349.75
652.68	26085.27
652.83	26115.70
652.97	26567.42
653.12	26515.93
653.26	26305.28
653.41	26235.06
653.55	26211.66
653.70	25802.07
653.84	25790.36
653.99	25963.56
654.13	26230.38
654.27	25832.49
654.42	25881.64
654.56	26134.42
654.71	26309.96
654.85	26270.17
655.00	25996.33
655.14	26101.65
655.29	25727.17
655.43	26052.50
655.57	25781.00
655.72	26038.46
655.86	25949.52
656.01	25926.11
656.15	25968.24
656.30	26001.01
656.44	25722.49
656.58	25689.72
656.73	25860.58
656.87	25706.10
657.01	25537.59
657.16	25706.10
657.30	26125.06
657.45	25523.54
657.59	25544.61
657.73	25563.33
657.88	25530.56
658.02	25469.71
658.16	25624.18
658.31	25390.13
658.45	25301.19
658.60	25205.23
658.74	25397.15
658.88	25570.35
659.03	25465.03
659.17	25469.71
659.31	25490.77
659.46	25504.82
659.60	25497.80
659.74	25390.13
659.89	25036.71
660.03	25069.48
660.17	25294.17
660.32	25020.33
660.46	25041.39
660.60	24805.00
660.74	24748.82
660.89	24903.30
661.03	24741.80
661.17	24989.90
661.32	24620.10
661.46	24882.24
661.60	25160.76
661.74	24723.08
661.89	25106.93
662.03	24961.81
662.17	24751.17
662.31	24549.88
662.46	24877.55
662.60	24416.47
662.74	24636.48
662.88	24563.92
663.03	24772.23
663.17	24215.18
663.31	24306.46
663.45	24491.37
663.60	24372.00
663.74	24636.48
663.88	24613.07
664.02	24552.22
664.17	24465.62
664.31	24467.96
664.45	24243.27
664.59	23765.80
664.73	24470.30
664.88	24144.97
665.02	23828.99
665.16	23896.87
665.30	24292.42
665.44	24093.47
665.59	24201.14
665.73	23665.16
665.87	23374.93
666.01	23873.46
666.15	23662.82
666.29	23906.23
666.44	23974.11
666.58	23721.33
666.72	23934.32
666.86	24100.50
667.00	23580.90
667.14	23377.27
667.28	23924.96
667.43	23604.30
667.57	23702.61
667.71	23468.55
667.85	23400.68
667.99	23246.20
668.13	23309.40
668.27	23592.60
668.41	23297.69
668.56	22958.31
668.70	23513.02
668.84	23246.20
668.98	23276.63
669.12	23309.40
669.26	23215.77
669.40	23356.21
669.54	23178.33
669.68	22761.71
669.82	22965.34
669.96	22843.63
670.10	23007.47
670.25	22742.99
670.39	22806.18
670.53	22899.80
670.67	22803.84
670.81	22792.14
670.95	22672.77
671.09	22890.44
671.23	22515.95
671.37	22707.88
671.51	22569.79
671.65	22530.00
671.79	22576.81
671.93	22478.50
672.07	22277.22
672.21	22089.98
672.35	22462.12
672.49	22082.95
672.63	21769.32
672.77	22139.13
672.91	22429.35
673.05	22120.40
673.19	22359.14
673.33	22080.61
673.47	21790.39
673.61	21947.20
673.75	21762.30
673.89	22202.32
674.03	21607.83
674.17	21940.18
674.31	21666.34
674.45	21972.95
674.59	21551.65
674.73	21816.13
674.87	21790.39
675.01	21561.02
675.15	21532.93
675.29	21188.87
675.43	21376.11
675.56	21254.40
675.70	21455.69
675.84	21223.98
675.98	20748.85
676.12	21177.17
676.26	21142.06
676.40	21273.13
676.54	21118.65
676.68	21195.89
676.82	20425.86
676.96	20683.31
677.10	20898.64
677.23	20893.96
677.37	20374.36
677.51	20563.95
677.65	20645.87
677.79	20369.68
677.93	20264.36
678.07	20231.59
678.21	20095.84
678.34	20350.96
678.48	19927.32
678.62	19985.83
678.76	19992.86
678.90	19978.81
679.04	19964.77
679.18	19981.15
679.31	19782.21
679.45	19679.22
679.59	19475.60
679.73	19435.81
679.87	19459.21
680.00	19414.74
680.14	19344.53
680.28	19386.66
680.42	19487.30
680.56	19740.08
680.70	19566.88
680.83	19431.13
680.97	19255.59
681.11	18981.74
681.25	19403.04
681.39	18780.46
681.52	18991.11
681.66	18913.87
681.80	18848.33
681.94	18754.71
682.07	18799.18
682.21	18813.23
682.35	18710.24
682.49	18562.79
682.62	18710.24
682.76	18391.93
682.90	18537.04
683.04	18490.23
683.17	18436.40
683.31	18405.97
683.45	18363.84
683.59	18054.89
683.72	18340.44
683.86	18443.42
684.00	18260.86
684.13	18111.07
684.27	17862.97
684.41	17755.30
684.55	17664.02
684.68	17799.77
684.82	17673.39
684.96	17240.39
685.09	17696.79
685.23	17605.51
685.37	17532.95
685.50	17507.21
685.64	17219.32
685.78	17214.64
685.91	17273.15
686.05	17247.41
686.19	17078.89
686.32	17191.23
686.46	17146.76
686.60	16985.27
686.73	16830.79
686.87	16896.33
687.01	16594.40
687.14	16744.19
687.28	16566.31
687.42	16510.14
687.55	16475.03
687.69	16585.04
687.82	16547.59
687.96	16589.72
688.10	16486.73
688.23	16201.19
688.37	16350.98
688.50	16102.89
688.64	16091.18
688.78	16198.85
688.91	15922.66
689.05	15880.53
689.18	15899.26
689.32	15594.99
689.46	15793.94
689.59	15803.30
689.73	15655.84
689.86	15618.39
690.00	15829.04
690.13	15503.71
690.27	15632.44
690.41	15508.39
690.54	15609.03
690.68	15391.36
690.81	15403.07
690.95	15302.42
691.08	15393.70
691.22	15370.30
691.35	15063.69
691.49	15002.83
691.62	15089.43
691.76	15012.20
691.89	14984.11
692.03	14733.67
692.16	14721.97
692.30	14661.12
692.43	14813.25
692.57	14717.29
692.70	14684.52
692.84	14333.44
692.97	14443.45
693.11	14485.58
693.24	14501.96
693.38	14155.56
693.51	14490.26
693.65	14314.72
693.78	14310.04
693.92	14047.90
694.05	13902.78
694.19	14033.85
694.32	14242.16
694.45	13858.31
694.59	13720.22
694.72	13809.16
694.86	13647.66
694.99	13408.93
695.13	13699.16
695.26	13561.06
695.39	13170.19
695.53	13685.11
695.66	13439.36
695.80	13479.15
695.93	13369.14
696.07	13469.78
696.20	13291.90
696.33	13376.16
696.47	13188.92
696.60	13092.96
696.73	13097.64
696.87	12884.65
697.00	12917.42
697.14	13153.81
697.27	12659.96
697.40	12758.26
697.54	12638.89
697.67	12751.24
697.80	12568.68
697.94	12690.38
698.07	12521.87
698.21	12180.15
698.34	12432.93
698.47	12451.65
698.61	12308.88
698.74	12573.36
698.87	12336.96
699.01	12231.64
699.14	12063.12
699.27	11910.99
699.40	11922.69
699.54	12198.87
699.67	11707.36
699.80	11903.96
699.94	11721.40
700.07	11887.58
700.20	11499.05
700.34	11651.19
700.47	11468.62
700.60	11571.61
700.73	11613.74
700.87	11485.01
701.00	11356.28
701.13	11178.40
701.26	11358.62
701.40	11267.34
701.53	11433.52
701.66	11103.50
701.79	11304.79
701.93	11183.08
702.06	10899.87
702.19	10974.77
702.32	10738.38
702.46	10799.23
702.59	10647.10
702.72	10635.39
702.85	10843.70
702.99	10775.83
703.12	10532.41
703.25	10445.81
703.38	10684.55
703.51	10607.31
703.65	10647.10
703.78	10469.22
703.91	10469.22
704.04	10509.01
704.17	10326.44
704.31	10345.17
704.44	10216.44
704.57	10043.24
704.70	9963.66
704.83	9776.42
704.96	9998.77
705.10	9792.80
705.23	9811.53
>>>>>End Processed Spectral Data<<<<<
