SpectraSuite Data File
++++++++++++++++++++++++++++++++++++
Date: Fri Oct 18 13:58:12 GMT-05:00 2013
User: bianchi
Dark Spectrum Present: No
Reference Spectrum Present: No
Number of Sampled Component Spectra: 1
Spectrometers: USB2+H05261
Integration Time (usec): 50000 (USB2+H05261)
Spectra Averaged: 1 (USB2+H05261)
Boxcar Smoothing: 0 (USB2+H05261)
Correct for Electrical Dark: No (USB2+H05261)
Strobe/Lamp Enabled: No (USB2+H05261)
Correct for Detector Non-linearity: No (USB2+H05261)
Correct for Stray Light: No (USB2+H05261)
Number of Pixels in Processed Spectrum: 2048
>>>>>Begin Processed Spectral Data<<<<<
365.73	0.00
365.92	0.00
366.12	0.00
366.32	0.00
366.52	0.00
366.72	0.00
366.91	0.00
367.11	0.00
367.31	0.00
367.51	0.00
367.70	0.00
367.90	0.00
368.10	0.00
368.30	0.00
368.49	0.00
368.69	0.00
368.89	0.00
369.09	0.00
369.28	0.00
369.48	0.00
369.68	0.00
369.87	0.00
370.07	0.00
370.27	0.00
370.47	0.00
370.66	100.64
370.86	93.62
371.06	147.45
371.25	128.73
371.45	98.30
371.65	133.41
371.84	119.37
372.04	135.75
372.24	191.92
372.44	177.88
372.63	203.63
372.83	194.26
373.03	304.27
373.22	222.35
373.42	227.03
373.62	189.58
373.81	194.26
374.01	205.97
374.21	212.99
374.40	212.99
374.60	241.08
374.79	334.70
374.99	287.89
375.19	255.12
375.38	248.10
375.58	236.39
375.78	339.38
375.97	243.42
376.17	250.44
376.37	248.10
376.56	299.59
376.76	203.63
376.95	187.24
377.15	238.73
377.35	301.93
377.54	266.82
377.74	283.20
377.93	332.36
378.13	313.63
378.33	229.37
378.52	231.71
378.72	283.20
378.91	313.63
379.11	346.40
379.31	292.57
379.50	341.72
379.70	269.16
379.89	362.78
380.09	379.17
380.28	404.91
380.48	311.29
380.68	325.33
380.87	308.95
381.07	320.65
381.26	360.44
381.46	322.99
381.65	407.25
381.85	367.46
382.04	299.59
382.24	315.97
382.43	327.68
382.63	339.38
382.83	283.20
383.02	437.68
383.22	388.53
383.41	379.17
383.61	397.89
383.80	414.27
384.00	362.78
384.19	351.08
384.39	390.87
384.58	409.59
384.78	390.87
384.97	395.55
385.17	472.79
385.36	353.42
385.56	365.12
385.75	416.62
385.95	409.59
386.14	390.87
386.34	428.32
386.53	456.40
386.72	409.59
386.92	409.59
387.11	360.44
387.31	395.55
387.50	404.91
387.70	470.45
387.89	430.66
388.09	400.23
388.28	379.17
388.48	374.49
388.67	524.28
388.86	442.36
389.06	458.74
389.25	543.00
389.45	535.98
389.64	437.68
389.84	407.25
390.03	475.13
390.22	491.51
390.42	557.05
390.61	505.56
390.81	510.24
391.00	543.00
391.19	463.43
391.39	491.51
391.58	566.41
391.78	486.83
391.97	540.66
392.16	538.32
392.36	442.36
392.55	472.79
392.75	524.28
392.94	643.65
393.13	592.16
393.33	571.09
393.52	622.58
393.71	631.94
393.91	610.88
394.10	533.64
394.29	589.82
394.49	648.33
394.68	596.84
394.88	660.03
395.07	587.47
395.26	585.13
395.46	650.67
395.65	568.75
395.84	697.48
396.04	645.99
396.23	594.50
396.42	697.48
396.62	695.14
396.81	664.71
397.00	606.20
397.19	718.54
397.39	683.44
397.58	685.78
397.77	655.35
397.97	795.78
398.16	648.33
398.35	655.35
398.55	662.37
398.74	737.27
398.93	748.97
399.12	730.25
399.32	688.12
399.51	770.04
399.70	734.93
399.90	758.33
400.09	727.91
400.28	870.68
400.47	772.38
400.67	678.76
400.86	716.20
401.05	786.42
401.24	760.67
401.44	901.11
401.63	713.86
401.82	802.80
402.01	774.72
402.21	809.83
402.40	866.00
402.59	826.21
402.78	940.90
402.97	861.32
403.17	823.87
403.36	814.51
403.55	880.04
403.74	938.55
403.93	882.38
404.13	994.73
404.32	924.51
404.51	863.66
404.70	1018.13
404.89	971.32
405.09	1008.77
405.28	1053.24
405.47	1008.77
405.66	1046.22
405.85	952.60
406.05	957.28
406.24	961.96
406.43	959.62
406.62	1102.39
406.81	1078.99
407.00	1025.15
407.20	1046.22
407.39	1011.11
407.58	971.32
407.77	1083.67
407.96	1083.67
408.15	1149.20
408.34	1048.56
408.54	1207.72
408.73	1156.22
408.92	1097.71
409.11	1165.59
409.30	1198.35
409.49	1228.78
409.68	1156.22
409.87	1191.33
410.07	1254.53
410.26	1221.76
410.45	1249.85
410.64	1242.82
410.83	1228.78
411.02	1186.65
411.21	1212.40
411.40	1263.89
411.59	1207.72
411.78	1350.49
411.98	1242.82
412.17	1338.79
412.36	1306.02
412.55	1245.16
412.74	1320.06
412.93	1336.45
413.12	1341.13
413.31	1474.54
413.50	1409.00
413.69	1486.24
413.88	1423.05
414.07	1404.32
414.26	1516.67
414.45	1483.90
414.64	1444.11
414.83	1530.71
415.02	1624.33
415.22	1547.09
415.41	1488.58
415.60	1526.03
415.79	1579.86
415.98	1624.33
416.17	1659.44
416.36	1589.22
416.55	1607.95
416.74	1701.57
416.93	1741.36
417.12	1767.10
417.31	1699.23
417.50	1687.53
417.69	1764.76
417.88	1788.17
418.07	1771.79
418.26	1795.19
418.45	1813.92
418.64	1832.64
418.83	1846.68
419.02	1877.11
419.21	1811.57
419.39	1863.07
419.58	1706.25
419.77	1802.21
419.96	1886.47
420.15	1928.60
420.34	1919.24
420.53	1893.49
420.72	1944.99
420.91	1952.01
421.10	1963.71
421.29	2071.37
421.48	1987.11
421.67	1914.56
421.86	1961.37
422.05	1949.67
422.24	1921.58
422.43	1956.69
422.61	2050.31
422.80	2066.69
422.99	2181.38
423.18	2085.42
423.37	2143.93
423.56	2024.56
423.75	2069.03
423.94	2080.74
424.13	1987.11
424.32	1856.04
424.50	1937.96
424.69	2113.50
424.88	2106.48
425.07	2083.08
425.26	2146.27
425.45	2115.84
425.64	2052.65
425.83	2057.33
426.01	2085.42
426.20	2120.53
426.39	2176.70
426.58	2106.48
426.77	2026.90
426.96	2019.88
427.15	2204.78
427.33	2132.23
427.52	2125.21
427.71	2221.17
427.90	2139.25
428.09	2193.08
428.28	2235.21
428.46	2370.96
428.65	2235.21
428.84	2249.25
429.03	2415.43
429.22	2176.70
429.40	2284.36
429.59	2282.02
429.78	2260.96
429.97	2190.74
430.16	2190.74
430.34	2324.15
430.53	2427.14
430.72	2373.30
430.91	2253.94
431.10	2270.32
431.28	2392.03
431.47	2342.88
431.66	2441.18
431.85	2342.88
432.03	2401.39
432.22	2473.95
432.41	2471.61
432.60	2567.57
432.79	2394.37
432.97	2614.38
433.16	2551.18
433.35	2420.11
433.54	2431.82
433.72	2684.59
433.91	2516.08
434.10	2590.97
434.28	2546.50
434.47	2635.44
434.66	2686.94
434.85	2670.55
435.03	2502.03
435.22	2579.27
435.41	2775.88
435.59	2609.70
435.78	2635.44
435.97	2647.15
436.16	2665.87
436.34	2586.29
436.53	2764.17
436.72	2834.39
436.90	2654.17
437.09	2857.79
437.28	2771.19
437.46	2726.72
437.65	2750.13
437.84	2862.48
438.02	2733.75
438.21	2920.99
438.40	2789.92
438.58	2902.26
438.77	2942.05
438.96	2909.29
439.14	3019.29
439.33	3061.42
439.52	3108.23
439.70	2951.42
439.89	3089.51
440.08	3101.21
440.26	3101.21
440.45	3073.12
440.63	3150.36
440.82	3162.06
441.01	3138.66
441.19	3159.72
441.38	3398.46
441.57	3180.79
441.75	3197.17
441.94	3248.66
442.12	3297.81
442.31	3311.86
442.50	3349.31
442.68	3433.57
442.87	3419.52
443.05	3398.46
443.24	3623.15
443.43	3473.36
443.61	3342.28
443.80	3475.70
443.98	3337.60
444.17	3293.13
444.35	3311.86
444.54	3466.33
444.73	3529.53
444.91	3412.50
445.10	3435.91
445.28	3515.48
445.47	3520.17
445.65	3447.61
445.84	3555.27
446.02	3604.42
446.21	3524.85
446.39	3499.10
446.58	3581.02
446.77	3660.60
446.95	3501.44
447.14	3562.30
447.32	3585.70
447.51	3531.87
447.69	3564.64
447.88	3545.91
448.06	3487.40
448.25	3644.21
448.43	3618.47
448.62	3543.57
448.80	3712.09
448.99	3632.51
449.17	3616.13
449.36	3611.45
449.54	3735.50
449.73	3791.67
449.91	3735.50
450.10	3707.41
450.28	3906.35
450.46	3808.05
450.65	3742.52
450.83	3744.86
451.02	3691.02
451.20	3859.54
451.39	3946.14
451.57	3932.10
451.76	3777.62
451.94	3925.08
452.13	3880.61
452.31	3962.53
452.49	3819.75
452.68	3941.46
452.86	3882.95
453.05	3878.27
453.23	3948.48
453.42	3894.65
453.60	3882.95
453.78	3925.08
453.97	4007.00
454.15	3964.87
454.34	3899.33
454.52	4182.54
454.70	4156.79
454.89	4051.47
455.07	4067.85
455.26	4227.01
455.44	4306.59
455.62	4187.22
455.81	4311.27
455.99	4278.50
456.17	4231.69
456.36	4222.33
456.54	4306.59
456.73	4210.62
456.91	4411.91
457.09	4388.50
457.28	4517.23
457.46	4304.25
457.64	4470.42
457.83	4449.36
458.01	4238.71
458.19	4332.33
458.38	4423.61
458.56	4535.96
458.74	4479.79
458.93	4400.21
459.11	4669.37
459.29	4507.87
459.48	4554.68
459.66	4657.67
459.84	4538.30
460.03	4683.41
460.21	4519.57
460.39	4697.46
460.57	4608.51
460.76	4615.54
460.94	4671.71
461.12	4678.73
461.31	4830.87
461.49	4732.56
461.67	4753.63
461.85	4917.47
462.04	4847.25
462.22	5100.03
462.40	4807.46
462.59	4812.14
462.77	4882.36
462.95	4922.15
463.13	4898.74
463.32	4917.47
463.50	5025.13
463.68	4898.74
463.86	4863.63
464.05	4833.21
464.23	4971.30
464.41	5107.05
464.59	4823.84
464.78	5081.30
464.96	4863.63
465.14	4875.34
465.32	5132.79
465.50	5289.61
465.69	5210.03
465.87	5093.01
466.05	5163.22
466.23	5107.05
466.41	5158.54
466.60	5259.18
466.78	5057.90
466.96	5046.20
467.14	5130.45
467.32	5158.54
467.51	5231.10
467.69	5081.30
467.87	5247.48
468.05	5434.72
468.23	5317.70
468.41	5280.25
468.60	5259.18
468.78	5366.85
468.96	5282.59
469.14	5366.85
469.32	5652.39
469.50	5291.95
469.69	5502.60
469.87	5481.53
470.05	5511.96
470.23	5626.65
470.41	5462.81
470.59	5591.54
470.77	5509.62
470.95	5689.84
471.14	5631.33
471.32	5675.80
471.50	5823.25
471.68	5607.92
471.86	5633.67
472.04	5748.36
472.22	5933.26
472.40	5652.39
472.58	5755.38
472.77	5781.12
472.95	6008.16
473.13	6181.35
473.31	6012.84
473.49	6012.84
473.67	6045.60
473.85	5996.45
474.03	6125.18
474.21	6094.76
474.39	6043.26
474.57	6389.66
474.75	6382.64
474.93	6267.95
475.12	6347.53
475.30	6289.02
475.48	6326.47
475.66	6267.95
475.84	6375.62
476.02	6490.31
476.20	6525.41
476.38	6768.83
476.56	6731.38
476.74	6651.80
476.92	6857.77
477.10	6626.06
477.28	6860.11
477.46	6750.10
477.64	6977.14
477.82	7070.76
478.00	7002.88
478.18	7087.14
478.36	7030.97
478.54	7311.83
478.72	7173.74
478.90	7253.32
479.08	7234.60
479.26	7482.69
479.44	7445.24
479.62	7564.61
479.80	7466.31
479.98	7653.55
480.16	7768.24
480.34	7616.10
480.52	7749.51
480.70	7733.13
480.88	7791.64
481.06	7976.55
481.24	7896.97
481.41	7957.82
481.59	8091.23
481.77	8067.83
481.95	8196.56
482.13	8257.41
482.31	8229.32
482.49	8348.69
482.67	8421.25
482.85	8557.00
483.03	8711.47
483.21	9001.70
483.39	8992.34
483.57	8887.01
483.74	8870.63
483.92	8889.35
484.10	8917.44
484.28	9102.34
484.46	9294.27
484.64	9376.19
484.82	9404.27
485.00	9195.96
485.18	9268.52
485.35	9591.52
485.53	9678.12
485.71	9483.85
485.89	9954.30
486.07	9619.60
486.25	9797.48
486.43	9853.66
486.61	9888.76
486.78	10097.07
486.96	10003.45
487.14	10359.21
487.32	10401.34
487.50	10258.57
487.68	10789.87
487.85	10637.73
488.03	10630.71
488.21	10712.63
488.39	10677.52
488.57	10967.75
488.75	10967.75
488.92	11000.52
489.10	11154.99
489.28	11307.13
489.46	11454.58
489.64	11449.90
489.81	11585.65
489.99	11791.62
490.17	11763.53
490.35	11653.53
490.53	11836.09
490.70	11899.28
490.88	11967.16
491.06	12086.53
491.24	12037.38
491.41	12102.91
491.59	12222.28
491.77	12271.43
491.95	12451.65
492.13	12482.08
492.30	12713.79
492.48	12498.46
492.66	12622.51
492.84	12582.72
493.01	12608.47
493.19	12704.43
493.37	13018.06
493.54	13242.75
493.72	13116.36
493.90	13177.22
494.08	13123.38
494.25	13441.70
494.43	13598.51
494.61	13586.81
494.79	13722.56
494.96	13640.64
495.14	13797.46
495.32	13909.80
495.49	13902.78
495.67	14139.18
495.85	14249.18
496.02	14174.28
496.20	14221.10
496.38	14169.60
496.55	14398.98
496.73	14539.41
496.91	14642.39
497.09	14413.02
497.26	14703.25
497.44	14663.46
497.62	14574.52
497.79	14909.21
497.97	14885.81
498.14	15213.48
498.32	15377.32
498.50	15075.39
498.67	15419.45
498.85	15183.06
499.03	15330.51
499.20	15302.42
499.38	15569.24
499.56	15543.50
499.73	15620.74
499.91	15709.68
500.08	15786.91
500.26	15917.98
500.44	15829.04
500.61	16013.95
500.79	16072.46
500.97	15990.54
501.14	16311.19
501.32	16519.50
501.49	16255.02
501.67	16140.33
501.84	16458.65
502.02	16226.93
502.20	16498.44
502.37	16716.11
502.55	16449.28
502.72	16624.83
502.90	16643.55
503.07	16517.16
503.25	16798.02
503.43	16636.53
503.60	17022.72
503.78	16987.61
503.95	17205.28
504.13	16863.56
504.30	16959.52
504.48	16945.48
504.65	17247.41
504.83	17312.94
505.01	17547.00
505.18	17418.27
505.36	17572.74
505.53	17621.89
505.71	17488.48
505.88	17373.80
506.06	17640.62
506.23	17898.08
506.41	17987.02
506.58	18022.12
506.76	17980.00
506.93	17823.18
507.11	17729.56
507.28	17872.33
507.46	18097.02
507.63	18129.79
507.81	18162.56
507.98	18075.96
508.16	18190.64
508.33	18326.39
508.50	18295.97
508.68	18354.48
508.85	18427.04
509.03	18567.47
509.20	18462.15
509.38	18761.73
509.55	18885.78
509.73	18937.27
509.90	18808.54
510.08	18548.75
510.25	18794.50
510.42	18831.95
510.60	18932.59
510.77	19143.24
510.95	19407.72
511.12	19037.92
511.30	18974.72
511.47	19115.16
511.64	19082.39
511.82	19721.35
511.99	19515.39
512.17	19522.41
512.34	19852.42
512.51	19707.31
512.69	19693.27
512.86	19585.60
513.04	19885.19
513.21	19845.40
513.38	19726.04
513.56	19814.98
513.73	19829.02
513.90	20095.84
514.08	19861.79
514.25	20077.12
514.43	20205.84
514.60	20271.38
514.77	20306.49
514.95	20585.01
515.12	20133.29
515.29	20297.13
515.47	20627.14
515.64	20716.08
515.81	20603.74
515.99	20730.12
516.16	21181.85
516.33	20795.66
516.51	20868.22
516.68	20683.31
516.85	20926.73
517.03	20870.56
517.20	21027.37
517.37	21043.76
517.54	21144.40
517.72	20959.50
517.89	21418.24
518.06	21301.22
518.24	21039.08
518.41	21345.69
518.58	20900.98
518.75	21362.07
518.93	21750.60
519.10	21561.02
519.27	21518.89
519.45	21352.71
519.62	21659.32
519.79	21750.60
519.96	21633.57
520.14	21827.84
520.31	21755.28
520.48	22108.70
520.65	21989.33
520.83	21788.05
521.00	21979.97
521.17	21867.63
521.34	21928.48
521.52	22197.64
521.69	21961.25
521.86	22218.71
522.03	22284.24
522.20	22235.09
522.38	22218.71
522.55	22309.99
522.72	22438.72
522.89	22637.66
523.07	22799.16
523.24	22852.99
523.41	22831.93
523.58	22656.39
523.75	22998.10
523.92	22698.52
524.10	22668.09
524.27	23126.83
524.44	22960.66
524.61	22974.70
524.78	23145.56
524.96	23054.28
525.13	23091.73
525.30	23037.89
525.47	23309.40
525.64	23330.46
525.81	23096.41
525.98	23325.78
526.16	23337.48
526.33	23377.27
526.50	23515.36
526.67	23754.10
526.84	23372.59
527.01	23204.07
527.18	23690.90
527.36	23838.36
527.53	23964.75
527.70	24149.65
527.87	24058.37
528.04	23831.33
528.21	23871.12
528.38	23796.23
528.55	24198.80
528.72	24135.60
528.89	23992.83
529.07	24161.35
529.24	23800.91
529.41	23983.47
529.58	24170.71
529.75	24149.65
529.92	24194.12
530.09	24250.29
530.26	24222.20
530.43	24325.19
530.60	24261.99
530.77	24039.64
530.94	24460.94
531.11	24379.02
531.28	24348.59
531.46	24547.54
531.63	24395.40
531.80	24531.15
531.97	24907.98
532.14	25053.09
532.31	24854.15
532.48	24800.32
532.65	24776.91
532.82	24334.55
532.99	24788.61
533.16	24830.74
533.33	24861.17
533.50	24872.87
533.67	24947.77
533.84	24915.00
534.01	24999.26
534.18	25280.13
534.35	25158.42
534.52	25289.49
534.69	25067.14
534.86	25425.24
535.03	25008.62
535.20	25408.86
535.37	25469.71
535.54	25310.55
535.71	25443.96
535.88	25287.15
536.05	25579.71
536.22	25841.85
536.38	25652.27
536.55	25507.16
536.72	25923.77
536.89	25640.57
537.06	25912.07
537.23	25560.99
537.40	25572.69
537.57	25905.05
537.74	25937.82
537.91	26342.73
538.08	26043.14
538.25	25986.97
538.42	26017.40
538.59	26115.70
538.75	25738.87
538.92	25766.96
539.09	25937.82
539.26	26129.74
539.43	26096.97
539.60	26071.23
539.77	26125.06
539.94	26185.91
540.11	26181.23
540.28	26349.75
540.44	26363.79
540.61	26171.87
540.78	26338.05
540.95	26218.68
541.12	26548.70
541.29	26476.14
541.46	26375.50
541.62	26476.14
541.79	26560.40
541.96	26434.01
542.13	26342.73
542.30	26476.14
542.47	27028.51
542.63	26780.41
542.80	26796.79
542.97	27108.08
543.14	26988.72
543.31	26794.45
543.48	26953.61
543.64	27119.79
543.81	26993.40
543.98	27377.25
544.15	27262.56
544.32	27386.61
544.48	27335.12
544.65	27288.31
544.82	27363.20
544.99	27145.53
545.16	27246.18
545.32	26864.67
545.49	27386.61
545.66	27395.97
545.83	27651.09
546.00	27608.96
546.16	27505.98
546.33	27702.58
546.50	27356.18
546.67	27723.65
546.83	26965.31
547.00	27555.13
547.17	27824.29
547.34	27775.14
547.50	27955.36
547.67	28184.73
547.84	27927.27
548.00	27515.34
548.17	27707.26
548.34	27648.75
548.51	28081.75
548.67	28194.09
548.84	27871.10
549.01	27992.81
549.18	28030.26
549.34	27978.76
549.51	27894.50
549.68	27765.78
549.84	28198.77
550.01	28166.01
550.18	28472.62
550.34	28418.78
550.51	28449.21
550.68	28320.48
550.84	27892.16
551.01	28339.21
551.18	27894.50
551.34	27751.73
551.51	28458.57
551.68	28339.21
551.84	28692.63
552.01	27852.38
552.18	28755.82
552.34	28421.13
552.51	28819.02
552.68	28311.12
552.84	28201.11
553.01	28734.76
553.18	28456.23
553.34	28437.51
553.51	28739.44
553.67	28662.20
553.84	28772.21
554.01	29041.37
554.17	28978.17
554.34	28800.29
554.51	28559.22
554.67	29083.50
554.84	28826.04
555.00	28643.48
555.17	28891.57
555.33	28521.77
555.50	28379.00
555.67	28989.88
555.83	28837.74
556.00	28802.63
556.16	29336.27
556.33	28835.40
556.50	29034.35
556.66	29198.18
556.83	29420.53
556.99	29102.22
557.16	29413.51
557.32	29261.38
557.49	29359.68
557.65	28772.21
557.82	29167.76
557.98	29006.26
558.15	28961.79
558.32	29392.45
558.48	29090.52
558.65	29350.32
558.81	29443.94
558.98	29273.08
559.14	29701.40
559.31	28912.64
559.47	29287.12
559.64	29369.04
559.80	29649.91
559.97	29488.41
560.13	29399.47
560.30	29319.89
560.46	30075.88
560.63	29638.20
560.79	29507.13
560.96	30099.29
561.12	29551.60
561.29	29516.50
561.45	29560.97
561.61	29649.91
561.78	29659.27
561.94	29797.36
562.11	29776.30
562.27	29668.63
562.44	29933.11
562.60	29982.26
562.77	29741.19
562.93	29954.18
563.10	29816.08
563.26	29546.92
563.42	29975.24
563.59	29750.55
563.75	30057.16
563.92	29790.34
564.08	30036.09
564.24	29457.98
564.41	29984.60
564.57	29820.77
564.74	29757.57
564.90	30019.71
565.07	29914.39
565.23	30265.47
565.39	30075.88
565.56	30064.18
565.72	30043.12
565.88	29893.32
566.05	30148.44
566.21	29816.08
566.38	29713.10
566.54	30162.48
566.70	30572.08
566.87	30307.60
567.03	30162.48
567.19	30347.39
567.36	30167.16
567.52	29853.53
567.68	30213.98
567.85	30305.26
568.01	30270.15
568.17	30171.85
568.34	30443.35
568.50	30321.64
568.66	30543.99
568.83	30256.11
568.99	30185.89
569.15	30277.17
569.32	30356.75
569.48	30113.33
569.64	30260.79
569.81	30075.88
569.97	30277.17
570.13	30504.20
570.30	30066.52
570.46	30164.82
570.62	30218.66
570.78	30244.40
570.95	30286.53
571.11	30333.34
571.27	30031.41
571.43	30515.90
571.60	30506.54
571.76	30466.75
571.92	30232.70
572.09	30492.50
572.25	30225.68
572.41	30466.75
572.57	30319.30
572.74	30424.62
572.90	30333.34
573.06	30218.66
573.22	30567.40
573.38	30525.27
573.55	30492.50
573.71	30581.44
573.87	30614.21
574.03	30499.52
574.20	30433.99
574.36	30235.04
574.52	30518.25
574.68	30019.71
574.84	30850.60
575.01	30590.80
575.17	30747.62
575.33	30356.75
575.49	30347.39
575.65	30988.69
575.82	30558.03
575.98	30579.10
576.14	30433.99
576.30	30866.98
576.46	30677.40
576.62	30452.71
576.79	30822.51
576.95	30705.49
577.11	30864.64
577.27	30581.44
577.43	30733.57
577.59	30756.98
577.75	30382.49
577.92	30115.67
578.08	30443.35
578.24	30305.26
578.40	30625.91
578.56	30654.00
578.72	30759.32
578.88	30941.88
579.04	31084.65
579.21	30480.80
579.37	30696.13
579.53	30792.09
579.69	30354.41
579.85	30476.12
580.01	30408.24
580.17	30291.21
580.33	30494.84
580.49	30782.73
580.65	30714.85
580.82	30845.92
580.98	30918.48
581.14	30890.39
581.30	30733.57
581.46	30780.39
581.62	30803.79
581.78	30352.07
581.94	30628.25
582.10	30356.75
582.26	30841.24
582.42	30862.30
582.58	31180.62
582.74	30913.80
582.90	30874.01
583.06	30785.07
583.22	30639.95
583.38	30686.76
583.54	30707.83
583.70	30916.14
583.86	30822.51
584.02	30663.36
584.18	30752.30
584.34	30590.80
584.50	30925.50
584.66	31063.59
584.82	30759.32
584.98	30909.11
585.14	30838.90
585.30	30766.34
585.46	30644.63
585.62	30632.93
585.78	30635.27
585.94	30904.43
586.10	30927.84
586.26	30806.13
586.42	31056.57
586.58	30829.54
586.74	30855.28
586.90	30834.22
587.06	30756.98
587.22	30764.00
587.38	30890.39
587.54	31239.13
587.70	31337.43
587.86	30735.92
588.02	31000.40
588.18	30845.92
588.34	31454.46
588.49	30979.33
588.65	30883.37
588.81	30918.48
588.97	30808.47
589.13	30883.37
589.29	30579.10
589.45	31398.29
589.61	31330.41
589.77	31417.01
589.93	31267.22
590.08	31388.92
590.24	31538.72
590.40	31299.98
590.56	31337.43
590.72	31075.29
590.88	30939.54
591.04	31084.65
591.20	31321.05
591.35	31222.75
591.51	31330.41
591.67	31583.19
591.83	31620.64
591.99	31262.54
592.15	31370.20
592.31	30916.14
592.46	31054.23
592.62	31250.83
592.78	31484.89
592.94	31566.81
593.10	31360.84
593.26	31456.80
593.41	31246.15
593.57	31424.03
593.73	31456.80
593.89	31297.64
594.05	31115.08
594.20	31040.18
594.36	31419.35
594.52	31129.12
594.68	31105.72
594.84	30955.93
594.99	31386.58
595.15	31482.55
595.31	31299.98
595.47	31658.09
595.62	31288.28
595.78	31285.94
595.94	31571.49
596.10	31400.63
596.25	31412.33
596.41	31012.10
596.57	30953.58
596.73	31323.39
596.88	31318.71
597.04	31725.96
597.20	31866.39
597.36	31681.49
597.51	31510.63
597.67	31400.63
597.83	31103.38
597.99	31833.63
598.14	31573.83
598.30	31278.92
598.46	31438.08
598.61	31426.37
598.77	31253.17
598.93	31075.29
599.09	31267.22
599.24	31732.98
599.40	31667.45
599.56	31438.08
599.71	31454.46
599.87	31262.54
600.03	31452.12
600.18	31494.25
600.34	31257.85
600.50	31952.99
600.65	31508.29
600.81	31419.35
600.97	31510.63
601.12	31817.24
601.28	31646.38
601.44	31454.46
601.59	31683.83
601.75	31529.36
601.91	31835.97
602.06	30995.71
602.22	31721.28
602.37	31061.25
602.53	31339.77
602.69	31709.58
602.84	31220.41
603.00	31667.45
603.16	31377.22
603.31	31147.85
603.47	31531.70
603.62	31501.27
603.78	31903.84
603.94	31262.54
604.09	31473.18
604.25	31009.76
604.40	31304.67
604.56	31400.63
604.71	31711.92
604.87	31407.65
605.03	31639.36
605.18	31723.62
605.34	31754.05
605.49	31339.77
605.65	31440.42
605.80	31189.98
605.96	31304.67
606.12	31419.35
606.27	31325.73
606.43	30883.37
606.58	31765.75
606.74	31372.54
606.89	31342.11
607.05	31620.64
607.20	31599.57
607.36	30953.58
607.51	31592.55
607.67	31461.48
607.82	31178.28
607.98	31285.94
608.13	31096.36
608.29	31290.62
608.44	31407.65
608.60	31503.61
608.75	31566.81
608.91	31639.36
609.06	31180.62
609.22	31061.25
609.37	31007.42
609.53	30909.11
609.68	31009.76
609.84	31234.45
609.99	31229.77
610.15	31328.07
610.30	31096.36
610.46	31494.25
610.61	31349.14
610.76	31257.85
610.92	31239.13
611.07	31171.25
611.23	31126.78
611.38	31161.89
611.54	30852.94
611.69	31105.72
611.84	30916.14
612.00	31225.09
612.15	30913.80
612.31	31253.17
612.46	31288.28
612.62	31243.81
612.77	30668.04
612.92	30916.14
613.08	30965.29
613.23	31281.26
613.39	30726.55
613.54	31005.08
613.69	30888.05
613.85	30836.56
614.00	30972.31
614.15	30836.56
614.31	31091.68
614.46	30991.03
614.62	30756.98
614.77	30735.92
614.92	30881.03
615.08	30775.70
615.23	30806.13
615.38	30719.53
615.54	30962.95
615.69	30639.95
615.84	30644.63
616.00	30981.67
616.15	30604.84
616.30	30951.24
616.46	30972.31
616.61	30415.26
616.76	31035.50
616.92	31185.30
617.07	30827.20
617.22	30466.75
617.37	30551.01
617.53	30686.76
617.68	30569.74
617.83	30272.49
617.99	30438.67
618.14	30590.80
618.29	30429.30
618.45	30553.35
618.60	30604.84
618.75	30593.14
618.90	30712.51
619.06	30593.14
619.21	30408.24
619.36	30321.64
619.51	30171.85
619.67	30185.89
619.82	30054.82
619.97	30209.29
620.12	30129.72
620.28	30251.42
620.43	30391.86
620.58	30412.92
620.73	30724.21
620.89	30396.54
621.04	30635.27
621.19	30508.88
621.34	29977.58
621.49	30206.95
621.65	30228.02
621.80	30120.35
621.95	30590.80
622.10	29914.39
622.25	30085.25
622.41	30209.29
622.56	29935.45
622.71	30302.92
622.86	30057.16
623.01	30164.82
623.16	29977.58
623.32	29968.22
623.47	29984.60
623.62	29696.72
623.77	29811.40
623.92	30307.60
624.07	29589.05
624.23	29649.91
624.38	29752.89
624.53	29546.92
624.68	30120.35
624.83	30199.93
624.98	30209.29
625.13	29582.03
625.29	29504.79
625.44	29951.84
625.59	29422.87
625.74	29656.93
625.89	29362.02
626.04	29343.30
626.19	29710.76
626.34	29530.54
626.49	29153.71
626.65	29481.39
626.80	29596.07
626.95	29432.24
627.10	29788.00
627.25	29895.66
627.40	29429.90
627.55	29301.17
627.70	29369.04
627.85	29397.13
628.00	29560.97
628.15	29050.73
628.30	28865.83
628.45	29160.73
628.60	29319.89
628.76	29572.67
628.91	29455.64
629.06	29460.32
629.21	29457.98
629.36	29343.30
629.51	29364.36
629.66	28952.43
629.81	29331.59
629.96	28992.22
630.11	29242.65
630.26	29118.60
630.41	29186.48
630.56	28872.85
630.71	28950.09
630.86	29043.71
631.01	29006.26
631.16	29167.76
631.31	28952.43
631.46	28919.66
631.61	29504.79
631.76	28828.38
631.91	28987.53
632.06	28985.19
632.21	28835.40
632.36	29118.60
632.51	28814.34
632.66	28814.34
632.81	28666.88
632.96	28854.12
633.10	29259.04
633.25	28856.46
633.40	29144.35
633.55	29083.50
633.70	28542.83
633.85	28285.37
634.00	28645.82
634.15	28376.66
634.30	28851.78
634.45	28793.27
634.60	28456.23
634.75	28599.01
634.90	28697.31
635.05	28533.47
635.19	28662.20
635.34	28809.65
635.49	28652.84
635.64	28481.98
635.79	28620.07
635.94	28620.07
636.09	28147.28
636.24	28662.20
636.39	28430.49
636.53	28222.18
636.68	28587.30
636.83	28233.88
636.98	28306.44
637.13	28411.76
637.28	27985.79
637.43	28467.94
637.57	28884.55
637.72	28322.82
637.87	28102.81
638.02	28247.93
638.17	27866.42
638.32	28357.93
638.46	27903.87
638.61	28095.79
638.76	27850.03
638.91	27915.57
639.06	28137.92
639.20	28559.22
639.35	28212.82
639.50	28446.87
639.65	28292.40
639.80	28278.35
639.94	28180.05
640.09	28048.98
640.24	27903.87
640.39	27782.16
640.54	27866.42
640.68	27723.65
640.83	27789.18
640.98	27587.89
641.13	27358.52
641.27	28140.26
641.42	27857.06
641.57	27927.27
641.72	27924.93
641.86	27864.08
642.01	27608.96
642.16	27580.87
642.31	27599.60
642.45	27686.20
642.60	27782.16
642.75	27407.67
642.90	27505.98
643.04	27814.93
643.19	27473.21
643.34	27620.66
643.48	27697.90
643.63	27938.97
643.78	27498.95
643.93	27594.92
644.07	27435.76
644.22	27625.34
644.37	27524.70
644.51	27548.11
644.66	27623.00
644.81	27110.43
644.95	27283.62
645.10	27557.47
645.25	27391.29
645.39	27461.51
645.54	27402.99
645.69	27225.11
645.83	26988.72
645.98	27236.81
646.13	27728.33
646.27	27133.83
646.42	27461.51
646.57	27520.02
646.71	27292.99
646.86	27356.18
647.00	27330.44
647.15	27157.24
647.30	27321.07
647.44	26862.33
647.59	27253.20
647.74	27070.64
647.88	27201.71
648.03	26934.88
648.17	27424.06
648.32	27370.22
648.47	27133.83
648.61	26782.75
648.76	27452.14
648.90	27250.86
649.05	27119.79
649.20	26979.36
649.34	27068.30
649.49	26815.52
649.63	27201.71
649.78	26682.11
649.92	26532.31
650.07	26962.97
650.21	26686.79
650.36	27049.57
650.51	26658.70
650.65	26834.24
650.80	26742.96
650.94	26742.96
651.09	26574.44
651.23	26817.86
651.38	26864.67
651.52	26757.00
651.67	26452.73
651.81	26511.25
651.96	26434.01
652.10	26462.10
652.25	26754.66
652.39	26955.95
652.54	26979.36
652.68	26476.14
652.83	26764.03
652.97	26785.09
653.12	26700.83
653.26	26630.62
653.41	26644.66
653.55	26160.17
653.70	26047.82
653.84	26396.56
653.99	25968.24
654.13	26405.92
654.27	26492.52
654.42	26352.09
654.56	26635.30
654.71	26389.54
654.85	26469.12
655.00	26532.31
655.14	26487.84
655.29	26228.04
655.43	26424.65
655.57	26621.25
655.72	26052.50
655.86	26103.99
656.01	25993.99
656.15	26047.82
656.30	25759.94
656.44	26284.22
656.58	25458.01
656.73	25905.05
656.87	26246.77
657.01	25961.22
657.16	26305.28
657.30	26061.87
657.45	25923.77
657.59	26008.03
657.73	25975.27
657.88	25900.37
658.02	26026.76
658.16	25710.78
658.31	25982.29
658.45	25846.54
658.60	25511.84
658.74	25425.24
658.88	25607.80
659.03	25621.84
659.17	25565.67
659.31	25743.55
659.46	25596.10
659.60	25912.07
659.74	25710.78
659.89	25413.54
660.03	25551.63
660.17	25673.34
660.32	25366.73
660.46	25205.23
660.60	25233.32
660.74	25448.64
660.89	25544.61
661.03	25046.07
661.17	25095.22
661.32	24966.49
661.46	25348.00
661.60	25490.77
661.74	25350.34
661.89	25301.19
662.03	25156.08
662.17	25146.72
662.31	25001.60
662.46	25092.88
662.60	25261.40
662.74	25247.36
662.88	24954.79
663.03	24547.54
663.17	24947.77
663.31	24383.70
663.45	24933.73
663.60	24912.66
663.74	24840.11
663.88	24879.89
664.02	24795.64
664.17	24875.21
664.31	24573.28
664.45	24856.49
664.59	24657.54
664.73	24753.51
664.88	24837.76
665.02	24142.63
665.16	24393.06
665.30	24219.86
665.44	24374.34
665.59	24210.50
665.73	24023.26
665.87	24084.11
666.01	24397.74
666.15	24013.90
666.29	24524.13
666.44	24243.27
666.58	24259.65
666.72	24257.31
666.86	23892.19
667.00	24126.24
667.14	24196.46
667.28	23836.02
667.43	24018.58
667.57	24112.20
667.71	23527.06
667.85	23639.41
667.99	23896.87
668.13	23789.20
668.27	23807.93
668.41	23903.89
668.56	23658.14
668.70	23826.65
668.84	23896.87
668.98	23489.62
669.12	23459.19
669.26	23620.69
669.40	23164.28
669.54	23419.40
669.68	23601.96
669.82	23524.72
669.96	23271.95
670.10	22874.06
670.25	23136.20
670.39	23283.65
670.53	23211.09
670.67	23253.22
670.81	23147.90
670.95	23075.34
671.09	23147.90
671.23	23161.94
671.37	22740.64
671.51	23110.45
671.65	23185.35
671.79	23033.21
671.93	22759.37
672.07	22806.18
672.21	22632.98
672.35	22593.19
672.49	22188.28
672.63	22462.12
672.77	22258.49
672.91	22279.56
673.05	22244.45
673.19	22218.71
673.33	22438.72
673.47	22417.65
673.61	22324.03
673.75	22071.25
673.89	22288.92
674.03	22141.47
674.17	21926.14
674.31	21949.54
674.45	21701.45
674.59	21979.97
674.73	21879.33
674.87	21916.78
675.01	21542.29
675.15	21612.51
675.29	21575.06
675.43	21493.14
675.56	21745.92
675.70	21631.23
675.84	21640.59
675.98	21039.08
676.12	21827.84
676.26	21783.37
676.40	21504.84
676.54	21387.82
676.68	21483.78
676.82	21160.78
676.96	21010.99
677.10	21223.98
677.23	20854.17
677.37	21076.52
677.51	20940.77
677.65	21062.48
677.79	20627.14
677.93	20699.70
678.07	20376.70
678.21	20479.69
678.34	20554.58
678.48	20365.00
678.62	20393.09
678.76	20369.68
678.90	20467.98
679.04	20147.33
679.18	20519.48
679.31	20025.62
679.45	20170.74
679.59	19819.66
679.73	19981.15
679.87	19620.71
680.00	19887.53
680.14	19868.81
680.28	19646.46
680.42	19899.23
680.56	20112.22
680.70	19449.85
680.83	19807.95
680.97	19875.83
681.11	19704.97
681.25	19206.44
681.39	19428.79
681.52	19318.78
681.66	19211.12
681.80	19438.15
681.94	19171.33
682.07	18974.72
682.21	18827.27
682.35	19014.51
682.49	18890.46
682.62	18960.68
682.76	18822.59
682.90	18471.51
683.04	18871.74
683.17	18583.85
683.31	18637.69
683.45	18689.18
683.59	18532.36
683.72	18167.24
683.86	18670.45
684.00	18150.85
684.13	18431.72
684.27	17987.02
684.41	18162.56
684.55	17886.37
684.68	17900.42
684.82	17303.58
684.96	18024.47
685.09	17806.80
685.23	17383.16
685.37	17769.35
685.50	17998.72
685.64	17757.64
685.78	17628.92
685.91	17518.91
686.05	17680.41
686.19	17638.28
686.32	17345.71
686.46	17444.01
686.60	17139.74
686.73	17128.04
686.87	16849.52
687.01	17006.33
687.14	16901.01
687.28	16744.19
687.42	16978.25
687.55	16713.77
687.69	16622.48
687.82	16748.87
687.96	16786.32
688.10	16559.29
688.23	16683.34
688.37	16442.26
688.50	16748.87
688.64	16262.04
688.78	16168.42
688.91	16418.86
689.05	16154.38
689.18	16269.06
689.32	15602.01
689.46	15871.17
689.59	16004.58
689.73	15892.24
689.86	15955.43
690.00	15793.94
690.13	15777.55
690.27	15775.21
690.41	15749.46
690.54	15744.78
690.68	15697.97
690.81	15442.85
690.95	15475.62
691.08	15700.31
691.22	15400.72
691.35	15555.20
691.49	15321.15
691.62	15281.36
691.76	14944.32
691.89	14890.49
692.03	15026.24
692.16	14703.25
692.30	14761.76
692.43	14841.34
692.57	14714.95
692.70	14829.63
692.84	14707.93
692.97	14710.27
693.11	14731.33
693.24	14600.26
693.38	14401.32
693.51	14303.01
693.65	14174.28
693.78	14450.47
693.92	14228.12
694.05	14434.08
694.19	14382.59
694.32	13905.12
694.45	13853.63
694.59	13741.29
694.72	13998.74
694.86	13865.33
694.99	13699.16
695.13	13921.51
695.26	13764.69
695.39	13750.65
695.53	13977.68
695.66	13804.48
695.80	13603.19
695.93	13570.43
696.07	13348.08
696.20	13589.15
696.33	13642.98
696.47	13399.57
696.60	13334.03
696.73	13331.69
696.87	13334.03
697.00	12947.84
697.14	12931.46
697.27	12840.18
697.40	12547.61
697.54	12784.01
697.67	12645.91
697.80	12709.11
697.94	12624.85
698.07	12524.21
698.21	12554.63
698.34	12533.57
698.47	12737.20
698.61	12664.64
698.74	12500.80
698.87	12367.39
699.01	12236.32
699.14	12315.90
699.27	12182.49
699.40	12208.23
699.54	12091.21
699.67	12016.31
699.80	11960.14
699.94	11913.33
700.07	11779.92
700.20	11948.43
700.34	11777.58
700.47	11709.70
700.60	11613.74
700.73	11889.92
700.87	11674.59
701.00	11426.50
701.13	11522.46
701.26	11667.57
701.40	11330.53
701.53	11473.31
701.66	11513.10
701.79	11140.95
701.93	11342.24
702.06	11365.64
702.19	11101.16
702.32	11227.55
702.46	10981.79
702.59	10857.75
702.72	11049.67
702.85	10853.06
702.99	10794.55
703.12	10810.93
703.25	10541.77
703.38	10700.93
703.51	10885.83
703.65	10672.84
703.78	10626.03
703.91	10382.62
704.04	10710.29
704.17	10597.95
704.31	10401.34
704.44	10368.57
704.57	10305.38
704.70	10036.22
704.83	10223.46
704.96	10078.35
705.10	9980.04
705.23	10099.41
>>>>>End Processed Spectral Data<<<<<
