SpectraSuite Data File
++++++++++++++++++++++++++++++++++++
Date: Fri Oct 18 13:58:17 GMT-05:00 2013
User: bianchi
Dark Spectrum Present: No
Reference Spectrum Present: No
Number of Sampled Component Spectra: 1
Spectrometers: USB2+H05261
Integration Time (usec): 50000 (USB2+H05261)
Spectra Averaged: 1 (USB2+H05261)
Boxcar Smoothing: 0 (USB2+H05261)
Correct for Electrical Dark: No (USB2+H05261)
Strobe/Lamp Enabled: No (USB2+H05261)
Correct for Detector Non-linearity: No (USB2+H05261)
Correct for Stray Light: No (USB2+H05261)
Number of Pixels in Processed Spectrum: 2048
>>>>>Begin Processed Spectral Data<<<<<
365.73	0.00
365.92	0.00
366.12	0.00
366.32	0.00
366.52	0.00
366.72	0.00
366.91	0.00
367.11	0.00
367.31	0.00
367.51	0.00
367.70	0.00
367.90	0.00
368.10	0.00
368.30	0.00
368.49	0.00
368.69	0.00
368.89	0.00
369.09	0.00
369.28	0.00
369.48	0.00
369.68	0.00
369.87	0.00
370.07	0.00
370.27	0.00
370.47	0.00
370.66	65.54
370.86	187.24
371.06	138.09
371.25	184.90
371.45	39.79
371.65	154.48
371.84	196.60
372.04	222.35
372.24	140.43
372.44	182.56
372.63	189.58
372.83	212.99
373.03	189.58
373.22	264.48
373.42	110.01
373.62	234.05
373.81	245.76
374.01	234.05
374.21	194.26
374.40	250.44
374.60	255.12
374.79	259.80
374.99	292.57
375.19	320.65
375.38	271.50
375.58	194.26
375.78	276.18
375.97	301.93
376.17	278.52
376.37	241.08
376.56	229.37
376.76	285.55
376.95	238.73
377.15	325.33
377.35	299.59
377.54	196.60
377.74	243.42
377.93	243.42
378.13	285.55
378.33	259.80
378.52	248.10
378.72	248.10
378.91	259.80
379.11	283.20
379.31	351.08
379.50	203.63
379.70	276.18
379.89	355.76
380.09	308.95
380.28	266.82
380.48	318.31
380.68	290.23
380.87	327.68
381.07	276.18
381.26	222.35
381.46	266.82
381.65	308.95
381.85	327.68
382.04	337.04
382.24	304.27
382.43	393.21
382.63	421.30
382.83	299.59
383.02	409.59
383.22	437.68
383.41	351.08
383.61	313.63
383.80	437.68
384.00	311.29
384.19	306.61
384.39	388.53
384.58	311.29
384.78	344.06
384.97	409.59
385.17	369.80
385.36	433.00
385.56	430.66
385.75	477.47
385.95	456.40
386.14	383.85
386.34	414.27
386.53	475.13
386.72	397.89
386.92	416.62
387.11	421.30
387.31	433.00
387.50	411.93
387.70	433.00
387.89	418.96
388.09	447.04
388.28	388.53
388.48	397.89
388.67	430.66
388.86	456.40
389.06	444.70
389.25	512.58
389.45	482.15
389.64	414.27
389.84	465.77
390.03	500.87
390.22	397.89
390.42	447.04
390.61	444.70
390.81	428.32
391.00	437.68
391.19	475.13
391.39	477.47
391.58	482.15
391.78	430.66
391.97	535.98
392.16	550.03
392.36	608.54
392.55	554.71
392.75	566.41
392.94	498.53
393.13	599.18
393.33	496.19
393.52	521.94
393.71	545.34
393.91	533.64
394.10	624.92
394.29	606.20
394.49	575.77
394.68	580.45
394.88	592.16
395.07	624.92
395.26	629.60
395.46	624.92
395.65	608.54
395.84	655.35
396.04	741.95
396.23	667.05
396.42	608.54
396.62	667.05
396.81	674.07
397.00	645.99
397.19	627.26
397.39	664.71
397.58	695.14
397.77	669.39
397.97	641.31
398.16	617.90
398.35	720.88
398.55	716.20
398.74	727.91
398.93	772.38
399.12	788.76
399.32	587.47
399.51	767.70
399.70	786.42
399.90	842.59
400.09	767.70
400.28	802.80
400.47	833.23
400.67	802.80
400.86	793.44
401.05	730.25
401.24	746.63
401.44	908.13
401.63	784.08
401.82	809.83
402.01	833.23
402.21	737.27
402.40	753.65
402.59	821.53
402.78	774.72
402.97	877.70
403.17	856.64
403.36	851.96
403.55	891.74
403.74	905.79
403.93	992.39
404.13	985.37
404.32	861.32
404.51	945.58
404.70	978.34
404.89	891.74
405.09	1018.13
405.28	961.96
405.47	994.73
405.66	976.00
405.85	1020.47
406.05	936.21
406.24	891.74
406.43	877.70
406.62	978.34
406.81	1053.24
407.00	861.32
407.20	1025.15
407.39	1048.56
407.58	1053.24
407.77	992.39
407.96	1064.94
408.15	1078.99
408.34	997.07
408.54	1172.61
408.73	1071.97
408.92	1109.41
409.11	1137.50
409.30	1081.33
409.49	1125.80
409.68	1144.52
409.87	1107.07
410.07	1221.76
410.26	1184.31
410.45	1170.27
410.64	1275.59
410.83	1198.35
411.02	1207.72
411.21	1224.10
411.40	1226.44
411.59	1160.91
411.78	1214.74
411.98	1188.99
412.17	1224.10
412.36	1299.00
412.55	1345.81
412.74	1263.89
412.93	1348.15
413.12	1256.87
413.31	1500.28
413.50	1366.87
413.69	1486.24
413.88	1345.81
414.07	1481.56
414.26	1502.62
414.45	1504.96
414.64	1495.60
414.83	1605.61
415.02	1409.00
415.22	1540.07
415.41	1404.32
415.60	1446.45
415.79	1657.10
415.98	1692.21
416.17	1586.88
416.36	1643.06
416.55	1582.20
416.74	1607.95
416.93	1687.53
417.12	1614.97
417.31	1694.55
417.50	1696.89
417.69	1739.02
417.88	1734.34
418.07	1715.61
418.26	1753.06
418.45	1675.82
418.64	1757.74
418.83	1755.40
419.02	1762.42
419.21	1853.70
419.39	1849.02
419.58	1703.91
419.77	1823.28
419.96	1902.86
420.15	1881.79
420.34	1856.04
420.53	1820.94
420.72	1905.20
420.91	1966.05
421.10	1898.17
421.29	1952.01
421.48	1905.20
421.67	1902.86
421.86	1914.56
422.05	1877.11
422.24	1966.05
422.43	1914.56
422.61	1956.69
422.80	1994.14
422.99	2017.54
423.18	2050.31
423.37	1942.64
423.56	2071.37
423.75	1940.30
423.94	1970.73
424.13	1863.07
424.32	1937.96
424.50	2146.27
424.69	2120.53
424.88	2085.42
425.07	2101.80
425.26	2083.08
425.45	2087.76
425.64	1973.07
425.83	2076.06
426.01	2167.34
426.20	1989.46
426.39	2174.36
426.58	2010.52
426.77	2083.08
426.96	2143.93
427.15	2036.27
427.33	2132.23
427.52	2026.90
427.71	2176.70
427.90	2160.31
428.09	2153.29
428.28	2162.66
428.46	2162.66
428.65	2223.51
428.84	2132.23
429.03	2417.77
429.22	2148.61
429.40	2275.00
429.59	2324.15
429.78	2162.66
429.97	2321.81
430.16	2293.72
430.34	2394.37
430.53	2387.35
430.72	2420.11
430.91	2312.45
431.10	2366.28
431.28	2349.90
431.47	2370.96
431.66	2361.60
431.85	2368.62
432.03	2485.65
432.22	2471.61
432.41	2420.11
432.60	2387.35
432.79	2511.39
432.97	2516.08
433.16	2469.27
433.35	2495.01
433.54	2527.78
433.72	2464.58
433.91	2466.92
434.10	2485.65
434.28	2527.78
434.47	2661.19
434.66	2499.69
434.85	2605.02
435.03	2679.91
435.22	2600.34
435.41	2567.57
435.59	2708.00
435.78	2628.42
435.97	2679.91
436.16	2644.81
436.34	2670.55
436.53	2637.78
436.72	2745.45
436.90	2626.08
437.09	2724.38
437.28	2686.94
437.46	2651.83
437.65	2778.22
437.84	2818.00
438.02	2630.76
438.21	2747.79
438.40	2932.69
438.58	2942.05
438.77	2897.58
438.96	2703.32
439.14	2960.78
439.33	2949.08
439.52	2946.73
439.70	3040.36
439.89	2958.44
440.08	3082.49
440.26	3035.67
440.45	2986.52
440.63	3150.36
440.82	3183.13
441.01	3138.66
441.19	3201.85
441.38	3220.58
441.57	3286.11
441.75	3293.13
441.94	3164.40
442.12	3241.64
442.31	3274.41
442.50	3403.14
442.68	3323.56
442.87	3391.44
443.05	3314.20
443.24	3229.94
443.43	3368.03
443.61	3431.23
443.80	3489.74
443.98	3229.94
444.17	3220.58
444.35	3342.28
444.54	3400.80
444.73	3499.10
444.91	3524.85
445.10	3506.12
445.28	3328.24
445.47	3459.31
445.65	3616.13
445.84	3475.70
446.02	3545.91
446.21	3400.80
446.39	3440.59
446.58	3466.33
446.77	3515.48
446.95	3471.01
447.14	3421.86
447.32	3449.95
447.51	3428.88
447.69	3541.23
447.88	3538.89
448.06	3508.46
448.25	3433.57
448.43	3478.04
448.62	3466.33
448.80	3471.01
448.99	3632.51
449.17	3513.14
449.36	3606.77
449.54	3644.21
449.73	3698.05
449.91	3733.15
450.10	3693.37
450.28	3801.03
450.46	3662.94
450.65	3770.60
450.83	3819.75
451.02	3805.71
451.20	3822.09
451.39	3819.75
451.57	3742.52
451.76	3775.28
451.94	3859.54
452.13	3829.12
452.31	3840.82
452.49	3913.38
452.68	3847.84
452.86	3777.62
453.05	3918.06
453.23	3857.20
453.42	3768.26
453.60	3906.35
453.78	3971.89
453.97	3927.42
454.15	3911.04
454.34	3939.12
454.52	4051.47
454.70	3887.63
454.89	3960.19
455.07	4021.04
455.26	4070.19
455.44	4138.07
455.62	4091.26
455.81	4147.43
455.99	4053.81
456.17	4124.02
456.36	4241.05
456.54	4318.29
456.73	4163.81
456.91	4203.60
457.09	4238.71
457.28	4374.46
457.46	4224.67
457.64	4329.99
457.83	4287.86
458.01	4135.73
458.19	4337.01
458.38	4306.59
458.56	4542.98
458.74	4414.25
458.93	4170.83
459.11	4404.89
459.29	4514.89
459.48	4641.28
459.66	4372.12
459.84	4500.85
460.03	4828.53
460.21	4538.30
460.39	4442.34
460.57	4430.63
460.76	4648.30
460.94	4568.73
461.12	4767.67
461.31	4447.02
461.49	4568.73
461.67	4702.14
461.85	4692.77
462.04	4657.67
462.22	5015.77
462.40	4978.32
462.59	4758.31
462.77	4685.75
462.95	4671.71
463.13	4624.90
463.32	4835.55
463.50	4947.89
463.68	5015.77
463.86	4882.36
464.05	4840.23
464.23	4830.87
464.41	4901.08
464.59	4835.55
464.78	4891.72
464.96	4896.40
465.14	4894.06
465.32	5128.11
465.50	4901.08
465.69	4952.57
465.87	5071.94
466.05	4936.19
466.23	5153.86
466.41	5247.48
466.60	5149.18
466.78	5121.09
466.96	5043.85
467.14	4985.34
467.32	5069.60
467.51	5121.09
467.69	4929.17
467.87	5144.50
468.05	5245.14
468.23	5128.11
468.41	5060.24
468.60	5167.90
468.78	5348.12
468.96	5053.22
469.14	5163.22
469.32	5404.30
469.50	5109.39
469.69	5163.22
469.87	5401.96
470.05	5348.12
470.23	5453.45
470.41	5483.88
470.59	5406.64
470.77	5518.98
470.95	5528.35
471.14	5563.45
471.32	5420.68
471.50	5703.89
471.68	5710.91
471.86	5535.37
472.04	5689.84
472.22	5731.97
472.40	5687.50
472.58	5647.71
472.77	5870.06
472.95	5734.31
473.13	6008.16
473.31	5696.86
473.49	5764.74
473.67	5884.11
473.85	5926.24
474.03	5963.68
474.21	6010.50
474.39	5959.00
474.57	6300.72
474.75	5984.75
474.93	6080.71
475.12	6270.30
475.30	6319.45
475.48	6218.80
475.66	6237.53
475.84	6239.87
476.02	6373.28
476.20	6244.55
476.38	6403.71
476.56	6593.29
476.74	6490.31
476.92	6569.88
477.10	6523.07
477.28	6651.80
477.46	6661.16
477.64	6640.10
477.82	6801.60
478.00	6904.58
478.18	6834.36
478.36	6925.65
478.54	7007.56
478.72	7136.29
478.90	6995.86
479.08	7157.36
479.26	7356.30
479.44	7386.73
479.62	7480.35
479.80	7536.52
479.98	7346.94
480.16	7370.35
480.34	7660.57
480.52	7606.74
480.70	7611.42
480.88	7616.10
481.06	7728.45
481.24	7564.61
481.41	7995.27
481.59	7845.48
481.77	7726.11
481.95	8168.47
482.13	8135.70
482.31	8056.12
482.49	8226.98
482.67	8248.05
482.85	8528.91
483.03	8528.91
483.21	8542.96
483.39	8549.98
483.57	8585.08
483.74	8753.60
483.92	8980.64
484.10	8746.58
484.28	8821.48
484.46	9029.79
484.64	9104.68
484.82	9001.70
485.00	8975.95
485.18	9064.89
485.35	9535.34
485.53	9261.50
485.71	9324.69
485.89	9607.90
486.07	9640.67
486.25	9575.13
486.43	9708.54
486.61	9713.22
486.78	10115.80
486.96	9823.23
487.14	10064.30
487.32	9940.26
487.50	10101.75
487.68	10270.27
487.85	10375.59
488.03	10490.28
488.21	10546.45
488.39	10675.18
488.57	10672.84
488.75	10649.44
488.92	10785.19
489.10	11070.73
489.28	10920.94
489.46	11157.33
489.64	11091.80
489.81	11311.81
489.99	11475.65
490.17	11407.77
490.35	11309.47
490.53	11557.57
490.70	11796.30
490.88	11740.13
491.06	11681.61
491.24	11473.31
491.41	11754.17
491.59	11885.24
491.77	11634.80
491.95	12074.82
492.13	12133.34
492.30	12627.19
492.48	12336.96
492.66	12386.12
492.84	12496.12
493.01	12713.79
493.19	12613.15
493.37	12641.23
493.54	12781.67
493.72	12800.39
493.90	12938.48
494.08	13060.19
494.25	13156.15
494.43	13261.48
494.61	13371.48
494.79	13186.58
494.96	13364.46
495.14	13366.80
495.32	13453.40
495.49	13462.76
495.67	13689.79
495.85	13949.59
496.02	13874.70
496.20	13802.14
496.38	13855.97
496.55	14085.34
496.73	14291.31
496.91	14300.67
497.09	14406.00
497.26	14368.55
497.44	14448.13
497.62	14455.15
497.79	14633.03
497.97	14759.42
498.14	14705.59
498.32	14993.47
498.50	14813.25
498.67	15152.63
498.85	14698.56
499.03	14897.51
499.20	15000.49
499.38	15042.62
499.56	15300.08
499.73	15403.07
499.91	15360.94
500.08	15382.00
500.26	15466.26
500.44	15529.45
500.61	15719.04
500.79	15248.59
500.97	15449.88
501.14	16035.01
501.32	15686.27
501.49	16100.55
501.67	15885.22
501.84	16093.52
502.02	15941.39
502.20	15960.11
502.37	16154.38
502.55	15948.41
502.72	16205.87
502.90	16252.68
503.07	16322.90
503.25	16276.09
503.43	16430.56
503.60	16739.51
503.78	16837.81
503.95	16634.19
504.13	16561.63
504.30	16507.80
504.48	16673.98
504.65	16779.30
504.83	16812.07
505.01	17268.47
505.18	16978.25
505.36	17195.92
505.53	16952.50
505.71	17046.12
505.88	17394.86
506.06	17064.85
506.23	17013.35
506.41	17214.64
506.58	17331.67
506.76	17380.82
506.93	17554.02
507.11	17453.37
507.28	17710.83
507.46	17778.71
507.63	17717.86
507.81	17785.73
507.98	17671.04
508.16	17729.56
508.33	17951.91
508.50	17558.70
508.68	18111.07
508.85	18200.01
509.03	18040.85
509.20	18295.97
509.38	18520.66
509.55	18310.01
509.73	18494.91
509.90	18391.93
510.08	18359.16
510.25	18457.46
510.42	18677.48
510.60	18693.86
510.77	18780.46
510.95	18775.78
511.12	18530.02
511.30	18806.20
511.47	18885.78
511.64	18717.26
511.82	18991.11
511.99	19016.85
512.17	19150.26
512.34	18946.64
512.51	19288.35
512.69	19426.45
512.86	19669.86
513.04	19541.13
513.21	19419.42
513.38	19459.21
513.56	19641.78
513.73	19335.17
513.90	19711.99
514.08	19674.54
514.25	19810.29
514.43	19711.99
514.60	19550.49
514.77	20030.30
514.95	19786.89
515.12	19934.34
515.29	19985.83
515.47	20226.91
515.64	20105.20
515.81	20259.68
515.99	20386.07
516.16	20292.44
516.33	20217.55
516.51	20556.93
516.68	20152.01
516.85	20140.31
517.03	20325.21
517.20	20297.13
517.37	20711.40
517.54	20470.33
517.72	20702.04
517.89	20631.82
518.06	20868.22
518.24	20388.41
518.41	20732.47
518.58	20959.50
518.75	20947.79
518.93	20905.66
519.10	21069.50
519.27	20945.45
519.45	21088.23
519.62	20933.75
519.79	21308.24
519.96	21214.62
520.14	21336.32
520.31	21174.83
520.48	21532.93
520.65	21343.35
520.83	21451.01
521.00	21317.60
521.17	21460.37
521.34	21645.27
521.52	21558.67
521.69	21488.46
521.86	21724.85
522.03	22045.51
522.20	21998.70
522.38	21919.12
522.55	21893.37
522.72	22118.06
522.89	21881.67
523.07	22349.78
523.24	21956.57
523.41	21874.65
523.58	22101.68
523.75	22085.30
523.92	22218.71
524.10	22382.54
524.27	22078.27
524.44	22293.60
524.61	22527.66
524.78	22487.87
524.96	22750.01
525.13	22478.50
525.30	22710.22
525.47	22548.72
525.64	22607.23
525.81	22640.00
525.98	22548.72
526.16	22672.77
526.33	22958.31
526.50	23131.51
526.67	22733.62
526.84	22761.71
527.01	22869.37
527.18	22927.89
527.36	23094.07
527.53	23218.11
527.70	23124.49
527.87	23335.14
528.04	23047.26
528.21	23293.01
528.38	23278.97
528.55	23386.63
528.72	23314.08
528.89	23557.49
529.07	23573.88
529.24	23175.98
529.41	23915.59
529.58	23339.82
529.75	23534.09
529.92	23821.97
530.09	23491.96
530.26	23555.15
530.43	23482.59
530.60	23770.48
530.77	23655.79
530.94	23974.11
531.11	23894.53
531.28	23536.43
531.46	24051.34
531.63	23702.61
531.80	24112.20
531.97	24130.92
532.14	24259.65
532.31	23908.57
532.48	24081.77
532.65	24400.08
532.82	24191.78
532.99	24540.52
533.16	24407.11
533.33	24517.11
533.50	24449.24
533.67	24559.24
533.84	24217.52
534.01	24603.71
534.18	24313.48
534.35	24629.46
534.52	24362.64
534.69	24982.88
534.86	24865.85
535.03	24191.78
535.20	24718.40
535.37	24652.86
535.54	24947.77
535.71	24849.47
535.88	24662.22
536.05	24673.93
536.22	24877.55
536.38	25060.12
536.55	25303.53
536.72	25582.06
536.89	24800.32
537.06	25010.96
537.23	25165.44
537.40	24950.11
537.57	24879.89
537.74	25212.25
537.91	25539.93
538.08	25486.09
538.25	24800.32
538.42	25415.88
538.59	25191.19
538.75	25486.09
538.92	25291.83
539.09	25731.85
539.26	25586.74
539.43	25584.40
539.60	25357.36
539.77	25371.41
539.94	25764.62
540.11	25626.53
540.28	25804.41
540.44	25605.46
540.61	25584.40
540.78	25460.35
540.95	25685.04
541.12	25596.10
541.29	25549.29
541.46	25949.52
541.62	25528.22
541.79	26001.01
541.96	25446.30
542.13	25881.64
542.30	26038.46
542.47	26267.83
542.63	26125.06
542.80	26291.24
542.97	26246.77
543.14	26745.30
543.31	26705.51
543.48	26590.83
543.64	26534.65
543.81	26583.80
543.98	26586.15
544.15	26820.20
544.32	26649.34
544.48	27044.89
544.65	26078.25
544.82	26635.30
544.99	26382.52
545.16	26728.92
545.32	26881.05
545.49	26932.54
545.66	26995.74
545.83	27213.41
546.00	26916.16
546.16	26897.44
546.33	26515.93
546.50	26223.36
546.67	27360.86
546.83	27145.53
547.00	27042.55
547.17	26993.40
547.34	27206.39
547.50	27166.60
547.67	27222.77
547.84	26817.86
548.00	27075.32
548.17	27229.79
548.34	27143.19
548.51	27520.02
548.67	27370.22
548.84	27386.61
549.01	27136.17
549.18	27356.18
549.34	27009.78
549.51	27321.07
549.68	27517.68
549.84	27498.95
550.01	27232.13
550.18	27264.90
550.34	27527.04
550.51	27501.29
550.68	27850.03
550.84	27594.92
551.01	27489.59
551.18	27295.33
551.34	27360.86
551.51	27709.60
551.68	27662.79
551.84	27768.12
552.01	27735.35
552.18	27758.75
552.34	27744.71
552.51	27700.24
552.68	27964.72
552.84	27716.62
553.01	27934.29
553.18	28077.07
553.34	27599.60
553.51	27931.95
553.67	27903.87
553.84	28290.06
554.01	28137.92
554.17	28315.80
554.34	28219.84
554.51	27934.29
554.67	28210.48
554.84	28048.98
555.00	27864.08
555.17	28058.34
555.33	28343.89
555.50	28158.99
555.67	28077.07
555.83	28091.11
556.00	28339.21
556.16	28397.72
556.33	28254.95
556.50	28278.35
556.66	28411.76
556.83	28442.19
556.99	28837.74
557.16	28496.02
557.32	28599.01
557.49	28643.48
557.65	28290.06
557.82	28208.14
557.98	28386.02
558.15	28587.30
558.32	28701.99
558.48	28842.42
558.65	28877.53
558.81	28804.97
558.98	28570.92
559.14	28938.38
559.31	28900.94
559.47	28355.59
559.64	28793.27
559.80	28666.88
559.97	29088.18
560.13	28510.07
560.30	28952.43
560.46	28903.28
560.63	28699.65
560.79	29055.41
560.96	29160.73
561.12	28606.03
561.29	28465.60
561.45	28533.47
561.61	29186.48
561.78	29022.64
561.94	29216.91
562.11	28943.06
562.27	29010.94
562.44	28896.25
562.60	29163.08
562.77	29127.97
562.93	28879.87
563.10	28919.66
563.26	29401.81
563.42	29284.78
563.59	29436.92
563.75	29228.61
563.92	29277.76
564.08	29291.80
564.24	29053.07
564.41	29219.25
564.57	29088.18
564.74	29125.63
564.90	29628.84
565.07	29366.70
565.23	29373.72
565.39	29406.49
565.56	29579.69
565.72	29202.86
565.88	29525.86
566.05	29156.05
566.21	29296.49
566.38	29256.70
566.54	29474.37
566.70	29345.64
566.87	29694.38
567.03	29666.29
567.19	29902.68
567.36	29385.43
567.52	29317.55
567.68	29577.35
567.85	29322.23
568.01	29450.96
568.17	29422.87
568.34	29549.26
568.50	29542.24
568.66	29270.74
568.83	29600.76
568.99	29460.32
569.15	29408.83
569.32	29670.97
569.48	29179.46
569.64	29340.96
569.81	29347.98
569.97	29460.32
570.13	29336.27
570.30	29472.03
570.46	29282.44
570.62	29642.88
570.78	29455.64
570.95	29345.64
571.11	29504.79
571.27	29261.38
571.43	29453.30
571.60	29406.49
571.76	29441.60
571.92	29792.68
572.09	29254.36
572.25	29706.08
572.41	29811.40
572.57	29848.85
572.74	29191.16
572.90	29743.53
573.06	29432.24
573.22	29689.70
573.38	29603.10
573.55	29867.58
573.71	29741.19
573.87	29888.64
574.03	29586.71
574.20	29663.95
574.36	29809.06
574.52	29677.99
574.68	29614.80
574.84	29708.42
575.01	30110.99
575.17	29860.55
575.33	29783.32
575.49	29450.96
575.65	29858.21
575.82	29795.02
575.98	30232.70
576.14	29834.81
576.30	30052.48
576.46	29659.27
576.62	29682.67
576.79	30071.20
576.95	29757.57
577.11	29448.62
577.27	30110.99
577.43	29799.70
577.59	29715.44
577.75	29851.19
577.92	30015.03
578.08	29502.45
578.24	29977.58
578.40	29525.86
578.56	30155.46
578.72	29783.32
578.88	29708.42
579.04	30199.93
579.21	29713.10
579.37	29914.39
579.53	29986.94
579.69	29750.55
579.85	29811.40
580.01	29570.33
580.17	29429.90
580.33	29701.40
580.49	29902.68
580.65	30043.12
580.82	30106.31
580.98	30242.06
581.14	30331.00
581.30	30171.85
581.46	30061.84
581.62	29804.38
581.78	29738.85
581.94	29813.74
582.10	29900.34
582.26	29776.30
582.42	29984.60
582.58	29998.65
582.74	30522.93
582.90	30061.84
583.06	30071.20
583.22	29951.84
583.38	29750.55
583.54	30010.35
583.70	29785.66
583.86	29926.09
584.02	29930.77
584.18	30258.45
584.34	29996.31
584.50	30258.45
584.66	30092.27
584.82	30012.69
584.98	30075.88
585.14	30176.53
585.30	29909.71
585.46	30391.86
585.62	29848.85
585.78	30064.18
585.94	29862.90
586.10	30136.74
586.26	30213.98
586.42	30057.16
586.58	30132.06
586.74	29956.52
586.90	29993.97
587.06	29881.62
587.22	30029.07
587.38	30125.04
587.54	30359.09
587.70	30513.56
587.86	30412.92
588.02	30071.20
588.18	30529.95
588.34	29944.81
588.49	30157.80
588.65	30085.25
588.81	30015.03
588.97	30150.78
589.13	30064.18
589.29	30052.48
589.45	30417.60
589.61	30459.73
589.77	30696.13
589.93	30309.94
590.08	30539.31
590.24	30518.25
590.40	30644.63
590.56	30354.41
590.72	30536.97
590.88	30078.22
591.04	30185.89
591.20	30415.26
591.35	30719.53
591.51	30848.26
591.67	30583.78
591.83	30333.34
591.99	30677.40
592.15	30677.40
592.31	30293.55
592.46	30185.89
592.62	30391.86
592.78	30499.52
592.94	30052.48
593.10	30103.97
593.26	30323.98
593.41	30632.93
593.57	29865.24
593.73	30595.48
593.89	30756.98
594.05	30602.50
594.20	30169.51
594.36	30422.28
594.52	30443.35
594.68	30143.76
594.84	30508.88
594.99	30335.68
595.15	30799.11
595.31	30759.32
595.47	30766.34
595.62	30499.52
595.78	30670.38
595.94	30125.04
596.10	30579.10
596.25	30356.75
596.41	30490.16
596.57	30286.53
596.73	30431.65
596.88	30429.30
597.04	30693.79
597.20	30565.06
597.36	30520.59
597.51	30623.57
597.67	30352.07
597.83	30024.39
597.99	30347.39
598.14	30696.13
598.30	30417.60
598.46	30485.48
598.61	30623.57
598.77	30733.57
598.93	30466.75
599.09	30892.73
599.24	31161.89
599.40	30600.16
599.56	30778.04
599.71	30721.87
599.87	31009.76
600.03	30920.82
600.18	30789.75
600.34	30778.04
600.50	30553.35
600.65	30520.59
600.81	30466.75
600.97	30906.77
601.12	30698.47
601.28	30579.10
601.44	30796.77
601.59	30930.18
601.75	30836.56
601.91	30630.59
602.06	30569.74
602.22	30448.03
602.37	30710.17
602.53	30309.94
602.69	30773.36
602.84	30731.23
603.00	30721.87
603.16	30707.83
603.31	30572.08
603.47	30831.88
603.62	30588.46
603.78	30834.22
603.94	30391.86
604.09	30733.57
604.25	30719.53
604.40	30286.53
604.56	30850.60
604.71	31489.57
604.87	30705.49
605.03	30515.90
605.18	30848.26
605.34	30864.64
605.49	30029.07
605.65	30686.76
605.80	30403.56
605.96	30300.58
606.12	30944.22
606.27	30684.42
606.43	30349.73
606.58	30328.66
606.74	30506.54
606.89	30546.33
607.05	30574.42
607.20	30827.20
607.36	30740.60
607.51	30951.24
607.67	30263.13
607.82	30354.41
607.98	30216.32
608.13	30590.80
608.29	30380.15
608.44	30471.43
608.60	30155.46
608.75	30223.34
608.91	30581.44
609.06	30307.60
609.22	30630.59
609.37	30403.56
609.53	30274.83
609.68	30270.15
609.84	30178.87
609.99	30483.14
610.15	30506.54
610.30	30349.73
610.46	30249.08
610.61	30588.46
610.76	30408.24
610.92	30532.29
611.07	30118.01
611.23	30286.53
611.38	30183.55
611.54	30026.73
611.69	29928.43
611.84	30438.67
612.00	30073.54
612.15	30181.21
612.31	30253.76
612.46	30068.86
612.62	30000.99
612.77	30103.97
612.92	30256.11
613.08	30249.08
613.23	30284.19
613.39	30169.51
613.54	29834.81
613.69	30258.45
613.85	29804.38
614.00	30380.15
614.15	30183.55
614.31	29907.37
614.46	30237.38
614.62	30543.99
614.77	30415.26
614.92	30017.37
615.08	30162.48
615.23	29890.98
615.38	29935.45
615.54	29855.87
615.69	29710.76
615.84	29722.46
616.00	29755.23
616.15	29692.04
616.30	29923.75
616.46	29860.55
616.61	29383.09
616.76	29689.70
616.92	29633.52
617.07	30017.37
617.22	29790.34
617.37	29696.72
617.53	29507.13
617.68	29720.12
617.83	29759.91
617.99	29701.40
618.14	29408.83
618.29	29694.38
618.45	29586.71
618.60	29567.99
618.75	29593.73
618.90	30073.54
619.06	29670.97
619.21	29930.77
619.36	29727.14
619.51	29357.34
619.67	29502.45
619.82	29773.95
619.97	29528.20
620.12	29441.60
620.28	28947.75
620.43	29600.76
620.58	29537.56
620.73	29748.21
620.89	29539.90
621.04	29830.13
621.19	29551.60
621.34	29633.52
621.49	29479.05
621.65	29149.03
621.80	29254.36
621.95	29078.82
622.10	29254.36
622.25	29127.97
622.41	29284.78
622.56	28783.91
622.71	29647.57
622.86	29364.36
623.01	29425.22
623.16	29099.88
623.32	28793.27
623.47	29242.65
623.62	29081.16
623.77	29237.97
623.92	29193.50
624.07	28783.91
624.23	29186.48
624.38	28959.45
624.53	29544.58
624.68	28861.15
624.83	29326.91
624.98	29167.76
625.13	28980.51
625.29	29256.70
625.44	28940.72
625.59	28826.04
625.74	28465.60
625.89	28980.51
626.04	28704.33
626.19	28971.15
626.34	28723.05
626.49	28393.04
626.65	28493.68
626.80	28931.36
626.95	28833.06
627.10	28814.34
627.25	28823.70
627.40	28748.80
627.55	28517.09
627.70	28250.27
627.85	28187.07
628.00	28510.07
628.15	28306.44
628.30	28334.53
628.45	28257.29
628.60	28456.23
628.76	28390.70
628.91	28804.97
629.06	28435.17
629.21	28411.76
629.36	28547.51
629.51	28374.31
629.66	28044.30
629.81	27953.02
629.96	28077.07
630.11	28203.46
630.26	28208.14
630.41	28180.05
630.56	28161.33
630.71	28346.23
630.86	28058.34
631.01	28507.72
631.16	28629.43
631.31	28091.11
631.46	28212.82
631.61	28210.48
631.76	28215.16
631.91	27880.46
632.06	28039.62
632.21	28121.54
632.36	28231.54
632.51	27529.38
632.66	28133.24
632.81	27892.16
632.96	28091.11
633.10	28182.39
633.25	28451.55
633.40	28180.05
633.55	28245.58
633.70	27999.83
633.85	27653.43
634.00	27936.63
634.15	27672.15
634.30	28009.19
634.45	27730.67
634.60	28018.55
634.75	27878.12
634.90	27681.52
635.05	28016.21
635.19	27845.35
635.34	27613.64
635.49	28027.92
635.64	27700.24
635.79	27894.50
635.94	27548.11
636.09	27796.20
636.24	27454.48
636.39	27424.06
636.53	27651.09
636.68	27178.30
636.83	27391.29
636.98	27847.69
637.13	27370.22
637.28	27864.08
637.43	27566.83
637.57	27538.74
637.72	27424.06
637.87	27718.96
638.02	27538.74
638.17	27669.81
638.32	27234.47
638.46	27281.28
638.61	27098.72
638.76	26979.36
638.91	27283.62
639.06	27566.83
639.20	27393.63
639.35	27206.39
639.50	26955.95
639.65	27498.95
639.80	27569.17
639.94	27496.61
640.09	27096.38
640.24	27234.47
640.39	27309.37
640.54	27115.11
640.68	27243.84
640.83	27049.57
640.98	27012.12
641.13	27007.44
641.27	27260.22
641.42	26946.59
641.57	27271.92
641.72	27187.66
641.86	27063.61
642.01	27124.47
642.16	27108.08
642.31	26607.21
642.45	26698.49
642.60	26698.49
642.75	26625.93
642.90	26445.71
643.04	26616.57
643.19	26492.52
643.34	26775.73
643.48	26675.09
643.63	26742.96
643.78	27157.24
643.93	26969.99
644.07	26801.47
644.22	27070.64
644.37	26698.49
644.51	26597.85
644.66	26822.54
644.81	26607.21
644.95	26267.83
645.10	26691.47
645.25	26665.72
645.39	27028.51
645.54	26251.45
645.69	26829.56
645.83	26668.06
645.98	26511.25
646.13	26714.87
646.27	26611.89
646.42	26497.20
646.57	26738.28
646.71	26656.36
646.86	26398.90
647.00	26354.43
647.15	26586.15
647.30	26253.79
647.44	26251.45
647.59	26328.69
647.74	26565.08
647.88	26211.66
648.03	26546.36
648.17	26450.39
648.32	26639.98
648.47	26455.08
648.61	26506.57
648.76	26127.40
648.90	26373.16
649.05	26352.09
649.20	26047.82
649.34	26639.98
649.49	26228.04
649.63	25977.61
649.78	25998.67
649.92	25865.26
650.07	25907.39
650.21	26321.66
650.36	25867.60
650.51	25830.15
650.65	26045.48
650.80	26380.18
650.94	26171.87
651.09	26082.93
651.23	25752.91
651.38	25951.86
651.52	25790.36
651.67	25755.26
651.81	26143.78
651.96	26031.44
652.10	25979.95
652.25	25806.75
652.39	26300.60
652.54	25872.28
652.68	25795.04
652.83	26139.10
652.97	26120.38
653.12	25748.23
653.26	25624.18
653.41	25834.83
653.55	25736.53
653.70	25525.88
653.84	25633.55
653.99	25350.34
654.13	25640.57
654.27	25479.07
654.42	25474.39
654.56	25804.41
654.71	25795.04
654.85	25338.64
655.00	25652.27
655.14	25420.56
655.29	25708.44
655.43	25750.57
655.57	25399.49
655.72	25219.27
655.86	25502.48
656.01	25458.01
656.15	25216.93
656.30	25294.17
656.44	25146.72
656.58	25408.86
656.73	25338.64
656.87	25275.45
657.01	25305.87
657.16	25383.11
657.30	25406.52
657.45	25472.05
657.59	25319.92
657.73	25380.77
657.88	25228.63
658.02	25017.99
658.16	25120.97
658.31	24980.54
658.45	25144.38
658.60	24987.56
658.74	24690.31
658.88	24992.24
659.03	25146.72
659.17	25172.46
659.31	25235.66
659.46	24882.24
659.60	25195.87
659.74	25020.33
659.89	24676.27
660.03	24863.51
660.17	24809.68
660.32	24411.79
660.46	24531.15
660.60	24584.99
660.74	24563.92
660.89	24582.65
661.03	24526.47
661.17	24601.37
661.32	24489.03
661.46	24830.74
661.60	24629.46
661.74	24638.82
661.89	24397.74
662.03	24875.21
662.17	24423.49
662.31	24067.73
662.46	24245.61
662.60	24414.13
662.74	24208.16
662.88	24449.24
663.03	23583.24
663.17	24306.46
663.31	23772.82
663.45	24119.22
663.60	24233.91
663.74	23990.49
663.88	24095.82
664.02	24339.23
664.17	24313.48
664.31	23857.08
664.45	23817.29
664.59	23630.05
664.73	24011.56
664.88	23782.18
665.02	23353.87
665.16	23377.27
665.30	23445.15
665.44	23660.48
665.59	23288.33
665.73	23384.29
665.87	23433.44
666.01	23276.63
666.15	23775.16
666.29	23693.24
666.44	23683.88
666.58	23187.69
666.72	23253.22
666.86	23257.90
667.00	23283.65
667.14	23365.57
667.28	22993.42
667.43	23356.21
667.57	23309.40
667.71	22829.59
667.85	23124.49
667.99	22988.74
668.13	22906.82
668.27	23246.20
668.41	22724.26
668.56	22867.03
668.70	22820.22
668.84	22925.55
668.98	22733.62
669.12	22960.66
669.26	22923.21
669.40	22537.02
669.54	22764.05
669.68	22609.58
669.82	22801.50
669.96	22403.61
670.10	22368.50
670.25	22525.32
670.39	22246.79
670.53	22560.42
670.67	22075.93
670.81	22398.93
670.95	22188.28
671.09	22335.73
671.23	22473.82
671.37	22487.87
671.51	22427.01
671.65	22075.93
671.79	22190.62
671.93	21954.22
672.07	22237.43
672.21	21893.37
672.35	21816.13
672.49	21699.11
672.63	22139.13
672.77	21755.28
672.91	21523.57
673.05	21603.14
673.19	21926.14
673.33	21563.36
673.47	21689.74
673.61	21703.79
673.75	21617.19
673.89	21699.11
674.03	21319.94
674.17	21516.54
674.31	21649.96
674.45	21413.56
674.59	21694.43
674.73	21142.06
674.87	21453.35
675.01	21310.58
675.15	21179.51
675.29	21088.23
675.43	21163.12
675.56	20973.54
675.70	20886.94
675.84	20725.44
675.98	20435.22
676.12	20922.05
676.26	21034.39
676.40	20657.57
676.54	20528.84
676.68	20826.09
676.82	20278.40
676.96	20772.25
677.10	20475.01
677.23	20575.65
677.37	19948.39
677.51	20596.71
677.65	20453.94
677.79	20257.34
677.93	19955.41
678.07	20262.02
678.21	19896.89
678.34	20191.80
678.48	20070.09
678.62	19707.31
678.76	20006.90
678.90	19695.61
679.04	19728.38
679.18	19953.07
679.31	19396.02
679.45	19180.69
679.59	19328.14
679.73	19080.05
679.87	18960.68
680.00	19033.24
680.14	19040.26
680.28	19208.78
680.42	19253.25
680.56	19140.90
680.70	18963.02
680.83	18979.40
680.97	18637.69
681.11	19115.16
681.25	18991.11
681.39	18541.72
681.52	18817.91
681.66	18534.70
681.80	18525.34
681.94	18253.84
682.07	18740.67
682.21	18398.95
682.35	18429.38
682.49	18169.58
682.62	18178.94
682.76	18071.28
682.90	18031.49
683.04	17940.21
683.17	18291.29
683.31	18036.17
683.45	18111.07
683.59	18033.83
683.72	17867.65
683.86	17671.04
684.00	17987.02
684.13	17846.58
684.27	17502.53
684.41	17605.51
684.55	17291.88
684.68	17385.50
684.82	17296.56
684.96	17420.61
685.09	17345.71
685.23	17135.06
685.37	17422.95
685.50	17298.90
685.64	17348.05
685.78	17301.24
685.91	17020.38
686.05	17032.08
686.19	16889.31
686.32	16996.97
686.46	16800.37
686.60	16828.45
686.73	16521.84
686.87	16655.25
687.01	16573.33
687.14	16212.89
687.28	16201.19
687.42	16393.11
687.55	16437.58
687.69	16262.04
687.82	15950.75
687.96	16315.87
688.10	16137.99
688.23	16358.00
688.37	15906.28
688.50	15882.88
688.64	15882.88
688.78	15864.15
688.91	15822.02
689.05	15948.41
689.18	15807.98
689.32	15257.95
689.46	15744.78
689.59	15763.51
689.73	15627.76
689.86	15073.05
690.00	15147.95
690.13	15192.42
690.27	15417.11
690.41	15508.39
690.54	15077.73
690.68	15154.97
690.81	15019.22
690.95	15119.86
691.08	15042.62
691.22	15063.69
691.35	14878.79
691.49	15169.01
691.62	14820.27
691.76	14679.84
691.89	14410.68
692.03	14377.91
692.16	14319.40
692.30	14178.97
692.43	14354.51
692.57	14476.21
692.70	14441.11
692.84	14239.82
692.97	14200.03
693.11	14190.67
693.24	13956.61
693.38	14031.51
693.51	14033.85
693.65	14111.09
693.78	13816.18
693.92	13977.68
694.05	13680.43
694.19	13757.67
694.32	13680.43
694.45	13591.49
694.59	13504.89
694.72	13397.23
694.86	13380.84
694.99	13165.51
695.13	13317.65
695.26	13092.96
695.39	13273.18
695.53	13317.65
695.66	13280.20
695.80	12894.01
695.93	13535.32
696.07	13322.33
696.20	12894.01
696.33	12952.52
696.47	13006.36
696.60	13013.38
696.73	12809.75
696.87	12767.62
697.00	12791.03
697.14	12383.77
697.27	12325.26
697.40	12397.82
697.54	12428.24
697.67	12315.90
697.80	12224.62
697.94	12297.17
698.07	12042.06
698.21	12086.53
698.34	12196.53
698.47	12177.81
698.61	12194.19
698.74	12023.33
698.87	12182.49
699.01	11974.18
699.14	12070.14
699.27	11709.70
699.40	11719.06
699.54	11641.82
699.67	11695.66
699.80	11534.16
699.94	11756.51
700.07	11751.83
700.20	11304.79
700.34	11243.93
700.47	11243.93
700.60	11220.53
700.73	11108.18
700.87	11487.35
701.00	11105.84
701.13	10970.09
701.26	11150.31
701.40	10995.84
701.53	11110.52
701.66	11002.86
701.79	11239.25
701.93	10904.56
702.06	10764.12
702.19	10647.10
702.32	10789.87
702.46	10656.46
702.59	10501.98
702.72	10455.17
702.85	10616.67
702.99	10317.08
703.12	10277.29
703.25	10312.40
703.38	10424.75
703.51	10574.54
703.65	10115.80
703.78	10230.48
703.91	10209.42
704.04	10181.33
704.17	10267.93
704.31	10153.24
704.44	10298.36
704.57	9893.44
704.70	10066.64
704.83	9923.87
704.96	9963.66
705.10	9785.78
705.23	9762.37
>>>>>End Processed Spectral Data<<<<<
