SpectraSuite Data File
++++++++++++++++++++++++++++++++++++
Date: Fri Oct 18 13:58:24 GMT-05:00 2013
User: bianchi
Dark Spectrum Present: No
Reference Spectrum Present: No
Number of Sampled Component Spectra: 1
Spectrometers: USB2+H05261
Integration Time (usec): 50000 (USB2+H05261)
Spectra Averaged: 1 (USB2+H05261)
Boxcar Smoothing: 0 (USB2+H05261)
Correct for Electrical Dark: No (USB2+H05261)
Strobe/Lamp Enabled: No (USB2+H05261)
Correct for Detector Non-linearity: No (USB2+H05261)
Correct for Stray Light: No (USB2+H05261)
Number of Pixels in Processed Spectrum: 2048
>>>>>Begin Processed Spectral Data<<<<<
365.73	0.00
365.92	0.00
366.12	0.00
366.32	0.00
366.52	0.00
366.72	0.00
366.91	0.00
367.11	0.00
367.31	0.00
367.51	0.00
367.70	0.00
367.90	0.00
368.10	0.00
368.30	0.00
368.49	0.00
368.69	0.00
368.89	0.00
369.09	0.00
369.28	0.00
369.48	0.00
369.68	0.00
369.87	0.00
370.07	0.00
370.27	0.00
370.47	0.00
370.66	63.19
370.86	180.22
371.06	77.24
371.25	166.18
371.45	124.05
371.65	140.43
371.84	175.54
372.04	147.45
372.24	220.01
372.44	161.50
372.63	184.90
372.83	184.90
373.03	241.08
373.22	191.92
373.42	180.22
373.62	191.92
373.81	285.55
374.01	250.44
374.21	248.10
374.40	201.29
374.60	238.73
374.79	217.67
374.99	210.65
375.19	229.37
375.38	224.69
375.58	238.73
375.78	255.12
375.97	255.12
376.17	259.80
376.37	215.33
376.56	271.50
376.76	210.65
376.95	229.37
377.15	290.23
377.35	257.46
377.54	262.14
377.74	290.23
377.93	252.78
378.13	280.86
378.33	290.23
378.52	278.52
378.72	177.88
378.91	337.04
379.11	241.08
379.31	229.37
379.50	250.44
379.70	269.16
379.89	290.23
380.09	397.89
380.28	276.18
380.48	353.42
380.68	297.25
380.87	297.25
381.07	365.12
381.26	327.68
381.46	315.97
381.65	348.74
381.85	318.31
382.04	290.23
382.24	294.91
382.43	367.46
382.63	397.89
382.83	337.04
383.02	344.06
383.22	383.85
383.41	322.99
383.61	318.31
383.80	444.70
384.00	334.70
384.19	395.55
384.39	372.15
384.58	442.36
384.78	379.17
384.97	423.64
385.17	376.83
385.36	374.49
385.56	355.76
385.75	456.40
385.95	348.74
386.14	496.19
386.34	440.02
386.53	442.36
386.72	379.17
386.92	418.96
387.11	519.60
387.31	402.57
387.50	451.72
387.70	390.87
387.89	367.46
388.09	475.13
388.28	402.57
388.48	451.72
388.67	472.79
388.86	461.09
389.06	524.28
389.25	447.04
389.45	517.26
389.64	435.34
389.84	538.32
390.03	528.96
390.22	442.36
390.42	477.47
390.61	477.47
390.81	503.22
391.00	500.87
391.19	582.79
391.39	458.74
391.58	507.90
391.78	524.28
391.97	535.98
392.16	582.79
392.36	559.39
392.55	573.43
392.75	538.32
392.94	517.26
393.13	538.32
393.33	461.09
393.52	477.47
393.71	601.52
393.91	575.77
394.10	601.52
394.29	533.64
394.49	507.90
394.68	613.22
394.88	599.18
395.07	596.84
395.26	575.77
395.46	543.00
395.65	608.54
395.84	636.63
396.04	615.56
396.23	688.12
396.42	631.94
396.62	662.37
396.81	573.43
397.00	631.94
397.19	671.73
397.39	559.39
397.58	655.35
397.77	681.10
397.97	655.35
398.16	631.94
398.35	664.71
398.55	739.61
398.74	753.65
398.93	744.29
399.12	723.23
399.32	664.71
399.51	624.92
399.70	713.86
399.90	784.08
400.09	779.40
400.28	828.55
400.47	807.48
400.67	709.18
400.86	779.40
401.05	720.88
401.24	837.91
401.44	882.38
401.63	837.91
401.82	835.57
402.01	746.63
402.21	912.81
402.40	767.70
402.59	807.48
402.78	887.06
402.97	858.98
403.17	840.25
403.36	791.10
403.55	812.17
403.74	882.38
403.93	931.53
404.13	880.04
404.32	898.77
404.51	924.51
404.70	917.49
404.89	922.17
405.09	987.71
405.28	938.55
405.47	997.07
405.66	990.05
405.85	1027.50
406.05	976.00
406.24	1041.54
406.43	1064.94
406.62	1076.65
406.81	1057.92
407.00	1001.75
407.20	1008.77
407.39	961.96
407.58	1109.41
407.77	1020.47
407.96	1039.20
408.15	1076.65
408.34	1062.60
408.54	1125.80
408.73	1083.67
408.92	1144.52
409.11	1107.07
409.30	1116.44
409.49	1125.80
409.68	1071.97
409.87	1158.57
410.07	1121.12
410.26	1149.20
410.45	1191.33
410.64	1212.40
410.83	1207.72
411.02	1301.34
411.21	1259.21
411.40	1245.16
411.59	1357.51
411.78	1245.16
411.98	1334.11
412.17	1303.68
412.36	1256.87
412.55	1322.40
412.74	1320.06
412.93	1277.93
413.12	1341.13
413.31	1394.96
413.50	1380.92
413.69	1453.47
413.88	1486.24
414.07	1334.11
414.26	1493.26
414.45	1547.09
414.64	1502.62
414.83	1481.56
415.02	1451.13
415.22	1579.86
415.41	1568.16
415.60	1542.41
415.79	1490.92
415.98	1638.38
416.17	1521.35
416.36	1633.69
416.55	1696.89
416.74	1703.91
416.93	1682.85
417.12	1657.10
417.31	1701.57
417.50	1736.68
417.69	1781.15
417.88	1755.40
418.07	1717.95
418.26	1853.70
418.45	1886.47
418.64	1832.64
418.83	1755.40
419.02	1858.39
419.21	1863.07
419.39	1832.64
419.58	1825.62
419.77	1834.98
419.96	1842.00
420.15	1783.49
420.34	1954.35
420.53	1900.52
420.72	1930.94
420.91	1914.56
421.10	2026.90
421.29	1949.67
421.48	1879.45
421.67	1987.11
421.86	2033.93
422.05	1832.64
422.24	1926.26
422.43	1891.15
422.61	2073.71
422.80	1919.24
422.99	2062.01
423.18	1959.03
423.37	1872.43
423.56	2087.76
423.75	2029.24
423.94	1921.58
424.13	1872.43
424.32	1937.96
424.50	2038.61
424.69	2113.50
424.88	1989.46
425.07	2080.74
425.26	2083.08
425.45	2085.42
425.64	2153.29
425.83	1935.62
426.01	2069.03
426.20	2153.29
426.39	1989.46
426.58	2059.67
426.77	2108.82
426.96	2129.89
427.15	2057.33
427.33	1998.82
427.52	2186.06
427.71	2111.16
427.90	2256.28
428.09	2218.83
428.28	2380.32
428.46	2242.23
428.65	2197.76
428.84	2275.00
429.03	2326.49
429.22	2277.34
429.40	2289.04
429.59	2340.54
429.78	2125.21
429.97	2127.55
430.16	2216.49
430.34	2286.70
430.53	2352.24
430.72	2207.13
430.91	2244.57
431.10	2253.94
431.28	2361.60
431.47	2237.55
431.66	2406.07
431.85	2300.75
432.03	2291.38
432.22	2492.67
432.41	2434.16
432.60	2459.90
432.79	2452.88
432.97	2347.56
433.16	2340.54
433.35	2471.61
433.54	2523.10
433.72	2525.44
433.91	2572.25
434.10	2469.27
434.28	2546.50
434.47	2499.69
434.66	2654.17
434.85	2691.62
435.03	2609.70
435.22	2602.68
435.41	2686.94
435.59	2516.08
435.78	2668.21
435.97	2705.66
436.16	2644.81
436.34	2768.85
436.53	2642.46
436.72	2806.30
436.90	2640.12
437.09	2628.42
437.28	2731.41
437.46	2740.77
437.65	2747.79
437.84	2796.94
438.02	2717.36
438.21	2775.88
438.40	2750.13
438.58	2892.90
438.77	2920.99
438.96	2860.13
439.14	2857.79
439.33	2979.50
439.52	3023.97
439.70	2937.37
439.89	2993.55
440.08	2930.35
440.26	3098.87
440.45	3021.63
440.63	3066.10
440.82	3133.98
441.01	3038.02
441.19	3033.33
441.38	3236.96
441.57	3269.73
441.75	3304.84
441.94	3222.92
442.12	3173.77
442.31	3269.73
442.50	3337.60
442.68	3309.52
442.87	3389.10
443.05	3258.03
443.24	3283.77
443.43	3346.97
443.61	3173.77
443.80	3433.57
443.98	3286.11
444.17	3208.87
444.35	3435.91
444.54	3426.54
444.73	3384.41
444.91	3419.52
445.10	3461.65
445.28	3463.99
445.47	3414.84
445.65	3475.70
445.84	3475.70
446.02	3454.63
446.21	3339.94
446.39	3449.95
446.58	3449.95
446.77	3522.51
446.95	3440.59
447.14	3529.53
447.32	3494.42
447.51	3426.54
447.69	3606.77
447.88	3548.25
448.06	3396.12
448.25	3536.55
448.43	3508.46
448.62	3510.80
448.80	3548.25
448.99	3588.04
449.17	3559.95
449.36	3597.40
449.54	3623.15
449.73	3744.86
449.91	3754.22
450.10	3648.90
450.28	3700.39
450.46	3737.84
450.65	3674.64
450.83	3646.55
451.02	3838.48
451.20	3742.52
451.39	3721.45
451.57	3735.50
451.76	3756.56
451.94	3859.54
452.13	3878.27
452.31	3904.01
452.49	3801.03
452.68	3864.22
452.86	3829.12
453.05	3997.64
453.23	3932.10
453.42	3737.84
453.60	3915.72
453.78	3934.44
453.97	3911.04
454.15	3988.27
454.34	3939.12
454.52	3861.88
454.70	4044.45
454.89	4093.60
455.07	3985.93
455.26	4056.15
455.44	4126.36
455.62	3957.85
455.81	4025.72
455.99	4138.07
456.17	4231.69
456.36	4126.36
456.54	4280.84
456.73	4203.60
456.91	4376.80
457.09	4435.32
457.28	4421.27
457.46	4145.09
457.64	4290.20
457.83	4292.54
458.01	4191.90
458.19	4475.10
458.38	4416.59
458.56	4451.70
458.74	4329.99
458.93	4404.89
459.11	4432.97
459.29	4283.18
459.48	4482.13
459.66	4465.74
459.84	4397.87
460.03	4430.63
460.21	4624.90
460.39	4470.42
460.57	4496.17
460.76	4585.11
460.94	4610.86
461.12	4512.55
461.31	4557.02
461.49	4683.41
461.67	4531.28
461.85	4837.89
462.04	4585.11
462.22	4847.25
462.40	4823.84
462.59	4809.80
462.77	4723.20
462.95	4706.82
463.13	4784.06
463.32	4725.54
463.50	4936.19
463.68	4833.21
463.86	4865.97
464.05	4830.87
464.23	4973.64
464.41	4903.42
464.59	4947.89
464.78	4809.80
464.96	4863.63
465.14	5055.56
465.32	4884.70
465.50	5151.52
465.69	5132.79
465.87	5060.24
466.05	4947.89
466.23	5060.24
466.41	5064.92
466.60	5200.67
466.78	4947.89
466.96	5034.49
467.14	5062.58
467.32	5029.81
467.51	5268.55
467.69	5102.37
467.87	5132.79
468.05	5177.26
468.23	5172.58
468.41	5097.69
468.60	5200.67
468.78	5137.48
468.96	5191.31
469.14	5418.34
469.32	5320.04
469.50	5308.34
469.69	5476.85
469.87	5406.64
470.05	5434.72
470.23	5455.79
470.41	5320.04
470.59	5547.07
470.77	5455.79
470.95	5645.37
471.14	5593.88
471.32	5490.90
471.50	5621.97
471.68	5675.80
471.86	5596.22
472.04	5628.99
472.22	5638.35
472.40	5614.95
472.58	5785.80
472.77	5809.21
472.95	5795.17
473.13	6029.22
473.31	5811.55
473.49	5741.33
473.67	5858.36
473.85	5879.43
474.03	5930.92
474.21	5963.68
474.39	6190.72
474.57	6022.20
474.75	6113.48
474.93	6296.04
475.12	6190.72
475.30	6122.84
475.48	6115.82
475.66	6104.12
475.84	6106.46
476.02	6438.81
476.20	6373.28
476.38	6305.40
476.56	6445.84
476.74	6403.71
476.92	6558.18
477.10	6567.54
477.28	6600.31
477.46	6520.73
477.64	6537.12
477.82	6813.30
478.00	6883.52
478.18	7204.17
478.36	7037.99
478.54	7075.44
478.72	7073.10
478.90	7105.87
479.08	7206.51
479.26	7276.73
479.44	7234.60
479.62	7255.66
479.80	7431.20
479.98	7503.76
480.16	7669.94
480.34	7679.30
480.52	7726.11
480.70	7836.11
480.88	7447.58
481.06	7943.78
481.24	7817.39
481.41	7737.81
481.59	7946.12
481.77	8187.19
481.95	8145.06
482.13	7978.89
482.31	8093.57
482.49	8351.03
482.67	8369.76
482.85	8421.25
483.03	8353.37
483.21	8512.53
483.39	8638.92
483.57	8615.51
483.74	8603.81
483.92	9067.24
484.10	8809.78
484.28	8936.17
484.46	9114.05
484.64	9177.24
484.82	9153.84
485.00	9107.02
485.18	9287.25
485.35	9408.95
485.53	9540.02
485.71	9465.13
485.89	9668.75
486.07	9481.51
486.25	9624.28
486.43	9748.33
486.61	9600.88
486.78	10005.79
486.96	9947.28
487.14	10076.01
487.32	10113.45
487.50	10174.31
487.68	10141.54
487.85	10298.36
488.03	10553.48
488.21	10399.00
488.39	10516.03
488.57	10703.27
488.75	10537.09
488.92	10761.78
489.10	10885.83
489.28	10939.66
489.46	11084.78
489.64	11190.10
489.81	11412.45
489.99	11398.41
490.17	11410.11
490.35	11559.91
490.53	11405.43
490.70	11714.38
490.88	11712.04
491.06	11793.96
491.24	11728.42
491.41	11880.56
491.59	11908.65
491.77	11997.59
491.95	12231.64
492.13	12044.40
492.30	12325.26
492.48	12049.08
492.66	12182.49
492.84	12512.50
493.01	12547.61
493.19	12622.51
493.37	12945.50
493.54	12856.56
493.72	12952.52
493.90	13022.74
494.08	13029.76
494.25	13238.07
494.43	12999.34
494.61	13268.50
494.79	13109.34
494.96	13490.85
495.14	13324.67
495.32	13429.99
495.49	13556.38
495.67	13556.38
495.85	13748.31
496.02	13930.87
496.20	13846.61
496.38	14083.00
496.55	14099.39
496.73	14300.67
496.91	14118.11
497.09	14375.57
497.26	14342.80
497.44	14169.60
497.62	14333.44
497.79	14303.01
497.97	14558.13
498.14	14689.20
498.32	14728.99
498.50	14949.00
498.67	14904.53
498.85	14597.92
499.03	15023.90
499.20	15042.62
499.38	15077.73
499.56	15234.55
499.73	15257.95
499.91	15463.92
500.08	15721.38
500.26	15234.55
500.44	15433.49
500.61	15840.75
500.79	15648.82
500.97	15611.37
501.14	16126.29
501.32	16126.29
501.49	15889.90
501.67	16027.99
501.84	16039.69
502.02	16105.23
502.20	16006.92
502.37	15960.11
502.55	16018.63
502.72	16542.91
502.90	16465.67
503.07	16107.57
503.25	16425.88
503.43	16407.16
503.60	16381.41
503.78	16496.10
503.95	16418.86
504.13	16573.33
504.30	16643.55
504.48	16589.72
504.65	16931.44
504.83	16858.88
505.01	17008.67
505.18	17067.19
505.36	17315.28
505.53	16858.88
505.71	17020.38
505.88	17198.26
506.06	17205.28
506.23	17598.49
506.41	17476.78
506.58	17270.81
506.76	17202.94
506.93	17411.25
507.11	17539.97
507.28	17603.17
507.46	17645.30
507.63	17788.07
507.81	17975.31
507.98	17385.50
508.16	18017.44
508.33	17816.16
508.50	17743.60
508.68	18012.76
508.85	18356.82
509.03	18050.21
509.20	18178.94
509.38	18581.51
509.55	18757.05
509.73	18455.12
509.90	18328.74
510.08	18373.21
510.25	18485.55
510.42	18565.13
510.60	18953.66
510.77	18895.14
510.95	18455.12
511.12	18691.52
511.30	18520.66
511.47	18841.31
511.64	18752.37
511.82	18895.14
511.99	18658.75
512.17	19103.45
512.34	19035.58
512.51	19023.87
512.69	19016.85
512.86	19534.11
513.04	19536.45
513.21	19384.32
513.38	19733.06
513.56	19875.83
513.73	19260.27
513.90	19494.32
514.08	19499.00
514.25	19606.67
514.43	19843.06
514.60	19789.23
514.77	19939.02
514.95	20023.28
515.12	19875.83
515.29	19819.66
515.47	19836.04
515.64	20095.84
515.81	20400.11
515.99	19985.83
516.16	20276.06
516.33	20217.55
516.51	20484.37
516.68	20327.55
516.85	19896.89
517.03	20425.86
517.20	20451.60
517.37	20458.62
517.54	20116.90
517.72	20622.46
517.89	20615.44
518.06	20835.45
518.24	20877.58
518.41	20755.87
518.58	20491.39
518.75	20877.58
518.93	20893.96
519.10	20903.32
519.27	21071.84
519.45	21191.21
519.62	20840.13
519.79	21275.47
519.96	21128.02
520.14	21326.96
520.31	21284.83
520.48	21238.02
520.65	21378.45
520.83	21397.18
521.00	21553.99
521.17	21523.57
521.34	21486.12
521.52	21935.50
521.69	21607.83
521.86	21792.73
522.03	21986.99
522.20	21900.39
522.38	21706.13
522.55	22003.38
522.72	21750.60
522.89	21949.54
523.07	22113.38
523.24	21956.57
523.41	22143.81
523.58	21905.07
523.75	22522.98
523.92	22157.85
524.10	22169.55
524.27	22544.04
524.44	22445.74
524.61	22361.48
524.78	22464.46
524.96	22815.54
525.13	22368.50
525.30	22541.70
525.47	22553.40
525.64	22778.09
525.81	23122.15
525.98	22796.82
526.16	22551.06
526.33	23023.85
526.50	22647.02
526.67	23000.44
526.84	22663.41
527.01	22925.55
527.18	22963.00
527.36	23262.58
527.53	22836.61
527.70	23510.68
527.87	22970.02
528.04	23021.51
528.21	23171.30
528.38	23131.51
528.55	23592.60
528.72	23309.40
528.89	23487.28
529.07	23501.32
529.24	22937.25
529.41	23751.76
529.58	23307.05
529.75	23782.18
529.92	23281.31
530.09	23608.98
530.26	23864.10
530.43	23681.54
530.60	23473.23
530.77	23744.73
530.94	24182.42
531.11	23679.20
531.28	23747.08
531.46	23950.70
531.63	24027.94
531.80	23924.96
531.97	23974.11
532.14	24315.83
532.31	23779.84
532.48	24414.13
532.65	23955.38
532.82	23927.30
532.99	24240.93
533.16	24379.02
533.33	24154.33
533.50	24746.48
533.67	24570.94
533.84	24477.32
534.01	24514.77
534.18	24467.96
534.35	24847.13
534.52	24723.08
534.69	24793.29
534.86	24879.89
535.03	24554.56
535.20	24814.36
535.37	24730.10
535.54	24718.40
535.71	24755.85
535.88	25010.96
536.05	24917.34
536.22	25200.55
536.38	24975.86
536.55	25263.74
536.72	25055.43
536.89	24975.86
537.06	24943.09
537.23	25308.21
537.40	25013.31
537.57	24919.68
537.74	25289.49
537.91	25088.20
538.08	25640.57
538.25	25156.08
538.42	25317.57
538.59	25453.33
538.75	25242.68
538.92	25673.34
539.09	25448.64
539.26	25481.41
539.43	25195.87
539.60	25553.97
539.77	25766.96
539.94	25692.06
540.11	25364.39
540.28	25628.87
540.44	25666.31
540.61	25469.71
540.78	25682.70
540.95	25898.03
541.12	25596.10
541.29	25673.34
541.46	25649.93
541.62	25268.42
541.79	26251.45
541.96	25832.49
542.13	25685.04
542.30	26052.50
542.47	25972.92
542.63	26363.79
542.80	26216.34
542.97	26286.56
543.14	26190.59
543.31	26199.96
543.48	26387.20
543.64	26380.18
543.81	26532.31
543.98	26672.74
544.15	26820.20
544.32	26625.93
544.48	26473.80
544.65	26740.62
544.82	26391.88
544.99	26260.81
545.16	26541.68
545.32	26316.98
545.49	26546.36
545.66	27056.59
545.83	26700.83
546.00	26998.08
546.16	26787.43
546.33	26625.93
546.50	26532.31
546.67	26822.54
546.83	26607.21
547.00	26911.48
547.17	26939.57
547.34	26604.87
547.50	27171.28
547.67	27693.22
547.84	27513.00
548.00	27159.58
548.17	26855.31
548.34	26981.70
548.51	27119.79
548.67	27304.69
548.84	27487.25
549.01	27386.61
549.18	27171.28
549.34	27283.62
549.51	27548.11
549.68	27292.99
549.84	27704.92
550.01	27456.82
550.18	27318.73
550.34	27461.51
550.51	27744.71
550.68	27908.55
550.84	27843.01
551.01	27550.45
551.18	27307.03
551.34	27426.40
551.51	27756.41
551.68	27461.51
551.84	27950.68
552.01	27672.15
552.18	27515.34
552.34	27704.92
552.51	27934.29
552.68	27740.03
552.84	27852.38
553.01	27957.70
553.18	27913.23
553.34	27922.59
553.51	28058.34
553.67	27653.43
553.84	28374.31
554.01	28308.78
554.17	28243.24
554.34	27983.44
554.51	27934.29
554.67	28140.26
554.84	28407.08
555.00	28072.39
555.17	28154.30
555.33	28034.94
555.50	28034.94
555.67	28402.40
555.83	28166.01
556.00	27906.21
556.16	28327.50
556.33	28166.01
556.50	28367.29
556.66	28790.93
556.83	28657.52
556.99	28615.39
557.16	28685.61
557.32	28407.08
557.49	28760.50
557.65	28257.29
557.82	28723.05
557.98	28245.58
558.15	28439.85
558.32	28507.72
558.48	28467.94
558.65	28624.75
558.81	28716.03
558.98	28828.38
559.14	28678.58
559.31	28615.39
559.47	28720.71
559.64	28882.21
559.80	29081.16
559.97	29116.26
560.13	28596.67
560.30	28961.79
560.46	28978.17
560.63	28521.77
560.79	28662.20
560.96	29170.10
561.12	28622.41
561.29	28577.94
561.45	28659.86
561.61	28671.56
561.78	29106.90
561.94	29120.95
562.11	29219.25
562.27	29092.86
562.44	29064.77
562.60	29139.67
562.77	28683.27
562.93	28744.12
563.10	29296.49
563.26	29153.71
563.42	29425.22
563.59	28966.47
563.75	29067.11
563.92	28907.96
564.08	29268.40
564.24	29401.81
564.41	28924.34
564.57	29010.94
564.74	29259.04
564.90	29476.71
565.07	29380.74
565.23	29149.03
565.39	29289.46
565.56	29607.78
565.72	29399.47
565.88	28954.77
566.05	29273.08
566.21	29123.29
566.38	29207.55
566.54	29291.80
566.70	29392.45
566.87	29610.12
567.03	29476.71
567.19	29694.38
567.36	29399.47
567.52	29460.32
567.68	29476.71
567.85	28884.55
568.01	29670.97
568.17	29457.98
568.34	29502.45
568.50	29530.54
568.66	29284.78
568.83	29553.94
568.99	29612.46
569.15	29596.07
569.32	29724.80
569.48	29333.93
569.64	29497.77
569.81	29390.11
569.97	29764.59
570.13	29446.28
570.30	29830.13
570.46	29413.51
570.62	29422.87
570.78	29331.59
570.95	29298.83
571.11	29586.71
571.27	29443.94
571.43	29549.26
571.60	29212.23
571.76	29750.55
571.92	29406.49
572.09	29811.40
572.25	29528.20
572.41	29792.68
572.57	29455.64
572.74	29518.84
572.90	29778.64
573.06	29832.47
573.22	29619.48
573.38	29378.40
573.55	29612.46
573.71	29926.09
573.87	29881.62
574.03	29729.48
574.20	29612.46
574.36	29715.44
574.52	29876.94
574.68	29289.46
574.84	29883.96
575.01	29855.87
575.17	29993.97
575.33	29661.61
575.49	29605.44
575.65	29596.07
575.82	29965.88
575.98	29813.74
576.14	29572.67
576.30	29816.08
576.46	29565.65
576.62	29509.47
576.79	29575.01
576.95	29631.18
577.11	29879.28
577.27	30277.17
577.43	29879.28
577.59	29883.96
577.75	29722.46
577.92	29673.31
578.08	29682.67
578.24	29851.19
578.40	29675.65
578.56	29663.95
578.72	29813.74
578.88	30270.15
579.04	30326.32
579.21	29972.90
579.37	30314.62
579.53	30026.73
579.69	29502.45
579.85	29603.10
580.01	29593.73
580.17	29582.03
580.33	29507.13
580.49	29663.95
580.65	29790.34
580.82	29895.66
580.98	29507.13
581.14	29755.23
581.30	30204.61
581.46	29654.59
581.62	29769.27
581.78	29846.51
581.94	29933.11
582.10	29783.32
582.26	29968.22
582.42	29818.42
582.58	30197.59
582.74	30171.85
582.90	30003.33
583.06	29930.77
583.22	29855.87
583.38	29846.51
583.54	30101.63
583.70	29902.68
583.86	30174.19
584.02	29647.57
584.18	30178.87
584.34	30071.20
584.50	30089.93
584.66	29792.68
584.82	29802.04
584.98	30099.29
585.14	29848.85
585.30	30064.18
585.46	29989.28
585.62	30232.70
585.78	30061.84
585.94	29771.61
586.10	30059.50
586.26	30017.37
586.42	30057.16
586.58	30047.80
586.74	30073.54
586.90	29947.15
587.06	30096.95
587.22	29909.71
587.38	29640.54
587.54	29907.37
587.70	30492.50
587.86	30356.75
588.02	30295.89
588.18	30118.01
588.34	30735.92
588.49	30368.45
588.65	30012.69
588.81	29907.37
588.97	30061.84
589.13	29993.97
589.29	30682.08
589.45	30340.36
589.61	30197.59
589.77	30441.01
589.93	30419.94
590.08	30424.62
590.24	30426.96
590.40	30679.74
590.56	30218.66
590.72	30328.66
590.88	30394.20
591.04	30342.70
591.20	30394.20
591.35	30607.19
591.51	30307.60
591.67	30506.54
591.83	30859.96
591.99	30663.36
592.15	30419.94
592.31	30352.07
592.46	30000.99
592.62	30239.72
592.78	30347.39
592.94	30604.84
593.10	30045.46
593.26	30654.00
593.41	30302.92
593.57	30525.27
593.73	30483.14
593.89	30436.33
594.05	30295.89
594.20	30431.65
594.36	30501.86
594.52	30300.58
594.68	30494.84
594.84	30717.19
594.99	30625.91
595.15	30267.81
595.31	30881.03
595.47	30724.21
595.62	30721.87
595.78	30480.80
595.94	30593.14
596.10	30583.78
596.25	30412.92
596.41	30349.73
596.57	30232.70
596.73	30284.19
596.88	30270.15
597.04	30551.01
597.20	30822.51
597.36	31058.91
597.51	30698.47
597.67	30630.59
597.83	30300.58
597.99	30492.50
598.14	30618.89
598.30	30281.85
598.46	30513.56
598.61	30513.56
598.77	30384.83
598.93	30579.10
599.09	30799.11
599.24	30794.43
599.40	30761.66
599.56	30611.87
599.71	30595.48
599.87	30684.42
600.03	30352.07
600.18	30429.30
600.34	30340.36
600.50	30178.87
600.65	30855.28
600.81	30890.39
600.97	30925.50
601.12	30909.11
601.28	31075.29
601.44	30864.64
601.59	31332.75
601.75	30834.22
601.91	30497.18
602.06	30597.82
602.22	30522.93
602.37	30485.48
602.53	30705.49
602.69	30389.52
602.84	30848.26
603.00	30314.62
603.16	30836.56
603.31	31171.25
603.47	30885.71
603.62	30178.87
603.78	30361.43
603.94	30628.25
604.09	30492.50
604.25	30792.09
604.40	30340.36
604.56	30480.80
604.71	31229.77
604.87	30354.41
605.03	30799.11
605.18	30600.16
605.34	30359.09
605.49	30298.23
605.65	30508.88
605.80	30132.06
605.96	30129.72
606.12	30338.02
606.27	30850.60
606.43	30396.54
606.58	30595.48
606.74	30576.76
606.89	30590.80
607.05	30803.79
607.20	30609.53
607.36	30452.71
607.51	30466.75
607.67	30445.69
607.82	30441.01
607.98	30319.30
608.13	30593.14
608.29	30277.17
608.44	30363.77
608.60	30707.83
608.75	30932.52
608.91	30618.89
609.06	30855.28
609.22	30398.88
609.37	30134.40
609.53	30066.52
609.68	30246.74
609.84	29947.15
609.99	30522.93
610.15	30375.47
610.30	30253.76
610.46	29993.97
610.61	30433.99
610.76	30354.41
610.92	30431.65
611.07	30314.62
611.23	30265.47
611.38	30096.95
611.54	29890.98
611.69	30249.08
611.84	30073.54
612.00	29881.62
612.15	29858.21
612.31	30019.71
612.46	30052.48
612.62	30710.17
612.77	30068.86
612.92	30396.54
613.08	29914.39
613.23	30150.78
613.39	30113.33
613.54	30031.41
613.69	30345.05
613.85	30033.75
614.00	30225.68
614.15	30146.10
614.31	29804.38
614.46	30225.68
614.62	30096.95
614.77	30139.08
614.92	30167.16
615.08	30127.38
615.23	29780.98
615.38	30284.19
615.54	29771.61
615.69	29544.58
615.84	29378.40
616.00	29893.32
616.15	30005.67
616.30	30382.49
616.46	29823.11
616.61	29926.09
616.76	30101.63
616.92	30003.33
617.07	29855.87
617.22	29755.23
617.37	29764.59
617.53	29837.15
617.68	29715.44
617.83	29551.60
617.99	29586.71
618.14	29507.13
618.29	29832.47
618.45	29539.90
618.60	29734.17
618.75	29525.86
618.90	29205.20
619.06	29771.61
619.21	29603.10
619.36	30036.09
619.51	29685.01
619.67	29123.29
619.82	29549.26
619.97	29537.56
620.12	29237.97
620.28	29544.58
620.43	29846.51
620.58	29558.63
620.73	29469.69
620.89	29469.69
621.04	29750.55
621.19	29067.11
621.34	29347.98
621.49	29312.87
621.65	29039.03
621.80	29125.63
621.95	29053.07
622.10	29298.83
622.25	29078.82
622.41	28613.05
622.56	28966.47
622.71	29350.32
622.86	29198.18
623.01	28931.36
623.16	28933.70
623.32	29095.20
623.47	28975.83
623.62	28814.34
623.77	29095.20
623.92	29263.72
624.07	28868.17
624.23	28975.83
624.38	28922.00
624.53	29055.41
624.68	29369.04
624.83	29465.00
624.98	29048.39
625.13	28964.13
625.29	29230.95
625.44	28919.66
625.59	28879.87
625.74	28676.24
625.89	28519.43
626.04	28954.77
626.19	28861.15
626.34	28657.52
626.49	28676.24
626.65	28917.32
626.80	28926.68
626.95	28790.93
627.10	28795.61
627.25	28940.72
627.40	28774.55
627.55	28512.41
627.70	28458.57
627.85	28437.51
628.00	28088.77
628.15	28713.69
628.30	28032.60
628.45	28259.63
628.60	28362.61
628.76	28678.58
628.91	28533.47
629.06	28474.96
629.21	28636.45
629.36	28290.06
629.51	28390.70
629.66	28194.09
629.81	28170.69
629.96	28287.71
630.11	28411.76
630.26	27934.29
630.41	28128.56
630.56	28158.99
630.71	27999.83
630.86	28381.34
631.01	28201.11
631.16	28119.20
631.31	28034.94
631.46	28039.62
631.61	28240.90
631.76	28467.94
631.91	28144.94
632.06	28191.75
632.21	27831.31
632.36	28037.28
632.51	27936.63
632.66	28290.06
632.81	27913.23
632.96	27969.40
633.10	27751.73
633.25	28079.41
633.40	28023.23
633.55	28020.89
633.70	27587.89
633.85	27576.19
634.00	27531.72
634.15	27819.61
634.30	28144.94
634.45	27768.12
634.60	27674.49
634.75	28095.79
634.90	27215.75
635.05	27903.87
635.19	27573.85
635.34	28151.96
635.49	28034.94
635.64	27927.27
635.79	27948.34
635.94	27910.89
636.09	27641.73
636.24	27779.82
636.39	27580.87
636.53	27545.76
636.68	27377.25
636.83	27445.12
636.98	27672.15
637.13	27463.85
637.28	27845.35
637.43	27587.89
637.57	27517.68
637.72	27700.24
637.87	27276.60
638.02	27648.75
638.17	27725.99
638.32	27461.51
638.46	27351.50
638.61	27204.05
638.76	27468.53
638.91	26717.22
639.06	27402.99
639.20	27353.84
639.35	27295.33
639.50	27470.87
639.65	27625.34
639.80	27475.55
639.94	27264.90
640.09	27440.44
640.24	27129.15
640.39	27058.93
640.54	26890.41
640.68	26930.20
640.83	27122.13
640.98	26560.40
641.13	26740.62
641.27	27171.28
641.42	26806.16
641.57	26759.34
641.72	27061.27
641.86	27087.02
642.01	26691.47
642.16	26991.06
642.31	26749.98
642.45	26862.33
642.60	26724.24
642.75	26778.07
642.90	26558.06
643.04	27087.02
643.19	26398.90
643.34	26639.98
643.48	26567.42
643.63	27087.02
643.78	26551.04
643.93	26686.79
644.07	26834.24
644.22	26808.50
644.37	26536.99
644.51	26829.56
644.66	26647.00
644.81	26469.12
644.95	26398.90
645.10	26906.80
645.25	26843.60
645.39	26546.36
645.54	26422.31
645.69	26663.38
645.83	26647.00
645.98	26593.17
646.13	26984.04
646.27	26569.76
646.42	26190.59
646.57	26499.55
646.71	26167.19
646.86	26434.01
647.00	26623.59
647.15	26298.26
647.30	26342.73
647.44	26366.13
647.59	26216.34
647.74	26150.81
647.88	26064.21
648.03	26546.36
648.17	26164.85
648.32	26185.91
648.47	26569.76
648.61	26410.60
648.76	26469.12
648.90	26356.77
649.05	26134.42
649.20	26206.98
649.34	26015.05
649.49	26115.70
649.63	26270.17
649.78	26181.23
649.92	26267.83
650.07	26532.31
650.21	25907.39
650.36	26588.49
650.51	26443.37
650.65	25949.52
650.80	25811.43
650.94	25970.58
651.09	25818.45
651.23	25930.80
651.38	26015.05
651.52	26001.01
651.67	25970.58
651.81	25949.52
651.96	26024.42
652.10	25900.37
652.25	25961.22
652.39	25951.86
652.54	26045.48
652.68	25989.31
652.83	26040.80
652.97	26139.10
653.12	25891.01
653.26	25970.58
653.41	25509.50
653.55	25626.53
653.70	25596.10
653.84	25511.84
653.99	25638.23
654.13	25678.02
654.27	25680.36
654.42	25724.83
654.56	25479.07
654.71	25586.74
654.85	25762.28
655.00	25699.08
655.14	25666.31
655.29	25502.48
655.43	25563.33
655.57	25528.22
655.72	25614.82
655.86	25535.24
656.01	25406.52
656.15	25521.20
656.30	25509.50
656.44	25357.36
656.58	25067.14
656.73	25238.00
656.87	25205.23
657.01	25127.99
657.16	25607.80
657.30	25544.61
657.45	25228.63
657.59	25486.09
657.73	24943.09
657.88	24926.71
658.02	25130.33
658.16	25062.46
658.31	25186.50
658.45	24765.21
658.60	24940.75
658.74	25268.42
658.88	24774.57
659.03	25256.72
659.17	24671.59
659.31	24931.39
659.46	25240.34
659.60	25118.63
659.74	24889.26
659.89	25099.90
660.03	25060.12
660.17	24627.12
660.32	24673.93
660.46	24734.78
660.60	24517.11
660.74	24486.68
660.89	24659.88
661.03	24301.78
661.17	24624.78
661.32	24411.79
661.46	24570.94
661.60	24528.81
661.74	24369.66
661.89	24641.16
662.03	24355.61
662.17	24318.17
662.31	24348.59
662.46	24566.26
662.60	24320.51
662.74	23875.80
662.88	24252.63
663.03	24418.81
663.17	24006.87
663.31	23880.49
663.45	24041.98
663.60	24093.47
663.74	23639.41
663.88	23927.30
664.02	23962.40
664.17	23999.85
664.31	23711.97
664.45	23498.98
664.59	23941.34
664.73	23889.85
664.88	23908.57
665.02	23517.70
665.16	23707.29
665.30	23618.35
665.44	23417.06
665.59	23704.95
665.73	23456.85
665.87	23358.55
666.01	23332.80
666.15	23360.89
666.29	23388.97
666.44	23583.24
666.58	23564.51
666.72	23260.24
666.86	23051.94
667.00	23271.95
667.14	23307.05
667.28	23328.12
667.43	23480.25
667.57	23433.44
667.71	23185.35
667.85	22731.28
667.99	23044.91
668.13	22944.27
668.27	22913.84
668.41	23122.15
668.56	22829.59
668.70	23077.68
668.84	22679.79
668.98	22862.35
669.12	23040.23
669.26	22794.48
669.40	22665.75
669.54	22871.72
669.68	22590.85
669.82	22679.79
669.96	22391.91
670.10	22235.09
670.25	22384.88
670.39	22265.52
670.53	22312.33
670.67	22066.57
670.81	22263.18
670.95	22281.90
671.09	22455.10
671.23	22352.12
671.37	22054.87
671.51	22061.89
671.65	22389.56
671.79	22211.68
671.93	21923.80
672.07	22317.01
672.21	22024.44
672.35	21795.07
672.49	21764.64
672.63	21544.63
672.77	21715.49
672.91	21869.97
673.05	21731.87
673.19	21961.25
673.33	21933.16
673.47	21441.65
673.61	21619.53
673.75	21530.59
673.89	21710.81
674.03	21785.71
674.17	21413.56
674.31	21207.59
674.45	21460.37
674.59	21214.62
674.73	21057.80
674.87	21233.34
675.01	20961.84
675.15	20931.41
675.29	20706.72
675.43	21067.16
675.56	20992.26
675.70	20973.54
675.84	21003.97
675.98	20137.97
676.12	21025.03
676.26	21097.59
676.40	20933.75
676.54	20968.86
676.68	20587.35
676.82	19768.16
676.96	20439.90
677.10	20418.83
677.23	20247.97
677.37	20152.01
677.51	20280.74
677.65	19932.00
677.79	20224.57
677.93	20013.92
678.07	20102.86
678.21	19997.54
678.34	19896.89
678.48	19901.58
678.62	19906.26
678.76	19798.59
678.90	19543.47
679.04	19559.86
679.18	19716.67
679.31	19208.78
679.45	19386.66
679.59	19321.12
679.73	19283.67
679.87	19185.37
680.00	19129.20
680.14	18953.66
680.28	19257.93
680.42	19246.23
680.56	19005.15
680.70	18984.09
680.83	18934.93
680.97	18712.58
681.11	18899.83
681.25	18979.40
681.39	18778.12
681.52	18946.64
681.66	18469.17
681.80	18590.88
681.94	18696.20
682.07	18520.66
682.21	18340.44
682.35	18506.62
682.49	17895.74
682.62	18253.84
682.76	18317.03
682.90	18141.49
683.04	17879.35
683.17	18415.34
683.31	18101.70
683.45	18263.20
683.59	17790.41
683.72	17687.43
683.86	17963.61
684.00	17823.18
684.13	17717.86
684.27	17509.55
684.41	17275.49
684.55	17406.56
684.68	17156.13
684.82	17249.75
684.96	17345.71
685.09	17256.77
685.23	16837.81
685.37	17034.42
685.50	17198.26
685.64	17259.11
685.78	17060.16
685.91	16919.73
686.05	16603.76
686.19	16877.60
686.32	17200.60
686.46	16465.67
686.60	16540.57
686.73	16606.10
686.87	16262.04
687.01	16603.76
687.14	16418.86
687.28	16259.70
687.42	16257.36
687.55	16226.93
687.69	16243.32
687.82	16203.53
687.96	15831.38
688.10	16070.12
688.23	15896.92
688.37	16042.03
688.50	15887.56
688.64	16037.35
688.78	15836.06
688.91	15690.95
689.05	15728.40
689.18	15819.68
689.32	15403.07
689.46	15508.39
689.59	15623.08
689.73	15597.33
689.86	15419.45
690.00	15133.90
690.13	15302.42
690.27	15288.38
690.41	15606.69
690.54	15389.02
690.68	15073.05
690.81	15084.75
690.95	15185.40
691.08	15105.82
691.22	15056.67
691.35	14979.43
691.49	14958.36
691.62	14717.29
691.76	14586.22
691.89	14670.48
692.03	14408.34
692.16	14398.98
692.30	14469.19
692.43	14321.74
692.57	14258.54
692.70	14448.13
692.84	14340.46
692.97	14214.07
693.11	14132.15
693.24	14064.28
693.38	14310.04
693.51	13891.08
693.65	13973.00
693.78	14071.30
693.92	13785.76
694.05	13760.01
694.19	13729.58
694.32	13799.80
694.45	13816.18
694.59	13462.76
694.72	13483.83
694.86	13200.62
694.99	13312.97
695.13	13231.05
695.26	13397.23
695.39	13135.09
695.53	13277.86
695.66	13324.67
695.80	13181.90
695.93	13212.32
696.07	13137.43
696.20	13034.44
696.33	12769.96
696.47	12594.42
696.60	12837.84
696.73	12779.32
696.87	12795.71
697.00	12678.68
697.14	12599.10
697.27	12255.04
697.40	12072.48
697.54	12505.48
697.67	12159.08
697.80	12343.99
697.94	12161.42
698.07	12084.19
698.21	12147.38
698.34	11990.56
698.47	12142.70
698.61	11899.28
698.74	12119.29
698.87	12067.80
699.01	11815.02
699.14	11946.09
699.27	11721.40
699.40	11887.58
699.54	11866.52
699.67	11599.70
699.80	11536.50
699.94	11571.61
700.07	11707.36
700.20	11466.28
700.34	11185.42
700.47	11442.88
700.60	11470.97
700.73	11260.32
700.87	11084.78
701.00	11131.59
701.13	11147.97
701.26	11236.91
701.40	11239.25
701.53	11117.54
701.66	11009.88
701.79	10923.28
701.93	10956.05
702.06	10869.45
702.19	10857.75
702.32	10635.39
702.46	10642.42
702.59	10614.33
702.72	10462.19
702.85	10434.11
702.99	10483.26
703.12	10401.34
703.25	10370.91
703.38	10286.65
703.51	10214.10
703.65	10354.53
703.78	10216.44
703.91	10169.63
704.04	10153.24
704.17	10242.18
704.31	10251.55
704.44	10047.92
704.57	9942.60
704.70	9703.86
704.83	9802.16
704.96	9771.74
705.10	9827.91
705.23	9645.35
>>>>>End Processed Spectral Data<<<<<
