SpectraSuite Data File
++++++++++++++++++++++++++++++++++++
Date: Fri Oct 18 13:58:19 GMT-05:00 2013
User: bianchi
Dark Spectrum Present: No
Reference Spectrum Present: No
Number of Sampled Component Spectra: 1
Spectrometers: USB2+H05261
Integration Time (usec): 50000 (USB2+H05261)
Spectra Averaged: 1 (USB2+H05261)
Boxcar Smoothing: 0 (USB2+H05261)
Correct for Electrical Dark: No (USB2+H05261)
Strobe/Lamp Enabled: No (USB2+H05261)
Correct for Detector Non-linearity: No (USB2+H05261)
Correct for Stray Light: No (USB2+H05261)
Number of Pixels in Processed Spectrum: 2048
>>>>>Begin Processed Spectral Data<<<<<
365.73	0.00
365.92	0.00
366.12	0.00
366.32	0.00
366.52	0.00
366.72	0.00
366.91	0.00
367.11	0.00
367.31	0.00
367.51	0.00
367.70	0.00
367.90	0.00
368.10	0.00
368.30	0.00
368.49	0.00
368.69	0.00
368.89	0.00
369.09	0.00
369.28	0.00
369.48	0.00
369.68	0.00
369.87	0.00
370.07	0.00
370.27	0.00
370.47	0.00
370.66	63.19
370.86	70.22
371.06	133.41
371.25	142.77
371.45	131.07
371.65	182.56
371.84	161.50
372.04	163.84
372.24	154.48
372.44	124.05
372.63	187.24
372.83	217.67
373.03	154.48
373.22	210.65
373.42	203.63
373.62	234.05
373.81	161.50
374.01	208.31
374.21	198.95
374.40	217.67
374.60	264.48
374.79	212.99
374.99	266.82
375.19	273.84
375.38	208.31
375.58	191.92
375.78	280.86
375.97	280.86
376.17	344.06
376.37	283.20
376.56	287.89
376.76	264.48
376.95	294.91
377.15	227.03
377.35	301.93
377.54	184.90
377.74	264.48
377.93	238.73
378.13	222.35
378.33	280.86
378.52	322.99
378.72	264.48
378.91	313.63
379.11	297.25
379.31	269.16
379.50	299.59
379.70	271.50
379.89	365.12
380.09	386.19
380.28	278.52
380.48	243.42
380.68	287.89
380.87	271.50
381.07	353.42
381.26	276.18
381.46	355.76
381.65	365.12
381.85	318.31
382.04	337.04
382.24	318.31
382.43	311.29
382.63	304.27
382.83	290.23
383.02	376.83
383.22	376.83
383.41	292.57
383.61	369.80
383.80	330.02
384.00	273.84
384.19	245.76
384.39	402.57
384.58	421.30
384.78	433.00
384.97	337.04
385.17	379.17
385.36	393.21
385.56	442.36
385.75	383.85
385.95	369.80
386.14	381.51
386.34	339.38
386.53	437.68
386.72	461.09
386.92	461.09
387.11	486.83
387.31	416.62
387.50	369.80
387.70	458.74
387.89	449.38
388.09	447.04
388.28	510.24
388.48	395.55
388.67	489.17
388.86	458.74
389.06	428.32
389.25	447.04
389.45	451.72
389.64	503.22
389.84	451.72
390.03	477.47
390.22	442.36
390.42	468.11
390.61	418.96
390.81	449.38
391.00	550.03
391.19	486.83
391.39	589.82
391.58	491.51
391.78	437.68
391.97	545.34
392.16	493.85
392.36	528.96
392.55	592.16
392.75	538.32
392.94	517.26
393.13	531.30
393.33	620.24
393.52	571.09
393.71	557.05
393.91	547.69
394.10	566.41
394.29	624.92
394.49	547.69
394.68	681.10
394.88	634.29
395.07	615.56
395.26	594.50
395.46	641.31
395.65	645.99
395.84	660.03
396.04	653.01
396.23	629.60
396.42	667.05
396.62	638.97
396.81	697.48
397.00	585.13
397.19	573.43
397.39	662.37
397.58	624.92
397.77	669.39
397.97	683.44
398.16	720.88
398.35	711.52
398.55	634.29
398.74	734.93
398.93	779.40
399.12	723.23
399.32	723.23
399.51	641.31
399.70	711.52
399.90	730.25
400.09	718.54
400.28	779.40
400.47	683.44
400.67	718.54
400.86	795.78
401.05	725.57
401.24	648.33
401.44	763.01
401.63	812.17
401.82	851.96
402.01	770.04
402.21	720.88
402.40	835.57
402.59	858.98
402.78	826.21
402.97	950.26
403.17	917.49
403.36	884.72
403.55	828.55
403.74	891.74
403.93	901.11
404.13	903.45
404.32	901.11
404.51	910.47
404.70	919.83
404.89	889.40
405.09	940.90
405.28	1006.43
405.47	952.60
405.66	971.32
405.85	1022.81
406.05	938.55
406.24	1041.54
406.43	973.66
406.62	1064.94
406.81	1027.50
407.00	1034.52
407.20	985.37
407.39	1025.15
407.58	1109.41
407.77	1015.79
407.96	1149.20
408.15	1090.69
408.34	1095.37
408.54	1121.12
408.73	1130.48
408.92	1132.82
409.11	1081.33
409.30	1142.18
409.49	1144.52
409.68	1093.03
409.87	1181.97
410.07	1188.99
410.26	1118.78
410.45	1188.99
410.64	1240.48
410.83	1245.16
411.02	1284.95
411.21	1275.59
411.40	1186.65
411.59	1231.12
411.78	1266.23
411.98	1277.93
412.17	1294.32
412.36	1355.17
412.55	1287.29
412.74	1308.36
412.93	1322.40
413.12	1329.42
413.31	1401.98
413.50	1355.17
413.69	1465.18
413.88	1432.41
414.07	1495.60
414.26	1493.26
414.45	1507.30
414.64	1526.03
414.83	1465.18
415.02	1469.86
415.22	1537.73
415.41	1572.84
415.60	1614.97
415.79	1563.48
415.98	1610.29
416.17	1629.01
416.36	1668.80
416.55	1666.46
416.74	1633.69
416.93	1577.52
417.12	1629.01
417.31	1629.01
417.50	1645.40
417.69	1701.57
417.88	1682.85
418.07	1696.89
418.26	1827.96
418.45	1823.28
418.64	1790.51
418.83	1778.81
419.02	1792.85
419.21	1865.41
419.39	1739.02
419.58	1783.49
419.77	1898.17
419.96	1816.26
420.15	1797.53
420.34	1797.53
420.53	1886.47
420.72	1881.79
420.91	1914.56
421.10	2019.88
421.29	1933.28
421.48	1858.39
421.67	1839.66
421.86	2017.54
422.05	2033.93
422.24	2012.86
422.43	1966.05
422.61	1966.05
422.80	1963.71
422.99	2022.22
423.18	1940.30
423.37	2024.56
423.56	1991.80
423.75	1954.35
423.94	1909.88
424.13	1926.26
424.32	1928.60
424.50	1949.67
424.69	2099.46
424.88	2165.00
425.07	1947.33
425.26	1982.43
425.45	2078.40
425.64	2047.97
425.83	2113.50
426.01	2111.16
426.20	2078.40
426.39	2057.33
426.58	1991.80
426.77	2045.63
426.96	2099.46
427.15	2111.16
427.33	2186.06
427.52	2214.15
427.71	2195.42
427.90	2085.42
428.09	2204.78
428.28	2312.45
428.46	2179.04
428.65	2204.78
428.84	2279.68
429.03	2331.17
429.22	2298.41
429.40	2202.44
429.59	2317.13
429.78	2218.83
429.97	2190.74
430.16	2209.47
430.34	2232.87
430.53	2340.54
430.72	2317.13
430.91	2361.60
431.10	2335.85
431.28	2270.32
431.47	2394.37
431.66	2443.52
431.85	2399.05
432.03	2377.98
432.22	2483.31
432.41	2459.90
432.60	2579.27
432.79	2420.11
432.97	2483.31
433.16	2483.31
433.35	2476.29
433.54	2499.69
433.72	2558.21
433.91	2527.78
434.10	2612.04
434.28	2569.91
434.47	2389.69
434.66	2595.65
434.85	2586.29
435.03	2609.70
435.22	2586.29
435.41	2576.93
435.59	2768.85
435.78	2553.52
435.97	2649.49
436.16	2668.21
436.34	2642.46
436.53	2691.62
436.72	2792.26
436.90	2626.08
437.09	2621.40
437.28	2642.46
437.46	2710.34
437.65	2803.96
437.84	2822.69
438.02	2715.02
438.21	2729.06
438.40	2747.79
438.58	2789.92
438.77	2923.33
438.96	2822.69
439.14	2785.24
439.33	2864.82
439.52	2918.65
439.70	2942.05
439.89	2986.52
440.08	3009.93
440.26	3061.42
440.45	3089.51
440.63	3143.34
440.82	3187.81
441.01	3070.78
441.19	3075.46
441.38	3227.60
441.57	3302.50
441.75	3227.60
441.94	3372.71
442.12	3155.04
442.31	3281.43
442.50	3279.09
442.68	3187.81
442.87	3349.31
443.05	3412.50
443.24	3449.95
443.43	3309.52
443.61	3510.80
443.80	3515.48
443.98	3494.42
444.17	3346.97
444.35	3295.47
444.54	3445.27
444.73	3442.93
444.91	3421.86
445.10	3363.35
445.28	3370.37
445.47	3346.97
445.65	3503.78
445.84	3585.70
446.02	3541.23
446.21	3454.63
446.39	3377.39
446.58	3487.40
446.77	3492.08
446.95	3419.52
447.14	3466.33
447.32	3468.67
447.51	3466.33
447.69	3618.47
447.88	3620.81
448.06	3424.20
448.25	3602.08
448.43	3382.07
448.62	3489.74
448.80	3566.98
448.99	3681.66
449.17	3674.64
449.36	3508.46
449.54	3639.53
449.73	3691.02
449.91	3728.47
450.10	3686.34
450.28	3805.71
450.46	3737.84
450.65	3749.54
450.83	3779.97
451.02	3698.05
451.20	3892.31
451.39	3826.78
451.57	3751.88
451.76	3789.33
451.94	3941.46
452.13	3829.12
452.31	3868.91
452.49	3819.75
452.68	4004.66
452.86	3815.07
453.05	3925.08
453.23	4025.72
453.42	3857.20
453.60	3861.88
453.78	3868.91
453.97	3997.64
454.15	3960.19
454.34	3948.48
454.52	4077.21
454.70	3988.27
454.89	4011.68
455.07	3854.86
455.26	4114.66
455.44	4063.17
455.62	4084.23
455.81	4201.26
455.99	4149.77
456.17	3971.89
456.36	4177.86
456.54	4187.22
456.73	4273.82
456.91	4306.59
457.09	4259.78
457.28	4255.09
457.46	4217.65
457.64	4285.52
457.83	4454.04
458.01	4322.97
458.19	4468.08
458.38	4306.59
458.56	4526.60
458.74	4374.46
458.93	4430.63
459.11	4538.30
459.29	4381.48
459.48	4568.73
459.66	4601.49
459.84	4571.07
460.03	4641.28
460.21	4578.09
460.39	4559.36
460.57	4568.73
460.76	4519.57
460.94	4720.86
461.12	4622.56
461.31	4683.41
461.49	4531.28
461.67	4613.20
461.85	4772.35
462.04	4746.61
462.22	4943.21
462.40	4830.87
462.59	4868.31
462.77	4725.54
462.95	4821.50
463.13	4858.95
463.32	4800.44
463.50	4947.89
463.68	4922.15
463.86	4868.31
464.05	4863.63
464.23	4870.65
464.41	5109.39
464.59	4922.15
464.78	4933.85
464.96	4940.87
465.14	4985.34
465.32	4891.72
465.50	5025.13
465.69	5064.92
465.87	4945.55
466.05	4931.51
466.23	5036.83
466.41	5050.88
466.60	5191.31
466.78	4966.62
466.96	5076.62
467.14	4882.36
467.32	5107.05
467.51	5111.73
467.69	5008.75
467.87	5195.99
468.05	5177.26
468.23	5174.92
468.41	5217.05
468.60	5149.18
468.78	5256.84
468.96	5233.44
469.14	5308.34
469.32	5329.40
469.50	5139.82
469.69	5542.39
469.87	5416.00
470.05	5530.69
470.23	5483.88
470.41	5439.40
470.59	5462.81
470.77	5451.11
470.95	5689.84
471.14	5598.56
471.32	5310.68
471.50	5738.99
471.68	5692.18
471.86	5479.19
472.04	5591.54
472.22	5715.59
472.40	5657.07
472.58	5738.99
472.77	5846.66
472.95	5753.04
473.13	6122.84
473.31	6033.90
473.49	5860.70
473.67	5741.33
473.85	5994.11
474.03	6017.52
474.21	5961.34
474.39	6045.60
474.57	6052.63
474.75	6129.86
474.93	6218.80
475.12	6155.61
475.30	6244.55
475.48	6293.70
475.66	6267.95
475.84	6387.32
476.02	6427.11
476.20	6502.01
476.38	6466.90
476.56	6511.37
476.74	6445.84
476.92	6642.44
477.10	6401.37
477.28	6616.69
477.46	6642.44
477.64	6663.51
477.82	6883.52
478.00	6829.68
478.18	7005.22
478.36	7084.80
478.54	7028.63
478.72	7028.63
478.90	7035.65
479.08	7304.81
479.26	7346.94
479.44	7318.86
479.62	7328.22
479.80	7627.81
479.98	7447.58
480.16	7618.44
480.34	7412.48
480.52	7667.60
480.70	7782.28
480.88	7625.47
481.06	7847.82
481.24	7756.54
481.41	7901.65
481.59	7906.33
481.77	7929.74
481.95	7929.74
482.13	8107.62
482.31	8124.00
482.49	7997.61
482.67	8320.60
482.85	8212.94
483.03	8566.36
483.21	8573.38
483.39	8613.17
483.57	8503.17
483.74	8863.61
483.92	8706.79
484.10	8493.80
484.28	9020.42
484.46	9247.46
484.64	9249.80
484.82	8844.88
485.00	8999.36
485.18	9212.35
485.35	9451.08
485.53	9275.54
485.71	9617.26
485.89	9582.15
486.07	9699.18
486.25	9584.49
486.43	9633.64
486.61	9912.17
486.78	10031.54
486.96	9933.23
487.14	10122.82
487.32	10174.31
487.50	10202.40
487.68	10516.03
487.85	10340.49
488.03	10422.41
488.21	10806.25
488.39	10773.49
488.57	10745.40
488.75	10651.78
488.92	10995.84
489.10	10984.13
489.28	10759.44
489.46	11126.91
489.64	11101.16
489.81	11433.52
489.99	11550.54
490.17	11105.84
490.35	11562.25
490.53	11466.28
490.70	11632.46
490.88	11611.40
491.06	11726.08
491.24	11747.15
491.41	11953.12
491.59	12020.99
491.77	12084.19
491.95	12098.23
492.13	12133.34
492.30	12325.26
492.48	12479.74
492.66	12451.65
492.84	12556.97
493.01	12634.21
493.19	12774.64
493.37	12837.84
493.54	12978.27
493.72	12879.97
493.90	12767.62
494.08	13036.78
494.25	13200.62
494.43	13254.45
494.61	13642.98
494.79	13247.43
494.96	13132.75
495.14	13507.23
495.32	13696.82
495.49	13743.63
495.67	13528.30
495.85	13659.37
496.02	14073.64
496.20	13884.06
496.38	13867.67
496.55	13837.25
496.73	14169.60
496.91	14295.99
497.09	14417.70
497.26	14469.19
497.44	14265.57
497.62	14326.42
497.79	14618.99
497.97	14810.91
498.14	14986.45
498.32	15143.27
498.50	14977.09
498.67	15066.03
498.85	15166.67
499.03	14810.91
499.20	14965.39
499.38	15136.24
499.56	14967.73
499.73	15250.93
499.91	15695.63
500.08	15440.51
500.26	15393.70
500.44	15557.54
500.61	15384.34
500.79	15775.21
500.97	15707.34
501.14	15967.13
501.32	15971.82
501.49	15815.00
501.67	15555.20
501.84	16067.78
502.02	15882.88
502.20	16203.53
502.37	16257.36
502.55	16290.13
502.72	16432.90
502.90	16264.38
503.07	16133.31
503.25	16496.10
503.43	16601.42
503.60	16514.82
503.78	17123.36
503.95	16718.45
504.13	16711.42
504.30	16423.54
504.48	16769.94
504.65	16879.94
504.83	16755.90
505.01	17282.52
505.18	17011.01
505.36	17289.54
505.53	16980.59
505.71	17172.51
505.88	16938.46
506.06	17118.68
506.23	17455.72
506.41	17511.89
506.58	17654.66
506.76	17401.88
506.93	17390.18
507.11	17598.49
507.28	17809.14
507.46	17441.67
507.63	17930.84
507.81	17771.69
507.98	17598.49
508.16	17776.37
508.33	18066.60
508.50	17947.23
508.68	18099.36
508.85	18394.27
509.03	18225.75
509.20	18111.07
509.38	18398.95
509.55	18324.05
509.73	18562.79
509.90	18480.87
510.08	18317.03
510.25	18525.34
510.42	18649.39
510.60	18838.97
510.77	18614.28
510.95	18750.03
511.12	18684.50
511.30	19049.62
511.47	18991.11
511.64	19115.16
511.82	19215.80
511.99	19180.69
512.17	19218.14
512.34	18586.19
512.51	19304.74
512.69	19278.99
512.86	19248.57
513.04	19611.35
513.21	19262.61
513.38	19482.62
513.56	19529.43
513.73	19639.44
513.90	19601.99
514.08	19140.90
514.25	19550.49
514.43	19997.54
514.60	19852.42
514.77	19814.98
514.95	20142.65
515.12	19903.92
515.29	19985.83
515.47	20168.40
515.64	20184.78
515.81	20081.80
515.99	20435.22
516.16	20467.98
516.33	20348.62
516.51	20327.55
516.68	20393.09
516.85	20428.20
517.03	20730.12
517.20	20929.07
517.37	20690.34
517.54	20781.62
517.72	20610.76
517.89	21006.31
518.06	20638.84
518.24	20957.16
518.41	20926.73
518.58	20765.23
518.75	20856.51
518.93	21010.99
519.10	21348.03
519.27	21013.33
519.45	20975.88
519.62	21296.53
519.79	21399.52
519.96	20999.29
520.14	21486.12
520.31	21249.72
520.48	21556.33
520.65	21359.73
520.83	21661.66
521.00	21603.14
521.17	21481.44
521.34	21912.10
521.52	21415.90
521.69	21757.62
521.86	21858.26
522.03	21776.34
522.20	22040.82
522.38	21841.88
522.55	21912.10
522.72	22129.77
522.89	21989.33
523.07	22340.41
523.24	21675.70
523.41	22443.40
523.58	22326.37
523.75	22256.15
523.92	22277.22
524.10	22307.65
524.27	22574.47
524.44	22728.94
524.61	22600.21
524.78	22654.05
524.96	22745.33
525.13	22759.37
525.30	22668.09
525.47	22808.52
525.64	22478.50
525.81	22703.20
525.98	23096.41
526.16	22717.24
526.33	22927.89
526.50	22974.70
526.67	22932.57
526.84	23023.85
527.01	22960.66
527.18	22991.08
527.36	22672.77
527.53	23330.46
527.70	23358.55
527.87	23613.66
528.04	23264.92
528.21	23190.03
528.38	23520.04
528.55	23676.86
528.72	23103.43
528.89	23601.96
529.07	23391.31
529.24	23363.23
529.41	23908.57
529.58	23587.92
529.75	23662.82
529.92	23763.46
530.09	23723.67
530.26	23747.08
530.43	23887.51
530.60	23700.26
530.77	23723.67
530.94	23934.32
531.11	24168.37
531.28	24065.39
531.46	23950.70
531.63	24198.80
531.80	23990.49
531.97	24287.74
532.14	24500.73
532.31	24245.61
532.48	24233.91
532.65	24458.60
532.82	24081.77
532.99	24418.81
533.16	24236.25
533.33	24737.12
533.50	24779.25
533.67	24594.35
533.84	24451.58
534.01	24418.81
534.18	24219.86
534.35	24699.67
534.52	24680.95
534.69	24863.51
534.86	25310.55
535.03	24786.27
535.20	25001.60
535.37	24889.26
535.54	24666.91
535.71	24528.81
535.88	24919.68
536.05	24702.01
536.22	25008.62
536.38	25017.99
536.55	25106.93
536.72	25076.50
536.89	24854.15
537.06	24971.18
537.23	25092.88
537.40	24868.19
537.57	25135.01
537.74	25568.01
537.91	25460.35
538.08	25553.97
538.25	25039.05
538.42	25521.20
538.59	25563.33
538.75	24950.11
538.92	25216.93
539.09	25771.64
539.26	25425.24
539.43	25750.57
539.60	25893.35
539.77	25930.80
539.94	25830.15
540.11	25238.00
540.28	25722.49
540.44	25621.84
540.61	26101.65
540.78	25411.20
540.95	25645.25
541.12	25830.15
541.29	25647.59
541.46	25879.30
541.62	26111.02
541.79	25841.85
541.96	25752.91
542.13	25830.15
542.30	25956.54
542.47	26082.93
542.63	25872.28
542.80	26122.72
542.97	27000.42
543.14	26473.80
543.31	26251.45
543.48	26625.93
543.64	26539.33
543.81	26675.09
543.98	26836.58
544.15	26588.49
544.32	27007.44
544.48	26724.24
544.65	26712.53
544.82	26766.37
544.99	26576.78
545.16	26855.31
545.32	26642.32
545.49	26707.85
545.66	27129.15
545.83	27180.64
546.00	27150.21
546.16	27112.77
546.33	26771.05
546.50	26775.73
546.67	26859.99
546.83	26712.53
547.00	26913.82
547.17	26728.92
547.34	26920.84
547.50	27379.59
547.67	27400.65
547.84	27213.41
548.00	27152.55
548.17	27283.62
548.34	27019.14
548.51	27564.49
548.67	27608.96
548.84	27309.37
549.01	27145.53
549.18	27494.27
549.34	27300.01
549.51	27522.36
549.68	27220.43
549.84	27398.31
550.01	27623.00
550.18	27674.49
550.34	27419.38
550.51	27592.58
550.68	27770.46
550.84	27461.51
551.01	27786.84
551.18	27618.32
551.34	27271.92
551.51	27658.11
551.68	27924.93
551.84	27665.13
552.01	27487.25
552.18	28065.36
552.34	27990.47
552.51	28016.21
552.68	28079.41
552.84	27887.48
553.01	27960.04
553.18	28006.85
553.34	28018.55
553.51	27992.81
553.67	28063.02
553.84	28180.05
554.01	28421.13
554.17	28187.07
554.34	28212.82
554.51	28245.58
554.67	28233.88
554.84	28105.15
555.00	28371.97
555.17	28390.70
555.33	28371.97
555.50	28453.89
555.67	28037.28
555.83	28016.21
556.00	28247.93
556.16	28601.35
556.33	28641.14
556.50	28418.78
556.66	28381.34
556.83	28573.26
556.99	28716.03
557.16	28947.75
557.32	28926.68
557.49	28947.75
557.65	28444.53
557.82	28566.24
557.98	28479.64
558.15	28559.22
558.32	29228.61
558.48	28250.27
558.65	28535.81
558.81	29013.28
558.98	28603.69
559.14	28924.34
559.31	28996.90
559.47	28814.34
559.64	28868.17
559.80	29252.02
559.97	29099.88
560.13	28739.44
560.30	28996.90
560.46	29076.48
560.63	28994.56
560.79	28961.79
560.96	29221.59
561.12	28737.10
561.29	29017.96
561.45	28936.04
561.61	29130.31
561.78	29010.94
561.94	29422.87
562.11	29406.49
562.27	29556.28
562.44	29191.16
562.60	29411.17
562.77	29226.27
562.93	28968.81
563.10	29062.43
563.26	29443.94
563.42	29720.12
563.59	29441.60
563.75	28987.53
563.92	29226.27
564.08	29195.84
564.24	29170.10
564.41	28992.22
564.57	29408.83
564.74	29371.38
564.90	29380.74
565.07	29425.22
565.23	29219.25
565.39	29289.46
565.56	29621.82
565.72	29081.16
565.88	29362.02
566.05	29120.95
566.21	29336.27
566.38	29200.52
566.54	29558.63
566.70	29575.01
566.87	29504.79
567.03	29689.70
567.19	29677.99
567.36	29832.47
567.52	29146.69
567.68	29659.27
567.85	29504.79
568.01	29546.92
568.17	29343.30
568.34	29694.38
568.50	29535.22
568.66	29467.34
568.83	29902.68
568.99	29818.42
569.15	29462.66
569.32	29706.08
569.48	29670.97
569.64	29514.16
569.81	29799.70
569.97	29277.76
570.13	29944.81
570.30	29336.27
570.46	29415.85
570.62	29701.40
570.78	29212.23
570.95	29130.31
571.11	29984.60
571.27	29469.69
571.43	29659.27
571.60	30024.39
571.76	29364.36
571.92	29635.86
572.09	29680.33
572.25	29720.12
572.41	29670.97
572.57	29364.36
572.74	29883.96
572.90	29851.19
573.06	29869.92
573.22	29668.63
573.38	29626.50
573.55	29654.59
573.71	30162.48
573.87	29858.21
574.03	29916.73
574.20	30099.29
574.36	29436.92
574.52	29589.05
574.68	29898.00
574.84	29830.13
575.01	29825.45
575.17	29792.68
575.33	29841.83
575.49	29701.40
575.65	30150.78
575.82	29979.92
575.98	29685.01
576.14	30160.14
576.30	29790.34
576.46	29743.53
576.62	30228.02
576.79	29773.95
576.95	30026.73
577.11	30459.73
577.27	30148.44
577.43	29860.55
577.59	29846.51
577.75	30022.05
577.92	29834.81
578.08	29914.39
578.24	29603.10
578.40	29888.64
578.56	30052.48
578.72	30153.12
578.88	30115.67
579.04	30359.09
579.21	30263.13
579.37	30228.02
579.53	29881.62
579.69	30059.50
579.85	30003.33
580.01	29879.28
580.17	29947.15
580.33	30008.01
580.49	30328.66
580.65	30419.94
580.82	30408.24
580.98	30033.75
581.14	30164.82
581.30	30160.14
581.46	29759.91
581.62	30146.10
581.78	30054.82
581.94	29617.14
582.10	29944.81
582.26	29802.04
582.42	30043.12
582.58	30157.80
582.74	30010.35
582.90	30291.21
583.06	30078.22
583.22	29947.15
583.38	30237.38
583.54	29844.17
583.70	29832.47
583.86	30363.77
584.02	30080.56
584.18	29858.21
584.34	30267.81
584.50	30286.53
584.66	30017.37
584.82	29834.81
584.98	30183.55
585.14	30125.04
585.30	29827.79
585.46	30043.12
585.62	30057.16
585.78	30059.50
585.94	29869.92
586.10	30136.74
586.26	30244.40
586.42	29944.81
586.58	30136.74
586.74	29935.45
586.90	30101.63
587.06	30141.42
587.22	30139.08
587.38	30209.29
587.54	30106.31
587.70	30288.87
587.86	30361.43
588.02	30464.41
588.18	30600.16
588.34	30190.57
588.49	30345.05
588.65	30513.56
588.81	30118.01
588.97	30382.49
589.13	30316.96
589.29	30148.44
589.45	30197.59
589.61	30080.56
589.77	30085.25
589.93	30836.56
590.08	30604.84
590.24	30281.85
590.40	30639.95
590.56	30675.06
590.72	30548.67
590.88	30157.80
591.04	30485.48
591.20	30714.85
591.35	30600.16
591.51	30665.70
591.67	30717.19
591.83	30691.44
591.99	30712.51
592.15	30462.07
592.31	30796.77
592.46	30242.06
592.62	30417.60
592.78	30078.22
592.94	30382.49
593.10	30639.95
593.26	30689.10
593.41	30658.68
593.57	30663.36
593.73	30349.73
593.89	30778.04
594.05	30604.84
594.20	30698.47
594.36	30412.92
594.52	30412.92
594.68	30036.09
594.84	30567.40
594.99	30944.22
595.15	30646.97
595.31	30593.14
595.47	30726.55
595.62	30778.04
595.78	30920.82
595.94	30895.07
596.10	30417.60
596.25	30483.14
596.41	30419.94
596.57	30319.30
596.73	30555.69
596.88	30623.57
597.04	30752.30
597.20	30836.56
597.36	30976.99
597.51	30789.75
597.67	30562.72
597.83	30508.88
597.99	30323.98
598.14	30246.74
598.30	30864.64
598.46	30838.90
598.61	30796.77
598.77	30424.62
598.93	30555.69
599.09	30665.70
599.24	30998.06
599.40	30576.76
599.56	30869.33
599.71	30859.96
599.87	30792.09
600.03	30494.84
600.18	30672.72
600.34	30679.74
600.50	30885.71
600.65	30572.08
600.81	30960.61
600.97	31002.74
601.12	31199.34
601.28	30834.22
601.44	30712.51
601.59	31037.84
601.75	30768.68
601.91	30698.47
602.06	30803.79
602.22	31075.29
602.37	30338.02
602.53	31021.46
602.69	30866.98
602.84	31021.46
603.00	30881.03
603.16	30895.07
603.31	30632.93
603.47	30733.57
603.62	30356.75
603.78	31063.59
603.94	30359.09
604.09	30803.79
604.25	30682.08
604.40	30691.44
604.56	30511.22
604.71	31274.24
604.87	30958.27
605.03	31154.87
605.18	30553.35
605.34	30953.58
605.49	30431.65
605.65	30361.43
605.80	30431.65
605.96	30450.37
606.12	30527.61
606.27	30761.66
606.43	30724.21
606.58	30789.75
606.74	30639.95
606.89	30555.69
607.05	30726.55
607.20	30787.41
607.36	30874.01
607.51	30899.75
607.67	30242.06
607.82	30082.91
607.98	30384.83
608.13	30752.30
608.29	30539.31
608.44	30487.82
608.60	30661.02
608.75	30635.27
608.91	30654.00
609.06	30389.52
609.22	30796.77
609.37	30012.69
609.53	30471.43
609.68	30635.27
609.84	30462.07
609.99	30579.10
610.15	30525.27
610.30	30148.44
610.46	30115.67
610.61	30471.43
610.76	30478.46
610.92	30651.66
611.07	30345.05
611.23	30213.98
611.38	30251.42
611.54	30288.87
611.69	29942.47
611.84	30096.95
612.00	30221.00
612.15	30036.09
612.31	30373.13
612.46	30078.22
612.62	30422.28
612.77	30279.51
612.92	30710.17
613.08	30293.55
613.23	30103.97
613.39	30181.21
613.54	29738.85
613.69	30209.29
613.85	30286.53
614.00	30075.88
614.15	30195.25
614.31	30171.85
614.46	29928.43
614.62	30361.43
614.77	30298.23
614.92	29769.27
615.08	30181.21
615.23	30141.42
615.38	30059.50
615.54	30153.12
615.69	29834.81
615.84	29947.15
616.00	29970.56
616.15	29841.83
616.30	30298.23
616.46	30129.72
616.61	30134.40
616.76	30073.54
616.92	30134.40
617.07	30153.12
617.22	29610.12
617.37	29797.36
617.53	30089.93
617.68	29858.21
617.83	29736.51
617.99	29811.40
618.14	30157.80
618.29	29628.84
618.45	29638.20
618.60	29586.71
618.75	29720.12
618.90	29668.63
619.06	30031.41
619.21	29429.90
619.36	29830.13
619.51	29387.77
619.67	29329.25
619.82	29198.18
619.97	29362.02
620.12	29289.46
620.28	29235.63
620.43	29689.70
620.58	29902.68
620.73	29542.24
620.89	29720.12
621.04	29685.01
621.19	29577.35
621.34	29481.39
621.49	29308.19
621.65	29289.46
621.80	29165.42
621.95	29273.08
622.10	29319.89
622.25	29153.71
622.41	29067.11
622.56	29516.50
622.71	29525.86
622.86	29104.56
623.01	29340.96
623.16	29270.74
623.32	29095.20
623.47	29118.60
623.62	29219.25
623.77	29652.25
623.92	29242.65
624.07	29015.62
624.23	29214.57
624.38	29039.03
624.53	29397.13
624.68	28886.89
624.83	29235.63
624.98	29202.86
625.13	29202.86
625.29	29186.48
625.44	28982.85
625.59	29064.77
625.74	28931.36
625.89	28863.49
626.04	28582.62
626.19	28879.87
626.34	28545.17
626.49	28809.65
626.65	29001.58
626.80	28795.61
626.95	28912.64
627.10	28861.15
627.25	29017.96
627.40	28446.87
627.55	28599.01
627.70	28882.21
627.85	28498.36
628.00	28783.91
628.15	28624.75
628.30	28678.58
628.45	28561.56
628.60	28699.65
628.76	28802.63
628.91	28868.17
629.06	28594.32
629.21	28601.35
629.36	28467.94
629.51	28315.80
629.66	28266.65
629.81	28383.68
629.96	28299.42
630.11	28287.71
630.26	28313.46
630.41	28084.09
630.56	27887.48
630.71	27981.10
630.86	28102.81
631.01	28584.96
631.16	28561.56
631.31	28086.43
631.46	27967.06
631.61	28503.04
631.76	28177.71
631.91	28388.36
632.06	28156.64
632.21	27983.44
632.36	28088.77
632.51	28322.82
632.66	28287.71
632.81	27978.76
632.96	28077.07
633.10	28456.23
633.25	28411.76
633.40	28428.15
633.55	28350.91
633.70	28072.39
633.85	27599.60
634.00	27569.17
634.15	28095.79
634.30	27782.16
634.45	27733.01
634.60	27658.11
634.75	28039.62
634.90	27686.20
635.05	28004.51
635.19	27927.27
635.34	28243.24
635.49	28006.85
635.64	28166.01
635.79	27917.91
635.94	27866.42
636.09	27730.67
636.24	27367.88
636.39	27379.59
636.53	27372.57
636.68	27438.10
636.83	27517.68
636.98	27491.93
637.13	27641.73
637.28	27948.34
637.43	27920.25
637.57	27723.65
637.72	27384.27
637.87	27536.40
638.02	27503.64
638.17	27812.59
638.32	27311.71
638.46	27260.22
638.61	27213.41
638.76	27248.52
638.91	27014.46
639.06	27166.60
639.20	27520.02
639.35	27615.98
639.50	27777.48
639.65	27999.83
639.80	27765.78
639.94	27566.83
640.09	27283.62
640.24	27395.97
640.39	26876.37
640.54	27000.42
640.68	26925.52
640.83	27318.73
640.98	27187.66
641.13	27110.43
641.27	26841.26
641.42	27386.61
641.57	27363.20
641.72	27323.41
641.86	27199.37
642.01	27037.87
642.16	27091.70
642.31	26932.54
642.45	27124.47
642.60	26937.23
642.75	26766.37
642.90	26597.85
643.04	26916.16
643.19	26672.74
643.34	27136.17
643.48	26663.38
643.63	26841.26
643.78	27122.13
643.93	26962.97
644.07	27119.79
644.22	27131.49
644.37	26668.06
644.51	26885.73
644.66	26958.29
644.81	26422.31
644.95	26644.66
645.10	26239.75
645.25	26686.79
645.39	26647.00
645.54	26494.86
645.69	26883.39
645.83	26647.00
645.98	26703.17
646.13	26930.20
646.27	26689.13
646.42	26361.45
646.57	26696.15
646.71	26597.85
646.86	26298.26
647.00	26316.98
647.15	26389.54
647.30	26204.64
647.44	26012.71
647.59	26118.04
647.74	26183.57
647.88	26419.97
648.03	26595.51
648.17	26518.27
648.32	26529.97
648.47	26609.55
648.61	26176.55
648.76	26335.71
648.90	26335.71
649.05	26305.28
649.20	26553.38
649.34	26314.64
649.49	25750.57
649.63	26024.42
649.78	26408.26
649.92	26078.25
650.07	26293.58
650.21	26155.49
650.36	26148.46
650.51	25998.67
650.65	26363.79
650.80	26087.61
650.94	26026.76
651.09	26199.96
651.23	25675.68
651.38	25809.09
651.52	25933.14
651.67	26108.68
651.81	25986.97
651.96	26195.28
652.10	26010.37
652.25	25862.92
652.39	26199.96
652.54	25879.30
652.68	26005.69
652.83	26059.52
652.97	26574.44
653.12	26143.78
653.26	25916.75
653.41	26211.66
653.55	25701.42
653.70	25951.86
653.84	25380.77
653.99	25879.30
654.13	25802.07
654.27	25364.39
654.42	25729.51
654.56	25766.96
654.71	25755.26
654.85	25968.24
655.00	25788.02
655.14	25694.40
655.29	25748.23
655.43	25638.23
655.57	25703.76
655.72	25514.18
655.86	25465.03
656.01	25223.95
656.15	25537.59
656.30	25530.56
656.44	25778.66
656.58	25371.41
656.73	25413.54
656.87	25378.43
657.01	25041.39
657.16	25497.80
657.30	25507.16
657.45	25853.56
657.59	25219.27
657.73	25207.57
657.88	25298.85
658.02	25249.70
658.16	24961.81
658.31	25312.89
658.45	25219.27
658.60	24964.15
658.74	25095.22
658.88	25261.40
659.03	24865.85
659.17	25158.42
659.31	25137.35
659.46	25170.12
659.60	24891.60
659.74	24678.61
659.89	25010.96
660.03	24875.21
660.17	24999.26
660.32	24592.01
660.46	24865.85
660.60	24645.84
660.74	24472.64
660.89	24879.89
661.03	24224.54
661.17	24627.12
661.32	24620.10
661.46	24828.40
661.60	24517.11
661.74	24575.62
661.89	24322.85
662.03	24613.07
662.17	24561.58
662.31	24664.57
662.46	24395.40
662.60	24360.30
662.74	24023.26
662.88	24224.54
663.03	23946.02
663.17	24130.92
663.31	23969.43
663.45	23847.72
663.60	24175.39
663.74	23859.42
663.88	24032.62
664.02	24123.90
664.17	24482.00
664.31	23681.54
664.45	23836.02
664.59	24039.64
664.73	24039.64
664.88	23585.58
665.02	23716.65
665.16	23828.99
665.30	23683.88
665.44	23564.51
665.59	23365.57
665.73	23527.06
665.87	23468.55
666.01	23779.84
666.15	23587.92
666.29	23599.62
666.44	23616.01
666.58	23360.89
666.72	23562.17
666.86	23449.83
667.00	23571.54
667.14	23267.27
667.28	23143.22
667.43	23396.00
667.57	23218.11
667.71	22953.63
667.85	23035.55
667.99	23206.41
668.13	23243.86
668.27	23358.55
668.41	23171.30
668.56	23175.98
668.70	22934.91
668.84	23108.11
668.98	23051.94
669.12	23145.56
669.26	23061.30
669.40	23068.32
669.54	22663.41
669.68	22836.61
669.82	22766.39
669.96	22225.73
670.10	22441.06
670.25	22387.22
670.39	22551.06
670.53	22064.23
670.67	22441.06
670.81	22326.37
670.95	22441.06
671.09	22546.38
671.23	22295.94
671.37	22391.91
671.51	22466.80
671.65	22511.27
671.79	22462.12
671.93	21935.50
672.07	22104.02
672.21	21928.48
672.35	21774.00
672.49	21944.86
672.63	21837.20
672.77	21862.94
672.91	21834.86
673.05	21816.13
673.19	21664.00
673.33	21715.49
673.47	21598.46
673.61	21612.51
673.75	21603.14
673.89	21671.02
674.03	21614.85
674.17	21743.58
674.31	21458.03
674.45	21591.44
674.59	21343.35
674.73	21465.05
674.87	21308.24
675.01	21057.80
675.15	21036.74
675.29	21102.27
675.43	21493.14
675.56	21053.12
675.70	21160.78
675.84	20943.11
675.98	20367.34
676.12	20844.81
676.26	21221.64
676.40	21022.69
676.54	20762.89
676.68	20676.29
676.82	20322.87
676.96	20659.91
677.10	20585.01
677.23	20430.54
677.37	20517.14
677.51	20624.80
677.65	20166.06
677.79	20116.90
677.93	20130.95
678.07	19894.55
678.21	19988.18
678.34	20240.95
678.48	20093.50
678.62	19953.07
678.76	19826.68
678.90	19756.46
679.04	19576.24
679.18	19679.22
679.31	19384.32
679.45	19484.96
679.59	19173.67
679.73	19351.55
679.87	19438.15
680.00	19187.71
680.14	19152.60
680.28	18878.76
680.42	19332.82
680.56	19248.57
680.70	19075.37
680.83	18946.64
680.97	18930.25
681.11	19042.60
681.25	18897.49
681.39	18640.03
681.52	18799.18
681.66	18569.81
681.80	18654.07
681.94	18377.89
682.07	18448.10
682.21	18471.51
682.35	18237.45
682.49	18352.14
682.62	18066.60
682.76	18080.64
682.90	18146.17
683.04	18073.62
683.17	18274.90
683.31	17844.24
683.45	18162.56
683.59	17982.34
683.72	17961.27
683.86	17839.56
684.00	17767.01
684.13	17806.80
684.27	17741.26
684.41	17429.97
684.55	17364.43
684.68	17376.14
684.82	17053.14
684.96	17469.76
685.09	17114.00
685.23	17132.72
685.37	17331.67
685.50	17551.68
685.64	17163.15
685.78	17252.09
685.91	17373.80
686.05	17076.55
686.19	17193.58
686.32	17099.95
686.46	16987.61
686.60	16657.59
686.73	16407.16
686.87	16692.70
687.01	16603.76
687.14	16519.50
687.28	16266.72
687.42	16315.87
687.55	16332.26
687.69	16346.30
687.82	16145.02
687.96	16402.47
688.10	16079.48
688.23	16376.73
688.37	15967.13
688.50	16407.16
688.64	16046.71
688.78	15955.43
688.91	15669.89
689.05	15908.62
689.18	15744.78
689.32	15358.60
689.46	15541.16
689.59	15503.71
689.73	15456.90
689.86	15665.21
690.00	15356.25
690.13	15363.28
690.27	15332.85
690.41	15199.44
690.54	15068.37
690.68	15316.47
690.81	15176.03
690.95	15269.66
691.08	15176.03
691.22	14904.53
691.35	14782.82
691.49	14883.47
691.62	14857.72
691.76	14806.23
691.89	14590.90
692.03	14445.79
692.16	14508.98
692.30	14609.62
692.43	14527.71
692.57	14345.14
692.70	14263.22
692.84	14324.08
692.97	13940.23
693.11	14239.82
693.24	14040.87
693.38	14043.21
693.51	14141.52
693.65	14122.79
693.78	14015.13
693.92	13862.99
694.05	13928.53
694.19	13741.29
694.32	13582.13
694.45	13446.38
694.59	13378.50
694.72	13551.70
694.86	13460.42
694.99	13104.66
695.13	13413.61
695.26	13179.56
695.39	13193.60
695.53	13268.50
695.66	13261.48
695.80	13092.96
695.93	13149.13
696.07	13207.64
696.20	13102.32
696.33	13083.59
696.47	13055.51
696.60	12936.14
696.73	12982.95
696.87	12636.55
697.00	12847.20
697.14	12444.63
697.27	12400.16
697.40	12634.21
697.54	12369.73
697.67	12409.52
697.80	12170.79
697.94	12149.72
698.07	12079.50
698.21	12348.67
698.34	12020.99
698.47	12479.74
698.61	12236.32
698.74	12243.34
698.87	12114.61
699.01	11791.62
699.14	12058.44
699.27	11831.41
699.40	11882.90
699.54	11705.02
699.67	11747.15
699.80	11597.35
699.94	11578.63
700.07	11599.70
700.20	11370.32
700.34	11353.94
700.47	11267.34
700.60	11435.86
700.73	11283.72
700.87	11384.37
701.00	11283.72
701.13	11190.10
701.26	11054.35
701.40	11274.36
701.53	11096.48
701.66	11138.61
701.79	10775.83
701.93	10984.13
702.06	10787.53
702.19	10661.14
702.32	10824.98
702.46	10726.68
702.59	10544.11
702.72	10626.03
702.85	10333.47
702.99	10345.17
703.12	10576.88
703.25	10509.01
703.38	10260.91
703.51	10560.50
703.65	10345.17
703.78	10265.59
703.91	10169.63
704.04	10291.34
704.17	10221.12
704.31	10289.00
704.44	10094.73
704.57	10040.90
704.70	9755.35
704.83	9727.27
704.96	9797.48
705.10	9727.27
705.23	9638.33
>>>>>End Processed Spectral Data<<<<<
