SpectraSuite Data File
++++++++++++++++++++++++++++++++++++
Date: Fri Oct 18 13:58:42 GMT-05:00 2013
User: bianchi
Dark Spectrum Present: No
Reference Spectrum Present: No
Number of Sampled Component Spectra: 1
Spectrometers: USB2+H05261
Integration Time (usec): 50000 (USB2+H05261)
Spectra Averaged: 1 (USB2+H05261)
Boxcar Smoothing: 0 (USB2+H05261)
Correct for Electrical Dark: No (USB2+H05261)
Strobe/Lamp Enabled: No (USB2+H05261)
Correct for Detector Non-linearity: No (USB2+H05261)
Correct for Stray Light: No (USB2+H05261)
Number of Pixels in Processed Spectrum: 2048
>>>>>Begin Processed Spectral Data<<<<<
365.73	2.34
365.92	2.34
366.12	2.34
366.32	0.00
366.52	0.00
366.72	0.00
366.91	0.00
367.11	0.00
367.31	0.00
367.51	0.00
367.70	0.00
367.90	0.00
368.10	0.00
368.30	0.00
368.49	0.00
368.69	0.00
368.89	0.00
369.09	0.00
369.28	0.00
369.48	0.00
369.68	0.00
369.87	0.00
370.07	0.00
370.27	0.00
370.47	0.00
370.66	42.13
370.86	86.60
371.06	149.79
371.25	194.26
371.45	154.48
371.65	110.01
371.84	166.18
372.04	173.20
372.24	189.58
372.44	166.18
372.63	241.08
372.83	131.07
373.03	243.42
373.22	203.63
373.42	168.52
373.62	250.44
373.81	278.52
374.01	278.52
374.21	248.10
374.40	215.33
374.60	238.73
374.79	262.14
374.99	257.46
375.19	257.46
375.38	238.73
375.58	248.10
375.78	283.20
375.97	208.31
376.17	236.39
376.37	245.76
376.56	224.69
376.76	285.55
376.95	285.55
377.15	285.55
377.35	212.99
377.54	301.93
377.74	341.72
377.93	238.73
378.13	250.44
378.33	278.52
378.52	283.20
378.72	320.65
378.91	280.86
379.11	313.63
379.31	315.97
379.50	264.48
379.70	229.37
379.89	374.49
380.09	395.55
380.28	297.25
380.48	362.78
380.68	327.68
380.87	330.02
381.07	313.63
381.26	325.33
381.46	259.80
381.65	348.74
381.85	383.85
382.04	297.25
382.24	313.63
382.43	353.42
382.63	327.68
382.83	292.57
383.02	388.53
383.22	301.93
383.41	353.42
383.61	388.53
383.80	393.21
384.00	374.49
384.19	400.23
384.39	290.23
384.58	369.80
384.78	313.63
384.97	411.93
385.17	360.44
385.36	400.23
385.56	341.72
385.75	369.80
385.95	348.74
386.14	402.57
386.34	355.76
386.53	409.59
386.72	435.34
386.92	411.93
387.11	402.57
387.31	421.30
387.50	454.06
387.70	465.77
387.89	444.70
388.09	416.62
388.28	393.21
388.48	440.02
388.67	477.47
388.86	447.04
389.06	456.40
389.25	447.04
389.45	416.62
389.64	503.22
389.84	472.79
390.03	479.81
390.22	456.40
390.42	449.38
390.61	458.74
390.81	465.77
391.00	475.13
391.19	517.26
391.39	468.11
391.58	449.38
391.78	479.81
391.97	454.06
392.16	500.87
392.36	496.19
392.55	535.98
392.75	540.66
392.94	472.79
393.13	493.85
393.33	545.34
393.52	510.24
393.71	615.56
393.91	601.52
394.10	512.58
394.29	517.26
394.49	535.98
394.68	589.82
394.88	547.69
395.07	559.39
395.26	608.54
395.46	561.73
395.65	617.90
395.84	538.32
396.04	655.35
396.23	594.50
396.42	615.56
396.62	636.63
396.81	617.90
397.00	601.52
397.19	610.88
397.39	685.78
397.58	674.07
397.77	683.44
397.97	779.40
398.16	732.59
398.35	636.63
398.55	657.69
398.74	683.44
398.93	695.14
399.12	748.97
399.32	669.39
399.51	718.54
399.70	681.10
399.90	755.99
400.09	753.65
400.28	812.17
400.47	737.27
400.67	709.18
400.86	779.40
401.05	755.99
401.24	777.06
401.44	840.25
401.63	823.87
401.82	795.78
402.01	802.80
402.21	798.12
402.40	873.02
402.59	746.63
402.78	781.74
402.97	929.19
403.17	863.66
403.36	786.42
403.55	835.57
403.74	873.02
403.93	931.53
404.13	901.11
404.32	887.06
404.51	915.15
404.70	896.43
404.89	952.60
405.09	875.36
405.28	971.32
405.47	990.05
405.66	908.13
405.85	1004.09
406.05	901.11
406.24	964.30
406.43	1041.54
406.62	950.26
406.81	1069.62
407.00	983.02
407.20	990.05
407.39	945.58
407.58	1086.01
407.77	1076.65
407.96	1153.88
408.15	1128.14
408.34	1097.71
408.54	1088.35
408.73	1006.43
408.92	1064.94
409.11	1102.39
409.30	1081.33
409.49	1118.78
409.68	1137.50
409.87	1071.97
410.07	1078.99
410.26	1214.74
410.45	1238.14
410.64	1163.25
410.83	1174.95
411.02	1231.12
411.21	1287.29
411.40	1233.46
411.59	1291.98
411.78	1165.59
411.98	1188.99
412.17	1249.85
412.36	1217.08
412.55	1376.24
412.74	1329.42
412.93	1380.92
413.12	1270.91
413.31	1455.81
413.50	1329.42
413.69	1364.53
413.88	1394.96
414.07	1359.85
414.26	1434.75
414.45	1453.47
414.64	1439.43
414.83	1551.78
415.02	1547.09
415.22	1493.26
415.41	1526.03
415.60	1476.88
415.79	1481.56
415.98	1619.65
416.17	1549.43
416.36	1617.31
416.55	1500.28
416.74	1497.94
416.93	1509.65
417.12	1659.44
417.31	1600.93
417.50	1682.85
417.69	1619.65
417.88	1657.10
418.07	1708.59
418.26	1696.89
418.45	1671.14
418.64	1762.42
418.83	1818.60
419.02	1760.08
419.21	1802.21
419.39	1790.51
419.58	1856.04
419.77	1783.49
419.96	1783.49
420.15	1888.81
420.34	1856.04
420.53	1776.47
420.72	1893.49
420.91	1811.57
421.10	1947.33
421.29	1886.47
421.48	1930.94
421.67	1870.09
421.86	1916.90
422.05	1844.34
422.24	1811.57
422.43	1973.07
422.61	1837.32
422.80	1884.13
422.99	1994.14
423.18	1968.39
423.37	2057.33
423.56	2073.71
423.75	1956.69
423.94	1966.05
424.13	1860.73
424.32	1963.71
424.50	1989.46
424.69	2129.89
424.88	1935.62
425.07	1914.56
425.26	2045.63
425.45	2010.52
425.64	1998.82
425.83	2038.61
426.01	2031.58
426.20	2008.18
426.39	2022.22
426.58	2108.82
426.77	2132.23
426.96	1942.64
427.15	2094.78
427.33	2101.80
427.52	2087.76
427.71	2106.48
427.90	2113.50
428.09	2157.97
428.28	2143.93
428.46	2165.00
428.65	2085.42
428.84	2165.00
429.03	2275.00
429.22	2181.38
429.40	2246.91
429.59	2223.51
429.78	2120.53
429.97	2148.61
430.16	2275.00
430.34	2265.64
430.53	2314.79
430.72	2307.77
430.91	2136.91
431.10	2300.75
431.28	2385.01
431.47	2270.32
431.66	2373.30
431.85	2352.24
432.03	2312.45
432.22	2361.60
432.41	2310.11
432.60	2473.95
432.79	2396.71
432.97	2392.03
433.16	2448.20
433.35	2392.03
433.54	2445.86
433.72	2532.46
433.91	2544.16
434.10	2612.04
434.28	2532.46
434.47	2602.68
434.66	2527.78
434.85	2539.48
435.03	2490.33
435.22	2640.12
435.41	2623.74
435.59	2651.83
435.78	2700.98
435.97	2658.85
436.16	2516.08
436.34	2588.63
436.53	2705.66
436.72	2743.11
436.90	2693.96
437.09	2665.87
437.28	2523.10
437.46	2686.94
437.65	2773.53
437.84	2750.13
438.02	2719.70
438.21	2675.23
438.40	2684.59
438.58	2806.30
438.77	2942.05
438.96	2881.20
439.14	2871.84
439.33	2801.62
439.52	2759.49
439.70	3000.57
439.89	2974.82
440.08	3014.61
440.26	2981.84
440.45	2998.23
440.63	2991.20
440.82	3042.70
441.01	3162.06
441.19	3173.77
441.38	3080.14
441.57	3152.70
441.75	3164.40
441.94	3201.85
442.12	3087.17
442.31	3349.31
442.50	3213.56
442.68	3293.13
442.87	3262.71
443.05	3328.24
443.24	3293.13
443.43	3431.23
443.61	3351.65
443.80	3384.41
443.98	3262.71
444.17	3148.02
444.35	3393.78
444.54	3492.08
444.73	3524.85
444.91	3332.92
445.10	3389.10
445.28	3424.20
445.47	3431.23
445.65	3353.99
445.84	3463.99
446.02	3442.93
446.21	3389.10
446.39	3403.14
446.58	3424.20
446.77	3513.14
446.95	3358.67
447.14	3508.46
447.32	3522.51
447.51	3382.07
447.69	3552.93
447.88	3485.06
448.06	3482.72
448.25	3508.46
448.43	3562.30
448.62	3454.63
448.80	3487.40
448.99	3606.77
449.17	3555.27
449.36	3536.55
449.54	3667.62
449.73	3550.59
449.91	3782.31
450.10	3550.59
450.28	3651.24
450.46	3728.47
450.65	3646.55
450.83	3735.50
451.02	3721.45
451.20	3751.88
451.39	3672.30
451.57	3679.32
451.76	3721.45
451.94	3728.47
452.13	3765.92
452.31	3758.90
452.49	3751.88
452.68	3786.99
452.86	3847.84
453.05	3887.63
453.23	3859.54
453.42	3714.43
453.60	3859.54
453.78	3934.44
453.97	3786.99
454.15	3885.29
454.34	3803.37
454.52	3866.56
454.70	4023.38
454.89	3974.23
455.07	3995.29
455.26	3936.78
455.44	4098.28
455.62	3957.85
455.81	4217.65
455.99	4170.83
456.17	4077.21
456.36	4049.13
456.54	4219.99
456.73	4191.90
456.91	4271.48
457.09	4285.52
457.28	4248.07
457.46	4271.48
457.64	4250.41
457.83	4318.29
458.01	4271.48
458.19	4351.06
458.38	4376.80
458.56	4465.74
458.74	4362.76
458.93	4259.78
459.11	4386.16
459.29	4449.36
459.48	4390.84
459.66	4519.57
459.84	4491.49
460.03	4519.57
460.21	4655.33
460.39	4411.91
460.57	4360.42
460.76	4564.04
460.94	4599.15
461.12	4585.11
461.31	4596.81
461.49	4461.06
461.67	4561.70
461.85	4685.75
462.04	4552.34
462.22	4868.31
462.40	4561.70
462.59	4662.35
462.77	4688.09
462.95	4709.16
463.13	4779.37
463.32	4837.89
463.50	4697.46
463.68	4830.87
463.86	4873.00
464.05	4727.88
464.23	4774.69
464.41	4793.42
464.59	4842.57
464.78	4980.66
464.96	4730.22
465.14	4720.86
465.32	4842.57
465.50	4868.31
465.69	4826.18
465.87	4990.02
466.05	4819.16
466.23	4987.68
466.41	4973.64
466.60	5123.43
466.78	5088.32
466.96	4802.78
467.14	5029.81
467.32	4997.04
467.51	5158.54
467.69	4936.19
467.87	5144.50
468.05	5242.80
468.23	5053.22
468.41	5011.09
468.60	4983.00
468.78	5205.35
468.96	5064.92
469.14	5156.20
469.32	5153.86
469.50	4968.96
469.69	5336.42
469.87	5259.18
470.05	5446.43
470.23	5371.53
470.41	5404.30
470.59	5305.99
470.77	5329.40
470.95	5533.03
471.14	5490.90
471.32	5425.36
471.50	5636.01
471.68	5533.03
471.86	5528.35
472.04	5624.31
472.22	5643.03
472.40	5465.15
472.58	5596.22
472.77	5706.23
472.95	5827.93
473.13	5968.37
473.31	5685.16
473.49	5746.02
473.67	5874.74
473.85	5944.96
474.03	6069.01
474.21	5959.00
474.39	5816.23
474.57	5867.72
474.75	5998.79
474.93	5944.96
475.12	5909.85
475.30	6190.72
475.48	6054.97
475.66	6073.69
475.84	6134.54
476.02	6057.31
476.20	6377.96
476.38	6366.26
476.56	6518.39
476.74	6396.68
476.92	6434.13
477.10	6478.60
477.28	6429.45
477.46	6511.37
477.64	6588.61
477.82	6806.28
478.00	6918.62
478.18	6825.00
478.36	6918.62
478.54	6995.86
478.72	6796.92
478.90	7019.27
479.08	7236.94
479.26	7166.72
479.44	7307.15
479.62	7234.60
479.80	7262.68
479.98	7295.45
480.16	7522.48
480.34	7555.25
480.52	7655.89
480.70	7578.65
480.88	7400.77
481.06	7733.13
481.24	7531.84
481.41	7929.74
481.59	7985.91
481.77	7768.24
481.95	7957.82
482.13	8063.15
482.31	7974.21
482.49	8222.30
482.67	8219.96
482.85	8079.53
483.03	8372.10
483.21	8451.67
483.39	8306.56
483.57	8615.51
483.74	8662.32
483.92	8528.91
484.10	8638.92
484.28	8706.79
484.46	8933.82
484.64	8987.66
484.82	8882.33
485.00	8938.51
485.18	9111.71
485.35	9371.50
485.53	9132.77
485.71	9336.40
485.89	9495.55
486.07	9479.17
486.25	9404.27
486.43	9561.09
486.61	9547.05
486.78	9830.25
486.96	9914.51
487.14	9865.36
487.32	10033.88
487.50	10040.90
487.68	10012.81
487.85	10274.95
488.03	10340.49
488.21	10389.64
488.39	10328.78
488.57	10441.13
488.75	10532.41
488.92	10712.63
489.10	10703.27
489.28	10824.98
489.46	10871.79
489.64	10878.81
489.81	11367.98
489.99	11101.16
490.17	11386.71
490.35	11283.72
490.53	11426.50
490.70	11559.91
490.88	11676.93
491.06	11634.80
491.24	11611.40
491.41	11768.21
491.59	11637.14
491.77	11716.72
491.95	11861.84
492.13	12109.93
492.30	12084.19
492.48	12058.44
492.66	12217.60
492.84	12259.73
493.01	12444.63
493.19	12608.47
493.37	12643.57
493.54	12540.59
493.72	12819.11
493.90	12573.36
494.08	12856.56
494.25	12772.30
494.43	12940.82
494.61	12971.25
494.79	13104.66
494.96	13128.06
495.14	13521.27
495.32	13270.84
495.49	13242.75
495.67	13336.37
495.85	13607.87
496.02	13802.14
496.20	13799.80
496.38	13837.25
496.55	13799.80
496.73	13900.44
496.91	13930.87
497.09	14036.19
497.26	14209.39
497.44	14059.60
497.62	14333.44
497.79	14272.59
497.97	14345.14
498.14	14317.06
498.32	14579.20
498.50	14553.45
498.67	14927.94
498.85	14881.13
499.03	14712.61
499.20	14700.90
499.38	14703.25
499.56	15051.99
499.73	15077.73
499.91	15206.46
500.08	15049.64
500.26	15110.50
500.44	15272.00
500.61	15316.47
500.79	15222.84
500.97	15384.34
501.14	15555.20
501.32	15920.32
501.49	15592.65
501.67	15712.02
501.84	15683.93
502.02	15683.93
502.20	15768.19
502.37	16109.91
502.55	15999.90
502.72	16058.42
502.90	16095.86
503.07	15983.52
503.25	16142.67
503.43	16432.90
503.60	16409.50
503.78	16358.00
503.95	16592.06
504.13	16407.16
504.30	16552.27
504.48	16334.60
504.65	16624.83
504.83	16617.80
505.01	16762.92
505.18	17128.04
505.36	17106.98
505.53	16805.05
505.71	16723.13
505.88	16861.22
506.06	17055.48
506.23	16793.34
506.41	16966.54
506.58	16952.50
506.76	17268.47
506.93	17259.11
507.11	17172.51
507.28	17216.98
507.46	17289.54
507.63	17432.31
507.81	17846.58
507.98	17769.35
508.16	17429.97
508.33	17701.47
508.50	17474.44
508.68	17624.23
508.85	18040.85
509.03	17898.08
509.20	18181.28
509.38	18331.08
509.55	18200.01
509.73	18099.36
509.90	18073.62
510.08	18195.32
510.25	18024.47
510.42	18230.43
510.60	18848.33
510.77	18305.33
510.95	18614.28
511.12	18422.36
511.30	18291.29
511.47	18485.55
511.64	18623.64
511.82	18595.56
511.99	18757.05
512.17	18735.99
512.34	18799.18
512.51	18974.72
512.69	19096.43
512.86	19190.05
513.04	19274.31
513.21	19351.55
513.38	19274.31
513.56	19185.37
513.73	19342.19
513.90	19091.75
514.08	19176.01
514.25	19477.94
514.43	19456.87
514.60	19840.72
514.77	19541.13
514.95	19592.62
515.12	19494.32
515.29	19721.35
515.47	19850.08
515.64	19726.04
515.81	19618.37
515.99	19999.88
516.16	20058.39
516.33	20201.16
516.51	20369.68
516.68	20009.24
516.85	20215.21
517.03	20425.86
517.20	20259.68
517.37	20236.27
517.54	20585.01
517.72	20411.81
517.89	20219.89
518.06	20475.01
518.24	20252.66
518.41	20280.74
518.58	20290.10
518.75	20748.85
518.93	20655.23
519.10	20718.42
519.27	20702.04
519.45	20697.36
519.62	20507.77
519.79	20741.83
519.96	21034.39
520.14	20961.84
520.31	21135.04
520.48	20999.29
520.65	20978.22
520.83	21008.65
521.00	21310.58
521.17	20989.92
521.34	21404.20
521.52	21331.64
521.69	21312.92
521.86	21439.31
522.03	21607.83
522.20	21167.80
522.38	21579.74
522.55	21469.73
522.72	21546.97
522.89	21668.68
523.07	21970.61
523.24	21846.56
523.41	21968.27
523.58	21397.18
523.75	21984.65
523.92	21792.73
524.10	21970.61
524.27	22195.30
524.44	22108.70
524.61	22190.62
524.78	22209.34
524.96	22408.29
525.13	22176.58
525.30	22576.81
525.47	22171.89
525.64	22324.03
525.81	22188.28
525.98	22579.15
526.16	22293.60
526.33	22370.84
526.50	22911.50
526.67	22588.51
526.84	22738.30
527.01	22195.30
527.18	22527.66
527.36	22869.37
527.53	22874.06
527.70	23168.96
527.87	22955.97
528.04	22642.34
528.21	23023.85
528.38	22831.93
528.55	23082.36
528.72	22995.76
528.89	23302.37
529.07	23447.49
529.24	23152.58
529.41	23168.96
529.58	23253.22
529.75	22932.57
529.92	23194.71
530.09	23276.63
530.26	23445.15
530.43	23215.77
530.60	23229.82
530.77	23536.43
530.94	23700.26
531.11	23405.36
531.28	23672.18
531.46	23531.75
531.63	23381.95
531.80	23578.56
531.97	23742.39
532.14	23857.08
532.31	23976.45
532.48	23683.88
532.65	24039.64
532.82	23824.31
532.99	23995.17
533.16	23850.06
533.33	24383.70
533.50	24067.73
533.67	24395.40
533.84	24002.19
534.01	23946.02
534.18	23821.97
534.35	24367.32
534.52	24065.39
534.69	24067.73
534.86	24535.84
535.03	23920.28
535.20	24442.21
535.37	24472.64
535.54	24542.86
535.71	24308.80
535.88	24348.59
536.05	24170.71
536.22	24350.93
536.38	24973.52
536.55	24912.66
536.72	24535.84
536.89	24271.36
537.06	25090.54
537.23	24711.38
537.40	24673.93
537.57	24725.42
537.74	24755.85
537.91	24950.11
538.08	25125.65
538.25	24905.64
538.42	24765.21
538.59	25270.76
538.75	24741.80
538.92	25336.30
539.09	25209.91
539.26	24907.98
539.43	25434.60
539.60	25343.32
539.77	25373.75
539.94	25254.38
540.11	25127.99
540.28	25373.75
540.44	25481.41
540.61	25474.39
540.78	25338.64
540.95	25263.74
541.12	25785.68
541.29	25516.52
541.46	25500.14
541.62	25731.85
541.79	25275.45
541.96	24985.22
542.13	25259.06
542.30	25783.34
542.47	25766.96
542.63	25694.40
542.80	25818.45
542.97	26017.40
543.14	26232.72
543.31	26335.71
543.48	25668.66
543.64	25869.94
543.81	26270.17
543.98	26361.45
544.15	26377.84
544.32	26370.82
544.48	26443.37
544.65	26164.85
544.82	26347.41
544.99	26096.97
545.16	26195.28
545.32	26410.60
545.49	26410.60
545.66	26508.91
545.83	26665.72
546.00	26532.31
546.16	26366.13
546.33	26253.79
546.50	26373.16
546.67	26431.67
546.83	26277.19
547.00	26529.97
547.17	26749.98
547.34	26597.85
547.50	26539.33
547.67	27023.83
547.84	26801.47
548.00	27063.61
548.17	26789.77
548.34	26476.14
548.51	27042.55
548.67	27225.11
548.84	26948.93
549.01	26810.84
549.18	26815.52
549.34	27012.12
549.51	26810.84
549.68	26768.71
549.84	26724.24
550.01	27295.33
550.18	26792.11
550.34	27035.53
550.51	27007.44
550.68	27442.78
550.84	27173.62
551.01	27414.69
551.18	27161.92
551.34	27026.17
551.51	27133.83
551.68	27271.92
551.84	27386.61
552.01	27377.25
552.18	27431.08
552.34	26712.53
552.51	27459.16
552.68	27475.55
552.84	27129.15
553.01	27388.95
553.18	27288.31
553.34	27154.90
553.51	27550.45
553.67	27674.49
553.84	27391.29
554.01	27793.86
554.17	27456.82
554.34	27730.67
554.51	27407.67
554.67	28023.23
554.84	27843.01
555.00	27527.04
555.17	27566.83
555.33	27831.31
555.50	27559.81
555.67	27875.78
555.83	27859.40
556.00	27924.93
556.16	28318.14
556.33	28158.99
556.50	27630.02
556.66	27833.65
556.83	28130.90
556.99	28205.80
557.16	28086.43
557.32	28390.70
557.49	28233.88
557.65	27931.95
557.82	27812.59
557.98	27906.21
558.15	28437.51
558.32	28460.91
558.48	28247.93
558.65	28217.50
558.81	28259.63
558.98	28423.47
559.14	28187.07
559.31	28004.51
559.47	27838.33
559.64	28596.67
559.80	28112.17
559.97	28620.07
560.13	28180.05
560.30	28261.97
560.46	28346.23
560.63	28056.00
560.79	28257.29
560.96	28573.26
561.12	28519.43
561.29	28140.26
561.45	28540.49
561.61	28769.86
561.78	28898.59
561.94	28673.90
562.11	28718.37
562.27	28802.63
562.44	28783.91
562.60	28135.58
562.77	28533.47
562.93	28624.75
563.10	28655.18
563.26	28444.53
563.42	28645.82
563.59	28741.78
563.75	28748.80
563.92	29048.39
564.08	28692.63
564.24	28982.85
564.41	28594.32
564.57	28664.54
564.74	28669.22
564.90	28765.18
565.07	28893.91
565.23	28833.06
565.39	28919.66
565.56	29090.52
565.72	29287.12
565.88	28847.10
566.05	28617.73
566.21	28582.62
566.38	28837.74
566.54	29151.37
566.70	29092.86
566.87	29109.24
567.03	29256.70
567.19	29319.89
567.36	28875.19
567.52	28760.50
567.68	28856.46
567.85	29046.05
568.01	29134.99
568.17	28844.76
568.34	29067.11
568.50	29235.63
568.66	29130.31
568.83	29235.63
568.99	28903.28
569.15	29287.12
569.32	28924.34
569.48	28957.11
569.64	28968.81
569.81	29081.16
569.97	29179.46
570.13	29167.76
570.30	28723.05
570.46	29355.00
570.62	29111.58
570.78	28809.65
570.95	29149.03
571.11	29221.59
571.27	28870.51
571.43	29249.67
571.60	29083.50
571.76	29120.95
571.92	29399.47
572.09	29067.11
572.25	29322.23
572.41	28961.79
572.57	29053.07
572.74	29195.84
572.90	29369.04
573.06	29167.76
573.22	29165.42
573.38	29394.79
573.55	29034.35
573.71	29560.97
573.87	29390.11
574.03	29165.42
574.20	29436.92
574.36	29120.95
574.52	29296.49
574.68	29053.07
574.84	29308.19
575.01	29322.23
575.17	29167.76
575.33	29661.61
575.49	29099.88
575.65	29511.81
575.82	29567.99
575.98	29495.43
576.14	29233.29
576.30	29198.18
576.46	29268.40
576.62	29160.73
576.79	29158.39
576.95	29071.79
577.11	29235.63
577.27	29298.83
577.43	29427.56
577.59	29303.51
577.75	28989.88
577.92	29305.85
578.08	29350.32
578.24	29355.00
578.40	29546.92
578.56	29479.05
578.72	29626.50
578.88	29724.80
579.04	29970.56
579.21	29326.91
579.37	29483.73
579.53	29415.85
579.69	29460.32
579.85	29390.11
580.01	29553.94
580.17	29467.34
580.33	29139.67
580.49	29362.02
580.65	29820.77
580.82	29780.98
580.98	29153.71
581.14	29542.24
581.30	29418.19
581.46	29427.56
581.62	29429.90
581.78	29347.98
581.94	29645.23
582.10	29284.78
582.26	29263.72
582.42	29811.40
582.58	29900.34
582.74	29607.78
582.90	29362.02
583.06	29647.57
583.22	29404.15
583.38	29261.38
583.54	29495.43
583.70	29401.81
583.86	29565.65
584.02	29820.77
584.18	29338.62
584.34	29432.24
584.50	29701.40
584.66	29619.48
584.82	28833.06
584.98	29607.78
585.14	29652.25
585.30	29333.93
585.46	29385.43
585.62	29266.06
585.78	29638.20
585.94	29635.86
586.10	29675.65
586.26	29593.73
586.42	29813.74
586.58	29692.04
586.74	29525.86
586.90	29472.03
587.06	29268.40
587.22	29500.11
587.38	29713.10
587.54	29713.10
587.70	29668.63
587.86	29558.63
588.02	29741.19
588.18	30122.69
588.34	29832.47
588.49	29736.51
588.65	29788.00
588.81	29734.17
588.97	29869.92
589.13	29670.97
589.29	29696.72
589.45	29556.28
589.61	29851.19
589.77	29909.71
589.93	30204.61
590.08	30057.16
590.24	29865.24
590.40	29825.45
590.56	30019.71
590.72	30068.86
590.88	29516.50
591.04	29895.66
591.20	29944.81
591.35	29773.95
591.51	30457.39
591.67	30377.81
591.83	29972.90
591.99	30143.76
592.15	30132.06
592.31	30026.73
592.46	29626.50
592.62	29792.68
592.78	29642.88
592.94	29883.96
593.10	29738.85
593.26	30539.31
593.41	29844.17
593.57	29778.64
593.73	30281.85
593.89	30279.51
594.05	30286.53
594.20	30106.31
594.36	29937.79
594.52	29757.57
594.68	29993.97
594.84	29617.14
594.99	30202.27
595.15	29905.02
595.31	30380.15
595.47	30405.90
595.62	30125.04
595.78	29869.92
595.94	30059.50
596.10	29991.62
596.25	29935.45
596.41	29961.20
596.57	29745.87
596.73	29898.00
596.88	30096.95
597.04	30211.64
597.20	30300.58
597.36	30518.25
597.51	30110.99
597.67	30036.09
597.83	30136.74
597.99	30136.74
598.14	30534.63
598.30	30071.20
598.46	29916.73
598.61	30192.91
598.77	30314.62
598.93	30052.48
599.09	30206.95
599.24	30548.67
599.40	30583.78
599.56	30588.46
599.71	29923.75
599.87	30462.07
600.03	30209.29
600.18	30366.11
600.34	29806.72
600.50	30099.29
600.65	29958.86
600.81	30363.77
600.97	30164.82
601.12	30359.09
601.28	30080.56
601.44	30029.07
601.59	30426.96
601.75	30052.48
601.91	30600.16
602.06	29968.22
602.22	30153.12
602.37	30000.99
602.53	30256.11
602.69	30199.93
602.84	30066.52
603.00	30195.25
603.16	30005.67
603.31	29858.21
603.47	30462.07
603.62	29935.45
603.78	30225.68
603.94	29776.30
604.09	29855.87
604.25	29996.31
604.40	30171.85
604.56	30132.06
604.71	31007.42
604.87	30150.78
605.03	30169.51
605.18	30338.02
605.34	30183.55
605.49	30078.22
605.65	30094.61
605.80	29813.74
605.96	30054.82
606.12	29993.97
606.27	30218.66
606.43	29785.66
606.58	29949.50
606.74	29947.15
606.89	30174.19
607.05	30000.99
607.20	30000.99
607.36	30022.05
607.51	30225.68
607.67	30103.97
607.82	29942.47
607.98	30242.06
608.13	29916.73
608.29	29663.95
608.44	29895.66
608.60	29895.66
608.75	29958.86
608.91	30251.42
609.06	29799.70
609.22	30040.78
609.37	29546.92
609.53	29645.23
609.68	30005.67
609.84	29670.97
609.99	30120.35
610.15	29872.26
610.30	29654.59
610.46	29745.87
610.61	29888.64
610.76	29970.56
610.92	29818.42
611.07	30000.99
611.23	29951.84
611.38	29685.01
611.54	29872.26
611.69	29357.34
611.84	29759.91
612.00	29713.10
612.15	29582.03
612.31	29802.04
612.46	29738.85
612.62	29696.72
612.77	29642.88
612.92	29895.66
613.08	29628.84
613.23	29713.10
613.39	29668.63
613.54	29252.02
613.69	30010.35
613.85	29544.58
614.00	29567.99
614.15	29954.18
614.31	29340.96
614.46	29717.78
614.62	29788.00
614.77	29919.07
614.92	29635.86
615.08	29434.58
615.23	29326.91
615.38	29626.50
615.54	29078.82
615.69	29600.76
615.84	29495.43
616.00	29291.80
616.15	29710.76
616.30	29504.79
616.46	29514.16
616.61	29359.68
616.76	29289.46
616.92	29537.56
617.07	29357.34
617.22	29254.36
617.37	29425.22
617.53	29401.81
617.68	29055.41
617.83	28933.70
617.99	29411.17
618.14	28926.68
618.29	28971.15
618.45	29528.20
618.60	29165.42
618.75	29179.46
618.90	29036.69
619.06	28879.87
619.21	28835.40
619.36	29163.08
619.51	29350.32
619.67	29081.16
619.82	28875.19
619.97	29326.91
620.12	28811.99
620.28	28917.32
620.43	28741.78
620.58	29315.21
620.73	28783.91
620.89	29287.12
621.04	29191.16
621.19	28877.53
621.34	28856.46
621.49	28746.46
621.65	28666.88
621.80	29158.39
621.95	28816.68
622.10	28711.35
622.25	28706.67
622.41	28716.03
622.56	28776.89
622.71	28683.27
622.86	28996.90
623.01	28760.50
623.16	28711.35
623.32	28877.53
623.47	28655.18
623.62	28460.91
623.77	28774.55
623.92	28526.45
624.07	28650.50
624.23	28662.20
624.38	28624.75
624.53	28430.49
624.68	28425.81
624.83	28931.36
624.98	28938.38
625.13	28559.22
625.29	28816.68
625.44	28589.64
625.59	28147.28
625.74	28088.77
625.89	28769.86
626.04	28315.80
626.19	28580.28
626.34	28446.87
626.49	28037.28
626.65	28371.97
626.80	28727.74
626.95	28318.14
627.10	28116.86
627.25	28128.56
627.40	27901.53
627.55	28371.97
627.70	27889.82
627.85	28144.94
628.00	28018.55
628.15	27943.66
628.30	27805.56
628.45	28037.28
628.60	28212.82
628.76	28184.73
628.91	28166.01
629.06	27978.76
629.21	27988.13
629.36	28063.02
629.51	27955.36
629.66	28084.09
629.81	28418.78
629.96	27999.83
630.11	28006.85
630.26	27716.62
630.41	27838.33
630.56	27552.79
630.71	27990.47
630.86	27934.29
631.01	27812.59
631.16	27978.76
631.31	27857.06
631.46	27470.87
631.61	28081.75
631.76	27885.14
631.91	27573.85
632.06	27702.58
632.21	27543.42
632.36	27585.55
632.51	27571.51
632.66	27725.99
632.81	27538.74
632.96	27618.32
633.10	27562.15
633.25	27611.30
633.40	27627.68
633.55	27564.49
633.70	27337.46
633.85	27365.54
634.00	27662.79
634.15	27051.91
634.30	27194.68
634.45	27250.86
634.60	27225.11
634.75	27346.82
634.90	27349.16
635.05	27391.29
635.19	27168.94
635.34	27566.83
635.49	27384.27
635.64	27180.64
635.79	27353.84
635.94	27288.31
636.09	27548.11
636.24	27051.91
636.39	27164.26
636.53	27321.07
636.68	27030.85
636.83	27065.96
636.98	27119.79
637.13	27065.96
637.28	26962.97
637.43	26965.31
637.57	27300.01
637.72	27269.58
637.87	27381.93
638.02	27124.47
638.17	26785.09
638.32	26888.07
638.46	27051.91
638.61	26565.08
638.76	27264.90
638.91	26745.30
639.06	26590.83
639.20	27084.68
639.35	26897.44
639.50	27063.61
639.65	26998.08
639.80	26897.44
639.94	27072.98
640.09	26696.15
640.24	26677.43
640.39	26462.10
640.54	26735.94
640.68	26326.35
640.83	26656.36
640.98	26462.10
641.13	26377.84
641.27	26913.82
641.42	26518.27
641.57	26899.78
641.72	26728.92
641.86	26525.29
642.01	26195.28
642.16	26553.38
642.31	26380.18
642.45	26813.18
642.60	26328.69
642.75	26319.32
642.90	26103.99
643.04	26309.96
643.19	26328.69
643.34	26405.92
643.48	26658.70
643.63	26476.14
643.78	26363.79
643.93	26639.98
644.07	26506.57
644.22	26785.09
644.37	26532.31
644.51	26771.05
644.66	26202.30
644.81	26274.85
644.95	26338.05
645.10	25970.58
645.25	25802.07
645.39	26153.15
645.54	26204.64
645.69	25970.58
645.83	26209.32
645.98	25900.37
646.13	26326.35
646.27	26125.06
646.42	26314.64
646.57	26347.41
646.71	26206.98
646.86	26225.70
647.00	26120.38
647.15	26003.35
647.30	25811.43
647.44	25720.15
647.59	26054.84
647.74	25741.21
647.88	25823.13
648.03	26003.35
648.17	26057.18
648.32	26061.87
648.47	25865.26
648.61	25825.47
648.76	26057.18
648.90	25624.18
649.05	25984.63
649.20	25596.10
649.34	25685.04
649.49	25656.95
649.63	25996.33
649.78	25846.54
649.92	25340.98
650.07	25844.20
650.21	25989.31
650.36	25823.13
650.51	25462.69
650.65	25481.41
650.80	25888.67
650.94	25610.14
651.09	25502.48
651.23	25495.46
651.38	25521.20
651.52	25373.75
651.67	25626.53
651.81	25462.69
651.96	25518.86
652.10	25174.80
652.25	25544.61
652.39	25418.22
652.54	25415.88
652.68	25277.79
652.83	25720.15
652.97	25685.04
653.12	25666.31
653.26	25186.50
653.41	25329.28
653.55	25085.86
653.70	25076.50
653.84	25371.41
653.99	25247.36
654.13	25371.41
654.27	25324.60
654.42	25043.73
654.56	25338.64
654.71	25315.23
654.85	25245.02
655.00	25308.21
655.14	25174.80
655.29	25273.10
655.43	25575.03
655.57	25062.46
655.72	24992.24
655.86	25142.03
656.01	24957.13
656.15	25034.37
656.30	24987.56
656.44	25113.95
656.58	24926.71
656.73	25177.14
656.87	24676.27
657.01	24627.12
657.16	25003.94
657.30	24992.24
657.45	24950.11
657.59	24964.15
657.73	24758.19
657.88	24772.23
658.02	24872.87
658.16	24753.51
658.31	24739.46
658.45	24648.18
658.60	24512.43
658.74	24790.95
658.88	24615.41
659.03	24577.97
659.17	24294.76
659.31	24432.85
659.46	24521.79
659.60	24680.95
659.74	24432.85
659.89	24776.91
660.03	24411.79
660.17	24290.08
660.32	24217.52
660.46	24318.17
660.60	24292.42
660.74	23967.09
660.89	23864.10
661.03	23768.14
661.17	24037.30
661.32	23981.13
661.46	24411.79
661.60	23981.13
661.74	24561.58
661.89	24058.37
662.03	24156.67
662.17	23999.85
662.31	24020.92
662.46	24205.82
662.60	23833.68
662.74	23967.09
662.88	23852.40
663.03	23562.17
663.17	23548.13
663.31	23403.02
663.45	23517.70
663.60	23356.21
663.74	23426.42
663.88	23534.09
664.02	23590.26
664.17	23873.46
664.31	23396.00
664.45	23267.27
664.59	23424.08
664.73	23461.53
664.88	23208.75
665.02	23068.32
665.16	23417.06
665.30	23374.93
665.44	23068.32
665.59	23175.98
665.73	22951.29
665.87	23037.89
666.01	23363.23
666.15	23250.88
666.29	22902.14
666.44	23269.61
666.58	22623.62
666.72	22970.02
666.86	23232.16
667.00	23381.95
667.14	22899.80
667.28	22764.05
667.43	22733.62
667.57	22595.53
667.71	22354.46
667.85	22567.45
667.99	22625.96
668.13	22396.59
668.27	22654.05
668.41	22789.80
668.56	22368.50
668.70	22801.50
668.84	22530.00
668.98	22792.14
669.12	22700.86
669.26	22178.92
669.40	22314.67
669.54	22438.72
669.68	22333.39
669.82	22284.24
669.96	22230.41
670.10	22071.25
670.25	22335.73
670.39	22122.74
670.53	21694.43
670.67	21902.73
670.81	22148.49
670.95	22216.36
671.09	21909.75
671.23	22125.08
671.37	21806.77
671.51	22040.82
671.65	22061.89
671.79	21710.81
671.93	21930.82
672.07	21638.25
672.21	21436.97
672.35	21289.51
672.49	21387.82
672.63	21729.53
672.77	21174.83
672.91	21055.46
673.05	21605.49
673.19	21415.90
673.33	21289.51
673.47	21324.62
673.61	21394.84
673.75	21219.30
673.89	21263.77
674.03	21305.90
674.17	21259.09
674.31	21158.44
674.45	21113.97
674.59	21118.65
674.73	21165.46
674.87	20945.45
675.01	21151.42
675.15	20856.51
675.29	20774.60
675.43	20753.53
675.56	20645.87
675.70	20854.17
675.84	20329.89
675.98	20184.78
676.12	20575.65
676.26	20793.32
676.40	20442.24
676.54	20634.16
676.68	20126.27
676.82	20114.56
676.96	20278.40
677.10	20044.35
677.23	19957.75
677.37	19803.27
677.51	19894.55
677.65	20030.30
677.79	19707.31
677.93	19559.86
678.07	19590.28
678.21	19538.79
678.34	19480.28
678.48	19587.94
678.62	19571.56
678.76	19344.53
678.90	19278.99
679.04	19669.86
679.18	19517.73
679.31	19068.34
679.45	18963.02
679.59	18895.14
679.73	19028.56
679.87	19119.84
680.00	18721.95
680.14	18895.14
680.28	18841.31
680.42	18899.83
680.56	18913.87
680.70	18698.54
680.83	18848.33
680.97	18665.77
681.11	18443.42
681.25	18455.12
681.39	18333.42
681.52	18422.36
681.66	18457.46
681.80	17926.16
681.94	18288.95
682.07	18066.60
682.21	18349.80
682.35	18183.62
682.49	17841.90
682.62	17687.43
682.76	17792.75
682.90	17844.24
683.04	17806.80
683.17	17799.77
683.31	17998.72
683.45	17582.10
683.59	17610.19
683.72	17767.01
683.86	17537.63
684.00	17401.88
684.13	17174.85
684.27	17298.90
684.41	17486.14
684.55	17160.81
684.68	16926.75
684.82	16755.90
684.96	17326.99
685.09	17130.38
685.23	16950.16
685.37	16755.90
685.50	16931.44
685.64	16933.78
685.78	16898.67
685.91	16952.50
686.05	16821.43
686.19	16334.60
686.32	16367.37
686.46	16360.34
686.60	16482.05
686.73	16414.18
686.87	16381.41
687.01	16091.18
687.14	16123.95
687.28	16322.90
687.42	16280.77
687.55	16088.84
687.69	15878.19
687.82	15932.03
687.96	16161.40
688.10	15819.68
688.23	15971.82
688.37	15721.38
688.50	15686.27
688.64	15520.09
688.78	15665.21
688.91	15445.20
689.05	15468.60
689.18	15159.65
689.32	15431.15
689.46	15220.50
689.59	15073.05
689.73	15363.28
689.86	15166.67
690.00	15026.24
690.13	15054.33
690.27	14939.64
690.41	15023.90
690.54	15077.73
690.68	14944.32
690.81	15012.20
690.95	15061.35
691.08	14939.64
691.22	14867.08
691.35	14820.27
691.49	14719.63
691.62	14487.92
691.76	14462.17
691.89	14581.54
692.03	14375.57
692.16	14108.75
692.30	14204.71
692.43	14038.53
692.57	13944.91
692.70	14134.50
692.84	14270.25
692.97	13954.27
693.11	13998.74
693.24	13839.59
693.38	13788.10
693.51	13893.42
693.65	13928.53
693.78	13778.73
693.92	13432.33
694.05	13678.09
694.19	13612.56
694.32	13378.50
694.45	13437.02
694.59	13088.28
694.72	13193.60
694.86	13172.54
694.99	12915.08
695.13	12915.08
695.26	12947.84
695.39	12753.58
695.53	13008.70
695.66	13013.38
695.80	12872.95
695.93	12922.10
696.07	13111.68
696.20	12849.54
696.33	12746.56
696.47	12603.78
696.60	12524.21
696.73	12666.98
696.87	12711.45
697.00	12545.27
697.14	12400.16
697.27	12245.68
697.40	12269.09
697.54	12304.20
697.67	12131.00
697.80	12035.03
697.94	11964.82
698.07	11831.41
698.21	11960.14
698.34	12006.95
698.47	12156.74
698.61	11822.05
698.74	11946.09
698.87	11831.41
699.01	11740.13
699.14	11768.21
699.27	11812.68
699.40	11571.61
699.54	11531.82
699.67	11555.22
699.80	11477.99
699.94	11386.71
700.07	11438.20
700.20	10963.07
700.34	11124.57
700.47	11166.70
700.60	10850.72
700.73	11068.39
700.87	10890.51
701.00	11049.67
701.13	11147.97
701.26	10986.47
701.40	11049.67
701.53	10647.10
701.66	10864.77
701.79	10824.98
701.93	10747.74
702.06	10600.29
702.19	10363.89
702.32	10359.21
702.46	10544.11
702.59	10527.73
702.72	10328.78
702.85	10289.00
702.99	10246.87
703.12	9975.36
703.25	10087.71
703.38	10195.37
703.51	10171.97
703.65	10305.38
703.78	9987.07
703.91	10029.20
704.04	10120.48
704.17	10155.58
704.31	10097.07
704.44	10040.90
704.57	9970.68
704.70	9764.72
704.83	9561.09
704.96	9525.98
705.10	9509.60
705.23	9352.78
>>>>>End Processed Spectral Data<<<<<
