SpectraSuite Data File
++++++++++++++++++++++++++++++++++++
Date: Fri Oct 18 13:58:29 GMT-05:00 2013
User: bianchi
Dark Spectrum Present: No
Reference Spectrum Present: No
Number of Sampled Component Spectra: 1
Spectrometers: USB2+H05261
Integration Time (usec): 50000 (USB2+H05261)
Spectra Averaged: 1 (USB2+H05261)
Boxcar Smoothing: 0 (USB2+H05261)
Correct for Electrical Dark: No (USB2+H05261)
Strobe/Lamp Enabled: No (USB2+H05261)
Correct for Detector Non-linearity: No (USB2+H05261)
Correct for Stray Light: No (USB2+H05261)
Number of Pixels in Processed Spectrum: 2048
>>>>>Begin Processed Spectral Data<<<<<
365.73	0.00
365.92	0.00
366.12	0.00
366.32	0.00
366.52	0.00
366.72	0.00
366.91	0.00
367.11	0.00
367.31	0.00
367.51	0.00
367.70	0.00
367.90	0.00
368.10	0.00
368.30	0.00
368.49	0.00
368.69	0.00
368.89	0.00
369.09	0.00
369.28	0.00
369.48	0.00
369.68	0.00
369.87	0.00
370.07	0.00
370.27	0.00
370.47	0.00
370.66	95.96
370.86	110.01
371.06	110.01
371.25	175.54
371.45	102.98
371.65	86.60
371.84	91.28
372.04	135.75
372.24	142.77
372.44	266.82
372.63	126.39
372.83	248.10
373.03	241.08
373.22	170.86
373.42	191.92
373.62	152.13
373.81	205.97
374.01	149.79
374.21	203.63
374.40	215.33
374.60	248.10
374.79	257.46
374.99	266.82
375.19	255.12
375.38	287.89
375.58	257.46
375.78	215.33
375.97	212.99
376.17	257.46
376.37	266.82
376.56	299.59
376.76	311.29
376.95	339.38
377.15	217.67
377.35	325.33
377.54	234.05
377.74	243.42
377.93	248.10
378.13	234.05
378.33	294.91
378.52	243.42
378.72	203.63
378.91	266.82
379.11	290.23
379.31	313.63
379.50	280.86
379.70	145.11
379.89	304.27
380.09	294.91
380.28	259.80
380.48	271.50
380.68	220.01
380.87	276.18
381.07	301.93
381.26	351.08
381.46	355.76
381.65	355.76
381.85	348.74
382.04	362.78
382.24	271.50
382.43	353.42
382.63	360.44
382.83	400.23
383.02	285.55
383.22	266.82
383.41	344.06
383.61	346.40
383.80	390.87
384.00	386.19
384.19	390.87
384.39	344.06
384.58	358.10
384.78	388.53
384.97	372.15
385.17	315.97
385.36	390.87
385.56	346.40
385.75	386.19
385.95	454.06
386.14	393.21
386.34	330.02
386.53	402.57
386.72	393.21
386.92	423.64
387.11	472.79
387.31	400.23
387.50	397.89
387.70	409.59
387.89	369.80
388.09	365.12
388.28	489.17
388.48	468.11
388.67	526.62
388.86	430.66
389.06	468.11
389.25	433.00
389.45	482.15
389.64	418.96
389.84	531.30
390.03	479.81
390.22	538.32
390.42	517.26
390.61	500.87
390.81	503.22
391.00	540.66
391.19	519.60
391.39	540.66
391.58	482.15
391.78	475.13
391.97	528.96
392.16	533.64
392.36	568.75
392.55	636.63
392.75	566.41
392.94	517.26
393.13	521.94
393.33	517.26
393.52	433.00
393.71	606.20
393.91	521.94
394.10	517.26
394.29	564.07
394.49	538.32
394.68	596.84
394.88	552.37
395.07	575.77
395.26	564.07
395.46	571.09
395.65	594.50
395.84	601.52
396.04	697.48
396.23	603.86
396.42	643.65
396.62	613.22
396.81	596.84
397.00	648.33
397.19	601.52
397.39	601.52
397.58	688.12
397.77	676.41
397.97	727.91
398.16	648.33
398.35	662.37
398.55	676.41
398.74	730.25
398.93	755.99
399.12	636.63
399.32	720.88
399.51	657.69
399.70	767.70
399.90	653.01
400.09	755.99
400.28	711.52
400.47	821.53
400.67	826.21
400.86	727.91
401.05	828.55
401.24	697.48
401.44	823.87
401.63	702.16
401.82	840.25
402.01	786.42
402.21	858.98
402.40	830.89
402.59	784.08
402.78	833.23
402.97	812.17
403.17	861.32
403.36	830.89
403.55	938.55
403.74	835.57
403.93	873.02
404.13	938.55
404.32	933.87
404.51	901.11
404.70	945.58
404.89	922.17
405.09	990.05
405.28	933.87
405.47	884.72
405.66	957.28
405.85	950.26
406.05	1046.22
406.24	938.55
406.43	945.58
406.62	952.60
406.81	1064.94
407.00	999.41
407.20	971.32
407.39	929.19
407.58	1015.79
407.77	1090.69
407.96	1015.79
408.15	1076.65
408.34	1018.13
408.54	1013.45
408.73	1093.03
408.92	1064.94
409.11	1081.33
409.30	1188.99
409.49	1111.75
409.68	1116.44
409.87	1123.46
410.07	1130.48
410.26	1219.42
410.45	1163.25
410.64	1179.63
410.83	1132.82
411.02	1277.93
411.21	1240.48
411.40	1167.93
411.59	1233.46
411.78	1196.01
411.98	1249.85
412.17	1191.33
412.36	1158.57
412.55	1348.15
412.74	1282.61
412.93	1376.24
413.12	1275.59
413.31	1437.09
413.50	1411.34
413.69	1383.26
413.88	1416.02
414.07	1497.94
414.26	1401.98
414.45	1439.43
414.64	1458.15
414.83	1472.20
415.02	1406.66
415.22	1575.18
415.41	1565.82
415.60	1533.05
415.79	1593.90
415.98	1657.10
416.17	1605.61
416.36	1535.39
416.55	1626.67
416.74	1561.14
416.93	1685.19
417.12	1619.65
417.31	1640.72
417.50	1792.85
417.69	1783.49
417.88	1692.21
418.07	1685.19
418.26	1678.16
418.45	1750.72
418.64	1846.68
418.83	1706.25
419.02	1722.63
419.21	1799.87
419.39	1741.36
419.58	1884.13
419.77	1764.76
419.96	1867.75
420.15	1895.83
420.34	1816.26
420.53	1802.21
420.72	1900.52
420.91	1839.66
421.10	2022.22
421.29	1916.90
421.48	1886.47
421.67	1944.99
421.86	1914.56
422.05	1947.33
422.24	2008.18
422.43	1935.62
422.61	1912.22
422.80	1949.67
422.99	2029.24
423.18	2031.58
423.37	2073.71
423.56	1984.77
423.75	2045.63
423.94	1942.64
424.13	1870.09
424.32	1870.09
424.50	2064.35
424.69	2057.33
424.88	2101.80
425.07	2024.56
425.26	1923.92
425.45	2092.44
425.64	2097.12
425.83	2043.29
426.01	2148.61
426.20	2005.84
426.39	2094.78
426.58	2097.12
426.77	2097.12
426.96	2092.44
427.15	2104.14
427.33	2132.23
427.52	2094.78
427.71	2204.78
427.90	2083.08
428.09	2188.40
428.28	2195.42
428.46	2223.51
428.65	2087.76
428.84	2256.28
429.03	2256.28
429.22	2218.83
429.40	2265.64
429.59	2160.31
429.78	2246.91
429.97	2186.06
430.16	2132.23
430.34	2286.70
430.53	2307.77
430.72	2455.22
430.91	2410.75
431.10	2193.08
431.28	2256.28
431.47	2331.17
431.66	2485.65
431.85	2361.60
432.03	2518.42
432.22	2356.92
432.41	2303.09
432.60	2495.01
432.79	2385.01
432.97	2312.45
433.16	2413.09
433.35	2424.80
433.54	2424.80
433.72	2450.54
433.91	2415.43
434.10	2403.73
434.28	2487.99
434.47	2588.63
434.66	2548.84
434.85	2619.06
435.03	2473.95
435.22	2429.48
435.41	2686.94
435.59	2569.91
435.78	2710.34
435.97	2548.84
436.16	2534.80
436.34	2635.44
436.53	2675.23
436.72	2708.00
436.90	2637.78
437.09	2534.80
437.28	2747.79
437.46	2700.98
437.65	2818.00
437.84	2736.09
438.02	2665.87
438.21	2761.83
438.40	2787.58
438.58	2813.32
438.77	2953.76
438.96	2988.86
439.14	2918.65
439.33	2911.63
439.52	2949.08
439.70	2911.63
439.89	2958.44
440.08	3091.85
440.26	3094.19
440.45	2986.52
440.63	3002.91
440.82	3152.70
441.01	3042.70
441.19	3077.80
441.38	3021.63
441.57	3260.37
441.75	3187.81
441.94	3255.69
442.12	3400.80
442.31	3253.34
442.50	3279.09
442.68	3243.98
442.87	3384.41
443.05	3375.05
443.24	3316.54
443.43	3304.84
443.61	3379.73
443.80	3372.71
443.98	3361.01
444.17	3208.87
444.35	3419.52
444.54	3459.31
444.73	3389.10
444.91	3321.22
445.10	3372.71
445.28	3368.03
445.47	3417.18
445.65	3372.71
445.84	3463.99
446.02	3440.59
446.21	3503.78
446.39	3332.92
446.58	3405.48
446.77	3438.25
446.95	3440.59
447.14	3412.50
447.32	3454.63
447.51	3424.20
447.69	3480.38
447.88	3440.59
448.06	3602.08
448.25	3562.30
448.43	3585.70
448.62	3569.32
448.80	3559.95
448.99	3522.51
449.17	3480.38
449.36	3447.61
449.54	3599.74
449.73	3562.30
449.91	3616.13
450.10	3684.00
450.28	3541.23
450.46	3691.02
450.65	3777.62
450.83	3716.77
451.02	3772.94
451.20	3791.67
451.39	3789.33
451.57	3880.61
451.76	3782.31
451.94	3747.20
452.13	3674.64
452.31	3735.50
452.49	3763.58
452.68	3789.33
452.86	3939.12
453.05	3794.01
453.23	3833.80
453.42	3817.41
453.60	3866.56
453.78	3925.08
453.97	3974.23
454.15	3815.07
454.34	3838.48
454.52	4060.83
454.70	4044.45
454.89	4088.92
455.07	4016.36
455.26	4007.00
455.44	4016.36
455.62	4191.90
455.81	4056.15
455.99	4079.55
456.17	4159.13
456.36	4107.64
456.54	4084.23
456.73	4187.22
456.91	4224.67
457.09	4297.22
457.28	4304.25
457.46	4219.99
457.64	4329.99
457.83	4365.10
458.01	4299.56
458.19	4362.76
458.38	4369.78
458.56	4353.40
458.74	4315.95
458.93	4318.29
459.11	4351.06
459.29	4294.88
459.48	4322.97
459.66	4470.42
459.84	4514.89
460.03	4456.38
460.21	4559.36
460.39	4535.96
460.57	4470.42
460.76	4507.87
460.94	4725.54
461.12	4512.55
461.31	4589.79
461.49	4622.56
461.67	4491.49
461.85	4608.51
462.04	4599.15
462.22	4793.42
462.40	4774.69
462.59	4468.08
462.77	4578.09
462.95	4720.86
463.13	4620.22
463.32	4674.05
463.50	4868.31
463.68	4980.66
463.86	4751.29
464.05	4671.71
464.23	4856.61
464.41	4964.28
464.59	4807.46
464.78	4840.23
464.96	4865.97
465.14	4767.67
465.32	4894.06
465.50	4875.34
465.69	4931.51
465.87	4980.66
466.05	4971.30
466.23	5057.90
466.41	4964.28
466.60	5025.13
466.78	4947.89
466.96	5011.09
467.14	5095.35
467.32	5144.50
467.51	5167.90
467.69	5025.13
467.87	5191.31
468.05	5071.94
468.23	4952.57
468.41	5135.14
468.60	5088.32
468.78	5078.96
468.96	5020.45
469.14	5284.93
469.32	5399.62
469.50	5071.94
469.69	5270.89
469.87	5469.83
470.05	5345.78
470.23	5390.25
470.41	5364.51
470.59	5401.96
470.77	5298.97
470.95	5507.28
471.14	5568.13
471.32	5500.26
471.50	5565.79
471.68	5530.69
471.86	5612.60
472.04	5647.71
472.22	5530.69
472.40	5423.02
472.58	5741.33
472.77	5654.73
472.95	5790.49
473.13	5879.43
473.31	5769.42
473.49	5696.86
473.67	5820.91
473.85	5937.94
474.03	5977.73
474.21	5928.58
474.39	5975.39
474.57	6064.33
474.75	6012.84
474.93	6076.03
475.12	6054.97
475.30	6284.34
475.48	6153.27
475.66	6242.21
475.84	6214.12
476.02	6221.14
476.20	6066.67
476.38	6274.98
476.56	6530.09
476.74	6326.47
476.92	6431.79
477.10	6314.77
477.28	6597.97
477.46	6778.19
477.64	6633.08
477.82	6754.79
478.00	7117.57
478.18	6925.65
478.36	6850.75
478.54	7066.08
478.72	7021.61
478.90	7164.38
479.08	7059.06
479.26	7178.42
479.44	7290.77
479.62	7215.87
479.80	7524.82
479.98	7311.83
480.16	7527.16
480.34	7468.65
480.52	7545.89
480.70	7545.89
480.88	7410.14
481.06	7653.55
481.24	7639.51
481.41	7749.51
481.59	8011.65
481.77	7971.86
481.95	7894.63
482.13	7978.89
482.31	8058.46
482.49	8243.37
482.67	8044.42
482.85	8318.26
483.03	8416.57
483.21	8624.87
483.39	8568.70
483.57	8580.40
483.74	8561.68
483.92	8809.78
484.10	8575.72
484.28	8706.79
484.46	8681.05
484.64	9085.96
484.82	9055.53
485.00	9121.07
485.18	9097.66
485.35	9345.76
485.53	9404.27
485.71	9254.48
485.89	9479.17
486.07	9427.68
486.25	9598.54
486.43	9710.88
486.61	9600.88
486.78	9650.03
486.96	9912.17
487.14	10202.40
487.32	9879.40
487.50	10223.46
487.68	10040.90
487.85	10111.11
488.03	10331.12
488.21	10464.54
488.39	10490.28
488.57	10555.82
488.75	10569.86
488.92	10817.96
489.10	10862.43
489.28	10803.91
489.46	11131.59
489.64	10970.09
489.81	11335.21
489.99	11117.54
490.17	11173.72
490.35	11435.86
490.53	11297.77
490.70	11468.62
490.88	11669.91
491.06	11669.91
491.24	11676.93
491.41	11669.91
491.59	11910.99
491.77	11920.35
491.95	12231.64
492.13	12112.27
492.30	11953.12
492.48	12343.99
492.66	12243.34
492.84	12219.94
493.01	12379.09
493.19	12208.23
493.37	12692.73
493.54	12746.56
493.72	12894.01
493.90	12753.58
494.08	12791.03
494.25	13004.02
494.43	12968.91
494.61	13046.15
494.79	13202.96
494.96	12996.99
495.14	13252.11
495.32	13600.85
495.49	13411.27
495.67	13483.83
495.85	13483.83
496.02	13652.34
496.20	13774.05
496.38	13827.88
496.55	13870.01
496.73	13991.72
496.91	13848.95
497.09	14459.83
497.26	14387.27
497.44	14164.92
497.62	14387.27
497.79	14476.21
497.97	14417.70
498.14	14553.45
498.32	14925.60
498.50	14567.49
498.67	14827.29
498.85	14689.20
499.03	15007.52
499.20	14869.42
499.38	15005.17
499.56	15009.86
499.73	15272.00
499.91	15122.20
500.08	15229.87
500.26	15290.72
500.44	15293.06
500.61	15515.41
500.79	15145.61
500.97	15384.34
501.14	15742.44
501.32	15826.70
501.49	15634.78
501.67	15683.93
501.84	15382.00
502.02	15852.45
502.20	15978.84
502.37	15983.52
502.55	15845.43
502.72	16276.09
502.90	16074.80
503.07	16051.39
503.25	16203.53
503.43	16250.34
503.60	16418.86
503.78	16308.85
503.95	16528.86
504.13	16678.66
504.30	16446.94
504.48	16346.30
504.65	16601.42
504.83	16751.21
505.01	17032.08
505.18	16849.52
505.36	16961.86
505.53	16821.43
505.71	16854.20
505.88	17076.55
506.06	17060.16
506.23	17326.99
506.41	17291.88
506.58	17366.78
506.76	17324.65
506.93	17212.30
507.11	17111.66
507.28	17357.41
507.46	17355.07
507.63	17631.26
507.81	17734.24
507.98	17547.00
508.16	17942.55
508.33	17832.54
508.50	17919.14
508.68	17743.60
508.85	17928.50
509.03	18106.38
509.20	18031.49
509.38	18066.60
509.55	17944.89
509.73	18195.32
509.90	18279.58
510.08	18178.94
510.25	18452.78
510.42	18284.26
510.60	18665.77
510.77	18672.79
510.95	18565.13
511.12	18647.05
511.30	18499.59
511.47	18471.51
511.64	18719.60
511.82	18710.24
511.99	19091.75
512.17	18752.37
512.34	18810.89
512.51	18911.53
512.69	19028.56
512.86	18881.10
513.04	19098.77
513.21	19311.76
513.38	19599.65
513.56	19344.53
513.73	19398.36
513.90	19262.61
514.08	19669.86
514.25	19552.84
514.43	19695.61
514.60	19459.21
514.77	19616.03
514.95	19709.65
515.12	19763.48
515.29	19510.71
515.47	19433.47
515.64	19995.20
515.81	20119.24
515.99	19985.83
516.16	20238.61
516.33	20063.07
516.51	19983.49
516.68	20444.58
516.85	20404.79
517.03	20194.14
517.20	20467.98
517.37	20283.08
517.54	20599.05
517.72	20168.40
517.89	20549.90
518.06	20360.32
518.24	20404.79
518.41	20388.41
518.58	20585.01
518.75	20535.86
518.93	20776.94
519.10	20765.23
519.27	20683.31
519.45	20809.70
519.62	20945.45
519.79	21029.71
519.96	21022.69
520.14	21130.36
520.31	20971.20
520.48	21392.50
520.65	21462.71
520.83	21497.82
521.00	21518.89
521.17	21214.62
521.34	21289.51
521.52	21525.91
521.69	21291.85
521.86	21860.60
522.03	21717.83
522.20	21493.14
522.38	21724.85
522.55	21687.40
522.72	21617.19
522.89	21614.85
523.07	21937.84
523.24	22263.18
523.41	22080.61
523.58	21647.61
523.75	22167.21
523.92	22059.55
524.10	21867.63
524.27	22047.85
524.44	22047.85
524.61	22183.60
524.78	22661.07
524.96	22043.17
525.13	22256.15
525.30	22169.55
525.47	22122.74
525.64	22452.76
525.81	22181.26
525.98	22693.83
526.16	22239.77
526.33	22368.50
526.50	22941.93
526.67	22553.40
526.84	22782.77
527.01	22590.85
527.18	23056.62
527.36	22719.58
527.53	22618.94
527.70	23335.14
527.87	23276.63
528.04	23283.65
528.21	23147.90
528.38	23138.54
528.55	23117.47
528.72	23042.57
528.89	23351.52
529.07	23087.04
529.24	23133.86
529.41	23180.67
529.58	23442.81
529.75	23208.75
529.92	23091.73
530.09	23328.12
530.26	23325.78
530.43	23613.66
530.60	23187.69
530.77	23484.94
530.94	23824.31
531.11	23426.42
531.28	23733.03
531.46	23468.55
531.63	23957.72
531.80	23447.49
531.97	24049.00
532.14	23941.34
532.31	23681.54
532.48	24161.35
532.65	23828.99
532.82	24034.96
532.99	24320.51
533.16	23960.06
533.33	24219.86
533.50	24350.93
533.67	24271.36
533.84	24166.03
534.01	24100.50
534.18	24126.24
534.35	24280.72
534.52	24212.84
534.69	24573.28
534.86	24236.25
535.03	24187.10
535.20	24402.43
535.37	24512.43
535.54	24423.49
535.71	24147.31
535.88	24807.34
536.05	24725.42
536.22	24842.45
536.38	24898.62
536.55	24746.48
536.72	24687.97
536.89	24797.98
537.06	24673.93
537.23	24755.85
537.40	24620.10
537.57	24861.17
537.74	25013.31
537.91	25120.97
538.08	25263.74
538.25	24884.58
538.42	25127.99
538.59	24917.34
538.75	24884.58
538.92	24950.11
539.09	24926.71
539.26	24861.17
539.43	25158.42
539.60	25167.78
539.77	25259.06
539.94	25605.46
540.11	25551.63
540.28	25591.42
540.44	25291.83
540.61	25521.20
540.78	25600.78
540.95	25493.12
541.12	25542.27
541.29	25635.89
541.46	25343.32
541.62	25776.32
541.79	25429.92
541.96	25380.77
542.13	25708.44
542.30	25738.87
542.47	25668.66
542.63	26026.76
542.80	25862.92
542.97	26108.68
543.14	25902.71
543.31	26082.93
543.48	26148.46
543.64	26445.71
543.81	26438.69
543.98	26389.54
544.15	26284.22
544.32	26291.24
544.48	26501.89
544.65	26176.55
544.82	26457.42
544.99	25773.98
545.16	26321.66
545.32	26274.85
545.49	26490.18
545.66	26373.16
545.83	26445.71
546.00	26691.47
546.16	26455.08
546.33	26277.19
546.50	26356.77
546.67	26391.88
546.83	26785.09
547.00	26511.25
547.17	26782.75
547.34	26710.19
547.50	26665.72
547.67	26962.97
547.84	26899.78
548.00	26923.18
548.17	27339.80
548.34	26632.96
548.51	27400.65
548.67	27147.87
548.84	27377.25
549.01	26904.46
549.18	26682.11
549.34	26988.72
549.51	26663.38
549.68	27037.87
549.84	26888.07
550.01	26993.40
550.18	26969.99
550.34	27660.45
550.51	27470.87
550.68	27573.85
550.84	27269.58
551.01	27302.35
551.18	27185.32
551.34	27262.56
551.51	26906.80
551.68	27187.66
551.84	27529.38
552.01	27721.30
552.18	27601.94
552.34	27618.32
552.51	27688.54
552.68	27527.04
552.84	27508.32
553.01	27578.53
553.18	27550.45
553.34	27527.04
553.51	27412.35
553.67	27690.88
553.84	27889.82
554.01	27835.99
554.17	27824.29
554.34	27814.93
554.51	27608.96
554.67	28018.55
554.84	27669.81
555.00	28149.62
555.17	27711.94
555.33	27969.40
555.50	27868.76
555.67	27999.83
555.83	27878.12
556.00	27985.79
556.16	28018.55
556.33	27728.33
556.50	27854.72
556.66	28435.17
556.83	27826.63
556.99	28299.42
557.16	28671.56
557.32	28212.82
557.49	28238.56
557.65	28013.87
557.82	28339.21
557.98	28320.48
558.15	28236.22
558.32	28371.97
558.48	27950.68
558.65	28369.63
558.81	28360.27
558.98	28404.74
559.14	28219.84
559.31	28236.22
559.47	28180.05
559.64	28107.49
559.80	28140.26
559.97	28486.66
560.13	28198.77
560.30	28589.64
560.46	28360.27
560.63	28615.39
560.79	28371.97
560.96	28292.40
561.12	28856.46
561.29	28357.93
561.45	28479.64
561.61	28631.77
561.78	28947.75
561.94	28292.40
562.11	28819.02
562.27	28554.54
562.44	28617.73
562.60	28905.62
562.77	28514.75
562.93	28287.71
563.10	29078.82
563.26	28804.97
563.42	29104.56
563.59	28858.81
563.75	29130.31
563.92	29146.69
564.08	28868.17
564.24	28601.35
564.41	28648.16
564.57	28713.69
564.74	28563.90
564.90	29277.76
565.07	29017.96
565.23	28828.38
565.39	28582.62
565.56	28877.53
565.72	28919.66
565.88	28699.65
566.05	28697.31
566.21	29076.48
566.38	28975.83
566.54	28823.70
566.70	28973.49
566.87	29301.17
567.03	29081.16
567.19	29453.30
567.36	28821.36
567.52	29261.38
567.68	29212.23
567.85	29017.96
568.01	29476.71
568.17	28786.25
568.34	29160.73
568.50	29350.32
568.66	29221.59
568.83	29516.50
568.99	29160.73
569.15	29235.63
569.32	29083.50
569.48	28809.65
569.64	29165.42
569.81	29376.06
569.97	29132.65
570.13	29546.92
570.30	29305.85
570.46	29099.88
570.62	29003.92
570.78	29219.25
570.95	29195.84
571.11	29109.24
571.27	28781.57
571.43	29092.86
571.60	29560.97
571.76	29362.02
571.92	29333.93
572.09	29076.48
572.25	29294.14
572.41	29474.37
572.57	29418.19
572.74	29502.45
572.90	29088.18
573.06	29160.73
573.22	29198.18
573.38	29071.79
573.55	29528.20
573.71	29792.68
573.87	29542.24
574.03	29511.81
574.20	29415.85
574.36	29020.30
574.52	29186.48
574.68	29450.96
574.84	29247.33
575.01	29364.36
575.17	29298.83
575.33	29481.39
575.49	29565.65
575.65	29280.10
575.82	29614.80
575.98	29366.70
576.14	29460.32
576.30	29502.45
576.46	29010.94
576.62	29177.12
576.79	29479.05
576.95	29560.97
577.11	29692.04
577.27	29670.97
577.43	29722.46
577.59	29333.93
577.75	29535.22
577.92	29469.69
578.08	29106.90
578.24	29404.15
578.40	29446.28
578.56	29680.33
578.72	29645.23
578.88	29867.58
579.04	30005.67
579.21	29319.89
579.37	29783.32
579.53	29741.19
579.69	29336.27
579.85	29336.27
580.01	29715.44
580.17	29291.80
580.33	29575.01
580.49	29582.03
580.65	29476.71
580.82	29509.47
580.98	29359.68
581.14	29809.06
581.30	29556.28
581.46	29612.46
581.62	29102.22
581.78	29252.02
581.94	29795.02
582.10	29516.50
582.26	29237.97
582.42	29673.31
582.58	29862.90
582.74	29373.72
582.90	29724.80
583.06	29759.91
583.22	29418.19
583.38	29549.26
583.54	29305.85
583.70	29792.68
583.86	29865.24
584.02	29453.30
584.18	29827.79
584.34	29614.80
584.50	29895.66
584.66	29961.20
584.82	29663.95
584.98	29497.77
585.14	29741.19
585.30	29626.50
585.46	29647.57
585.62	29284.78
585.78	29928.43
585.94	29504.79
586.10	29694.38
586.26	29905.02
586.42	30008.01
586.58	29942.47
586.74	29600.76
586.90	29462.66
587.06	29792.68
587.22	29748.21
587.38	29324.57
587.54	29617.14
587.70	29853.53
587.86	29795.02
588.02	29947.15
588.18	29998.65
588.34	29799.70
588.49	29565.65
588.65	29291.80
588.81	30185.89
588.97	29752.89
589.13	30050.14
589.29	29584.37
589.45	29207.55
589.61	30146.10
589.77	29848.85
589.93	29928.43
590.08	29923.75
590.24	30052.48
590.40	30228.02
590.56	30141.42
590.72	29963.54
590.88	29738.85
591.04	29570.33
591.20	30015.03
591.35	30129.72
591.51	30218.66
591.67	30412.92
591.83	30239.72
591.99	30132.06
592.15	30171.85
592.31	30396.54
592.46	30045.46
592.62	29895.66
592.78	30022.05
592.94	30242.06
593.10	29785.66
593.26	29993.97
593.41	30221.00
593.57	30141.42
593.73	30581.44
593.89	30312.28
594.05	30047.80
594.20	30225.68
594.36	29989.28
594.52	29909.71
594.68	30323.98
594.84	30059.50
594.99	30106.31
595.15	30199.93
595.31	29956.52
595.47	29851.19
595.62	30401.22
595.78	30256.11
595.94	29965.88
596.10	30181.21
596.25	30082.91
596.41	29780.98
596.57	30232.70
596.73	29869.92
596.88	30153.12
597.04	30422.28
597.20	30195.25
597.36	30249.08
597.51	30469.09
597.67	30333.34
597.83	29818.42
597.99	30668.04
598.14	30008.01
598.30	30148.44
598.46	30370.79
598.61	30110.99
598.77	29848.85
598.93	30221.00
599.09	30380.15
599.24	30445.69
599.40	30387.18
599.56	30403.56
599.71	30433.99
599.87	30321.64
600.03	30497.18
600.18	29823.11
600.34	30022.05
600.50	30164.82
600.65	30050.14
600.81	30448.03
600.97	30256.11
601.12	30604.84
601.28	30181.21
601.44	30848.26
601.59	30394.20
601.75	29986.94
601.91	30106.31
602.06	30059.50
602.22	30213.98
602.37	29968.22
602.53	30216.32
602.69	30403.56
602.84	30452.71
603.00	30323.98
603.16	30515.90
603.31	30527.61
603.47	30263.13
603.62	30270.15
603.78	29762.25
603.94	30183.55
604.09	30108.65
604.25	30082.91
604.40	30015.03
604.56	30335.68
604.71	30312.28
604.87	30321.64
605.03	30347.39
605.18	30101.63
605.34	30192.91
605.49	30075.88
605.65	30024.39
605.80	29834.81
605.96	30127.38
606.12	29820.77
606.27	30239.72
606.43	30082.91
606.58	30375.47
606.74	29848.85
606.89	30134.40
607.05	30146.10
607.20	30492.50
607.36	30396.54
607.51	30036.09
607.67	29914.39
607.82	29968.22
607.98	29879.28
608.13	29989.28
608.29	29900.34
608.44	30178.87
608.60	29916.73
608.75	30082.91
608.91	30059.50
609.06	29979.92
609.22	30092.27
609.37	29764.59
609.53	29743.53
609.68	29668.63
609.84	29991.62
609.99	30359.09
610.15	29780.98
610.30	29589.05
610.46	29862.90
610.61	30265.47
610.76	29832.47
610.92	29902.68
611.07	29998.65
611.23	29614.80
611.38	29890.98
611.54	29823.11
611.69	29851.19
611.84	29420.53
612.00	29818.42
612.15	29661.61
612.31	29656.93
612.46	29759.91
612.62	29589.05
612.77	29905.02
612.92	29954.18
613.08	29867.58
613.23	29848.85
613.39	29785.66
613.54	29654.59
613.69	29823.11
613.85	29624.16
614.00	30080.56
614.15	29996.31
614.31	29600.76
614.46	29708.42
614.62	29460.32
614.77	29614.80
614.92	29322.23
615.08	29717.78
615.23	29727.14
615.38	29565.65
615.54	29362.02
615.69	29305.85
615.84	29252.02
616.00	29439.26
616.15	29542.24
616.30	29556.28
616.46	29422.87
616.61	29282.44
616.76	29846.51
616.92	29762.25
617.07	29617.14
617.22	29289.46
617.37	29172.44
617.53	29036.69
617.68	29359.68
617.83	29331.59
617.99	29069.45
618.14	29184.14
618.29	29743.53
618.45	29324.57
618.60	28957.11
618.75	29415.85
618.90	29427.56
619.06	29497.77
619.21	29242.65
619.36	29067.11
619.51	28379.00
619.67	28800.29
619.82	28769.86
619.97	29223.93
620.12	28872.85
620.28	28943.06
620.43	29153.71
620.58	29303.51
620.73	29212.23
620.89	29308.19
621.04	29329.25
621.19	29291.80
621.34	29156.05
621.49	29048.39
621.65	28711.35
621.80	28755.82
621.95	29111.58
622.10	28758.16
622.25	28842.42
622.41	28797.95
622.56	28779.23
622.71	28907.96
622.86	28943.06
623.01	28849.44
623.16	28776.89
623.32	28856.46
623.47	28769.86
623.62	28797.95
623.77	28723.05
623.92	28896.25
624.07	28638.80
624.23	29111.58
624.38	28582.62
624.53	28739.44
624.68	28542.83
624.83	28870.51
624.98	28683.27
625.13	28701.99
625.29	28835.40
625.44	28524.11
625.59	28460.91
625.74	27810.25
625.89	28510.07
626.04	28273.67
626.19	28699.65
626.34	28505.38
626.49	28184.73
626.65	28451.55
626.80	28732.42
626.95	28423.47
627.10	28067.70
627.25	28327.50
627.40	28388.36
627.55	28065.36
627.70	27938.97
627.85	28009.19
628.00	28231.54
628.15	28287.71
628.30	27953.02
628.45	27885.14
628.60	27901.53
628.76	28343.89
628.91	27969.40
629.06	28294.74
629.21	27835.99
629.36	28126.22
629.51	28006.85
629.66	27924.93
629.81	28201.11
629.96	27908.55
630.11	27920.25
630.26	28011.53
630.41	27894.50
630.56	27749.39
630.71	27814.93
630.86	27683.86
631.01	27646.41
631.16	28046.64
631.31	27772.80
631.46	27501.29
631.61	28063.02
631.76	27419.38
631.91	27742.37
632.06	27819.61
632.21	27592.58
632.36	27779.82
632.51	27725.99
632.66	27503.64
632.81	27475.55
632.96	27468.53
633.10	27639.39
633.25	27407.67
633.40	27667.47
633.55	27814.93
633.70	27489.59
633.85	27632.36
634.00	27597.26
634.15	27126.81
634.30	27281.28
634.45	27321.07
634.60	27548.11
634.75	27367.88
634.90	27211.07
635.05	27889.82
635.19	27798.54
635.34	27718.96
635.49	27236.81
635.64	27480.23
635.79	27543.42
635.94	27058.93
636.09	27222.77
636.24	27201.71
636.39	27007.44
636.53	27311.71
636.68	27058.93
636.83	27538.74
636.98	27651.09
637.13	27365.54
637.28	27454.48
637.43	27421.72
637.57	27145.53
637.72	27094.04
637.87	27047.23
638.02	27292.99
638.17	27150.21
638.32	26754.66
638.46	27110.43
638.61	26852.97
638.76	27016.80
638.91	26534.65
639.06	26712.53
639.20	26752.32
639.35	27089.36
639.50	26813.18
639.65	27157.24
639.80	26930.20
639.94	26995.74
640.09	27206.39
640.24	27070.64
640.39	26595.51
640.54	26532.31
640.68	26347.41
640.83	26623.59
640.98	26855.31
641.13	26593.17
641.27	26794.45
641.42	26529.97
641.57	26705.51
641.72	26792.11
641.86	27033.19
642.01	26492.52
642.16	26408.26
642.31	26349.75
642.45	26419.97
642.60	26157.83
642.75	26632.96
642.90	26539.33
643.04	26529.97
643.19	26295.92
643.34	26668.06
643.48	26384.86
643.63	26558.06
643.78	26539.33
643.93	26867.01
644.07	26237.41
644.22	26497.20
644.37	26293.58
644.51	26302.94
644.66	25916.75
644.81	26010.37
644.95	26043.14
645.10	26103.99
645.25	25895.69
645.39	26314.64
645.54	26190.59
645.69	26307.62
645.83	26064.21
645.98	26555.72
646.13	26534.65
646.27	26171.87
646.42	25888.67
646.57	26340.39
646.71	26033.78
646.86	25961.22
647.00	25888.67
647.15	26022.08
647.30	25984.63
647.44	25771.64
647.59	25970.58
647.74	25919.09
647.88	25996.33
648.03	26071.23
648.17	26258.47
648.32	26178.89
648.47	26071.23
648.61	25790.36
648.76	26071.23
648.90	25862.92
649.05	25640.57
649.20	25659.29
649.34	25666.31
649.49	25511.84
649.63	25743.55
649.78	25682.70
649.92	25146.72
650.07	25762.28
650.21	25642.91
650.36	25685.04
650.51	25797.38
650.65	25659.29
650.80	25582.06
650.94	25626.53
651.09	25610.14
651.23	25413.54
651.38	25483.75
651.52	25586.74
651.67	25432.26
651.81	25752.91
651.96	25720.15
652.10	25523.54
652.25	25582.06
652.39	25724.83
652.54	25535.24
652.68	25324.60
652.83	25408.86
652.97	25649.93
653.12	25233.32
653.26	25453.33
653.41	25287.15
653.55	25366.73
653.70	25170.12
653.84	25425.24
653.99	25479.07
654.13	25048.41
654.27	25294.17
654.42	24840.11
654.56	25284.81
654.71	25221.61
654.85	25104.59
655.00	25219.27
655.14	25429.92
655.29	25074.16
655.43	25053.09
655.57	25015.65
655.72	24919.68
655.86	25127.99
656.01	25322.26
656.15	24905.64
656.30	24847.13
656.44	24781.59
656.58	24697.33
656.73	24929.05
656.87	25123.31
657.01	24891.60
657.16	24982.88
657.30	24919.68
657.45	25083.52
657.59	25015.65
657.73	24659.88
657.88	24828.40
658.02	24671.59
658.16	24716.06
658.31	24603.71
658.45	24648.18
658.60	24130.92
658.74	24360.30
658.88	24482.00
659.03	24723.08
659.17	24514.77
659.31	24627.12
659.46	24769.89
659.60	24594.35
659.74	24737.12
659.89	24643.50
660.03	24121.56
660.17	24947.77
660.32	24161.35
660.46	24334.55
660.60	24041.98
660.74	24231.57
660.89	24095.82
661.03	24116.88
661.17	24037.30
661.32	24266.67
661.46	24449.24
661.60	23934.32
661.74	24128.58
661.89	24535.84
662.03	24233.91
662.17	23906.23
662.31	23920.28
662.46	24039.64
662.60	23728.35
662.74	23913.25
662.88	24006.87
663.03	23667.50
663.17	23800.91
663.31	23669.84
663.45	23733.03
663.60	23510.68
663.74	23751.76
663.88	23644.09
664.02	23309.40
664.17	23770.48
664.31	23468.55
664.45	23536.43
664.59	23754.10
664.73	23711.97
664.88	23456.85
665.02	23234.50
665.16	23208.75
665.30	23428.76
665.44	23117.47
665.59	23122.15
665.73	23150.24
665.87	22782.77
666.01	23152.58
666.15	23426.42
666.29	23049.60
666.44	23129.17
666.58	23051.94
666.72	22988.74
666.86	23445.15
667.00	23157.26
667.14	22757.03
667.28	22941.93
667.43	22560.42
667.57	22836.61
667.71	22693.83
667.85	22764.05
667.99	22321.69
668.13	22717.24
668.27	22530.00
668.41	22515.95
668.56	22522.98
668.70	22707.88
668.84	22632.98
668.98	22328.71
669.12	22422.33
669.26	22494.89
669.40	22373.18
669.54	21965.93
669.68	22148.49
669.82	22232.75
669.96	22190.62
670.10	21982.31
670.25	22272.54
670.39	22384.88
670.53	21965.93
670.67	22012.74
670.81	22080.61
670.95	21951.88
671.09	21771.66
671.23	21900.39
671.37	21991.67
671.51	22108.70
671.65	21696.77
671.79	21766.98
671.93	21593.78
672.07	21727.19
672.21	21701.45
672.35	21579.74
672.49	21483.78
672.63	21572.72
672.77	21675.70
672.91	21429.94
673.05	21462.71
673.19	21523.57
673.33	21282.49
673.47	21010.99
673.61	21191.21
673.75	21226.32
673.89	21324.62
674.03	21429.94
674.17	21018.01
674.31	21118.65
674.45	20776.94
674.59	20931.41
674.73	20992.26
674.87	20769.91
675.01	20819.07
675.15	20636.50
675.29	20648.21
675.43	20889.28
675.56	20851.83
675.70	20856.51
675.84	20856.51
675.98	20210.53
676.12	20650.55
676.26	20798.00
676.40	20568.63
676.54	20002.22
676.68	20355.64
676.82	19824.34
676.96	20144.99
677.10	20135.63
677.23	20079.46
677.37	20236.27
677.51	20004.56
677.65	19941.36
677.79	19616.03
677.93	19749.44
678.07	19711.99
678.21	19496.66
678.34	19796.25
678.48	19440.49
678.62	19772.85
678.76	19400.70
678.90	19307.08
679.04	19531.77
679.18	19211.12
679.31	19260.27
679.45	19066.00
679.59	18878.76
679.73	18967.70
679.87	18995.79
680.00	18972.38
680.14	18583.85
680.28	18792.16
680.42	18684.50
680.56	18909.19
680.70	18586.19
680.83	18712.58
680.97	18787.48
681.11	18862.38
681.25	18422.36
681.39	18368.52
681.52	18721.95
681.66	18462.15
681.80	18141.49
681.94	18143.83
682.07	18295.97
682.21	18242.14
682.35	18090.00
682.49	17912.12
682.62	17771.69
682.76	17970.63
682.90	17762.33
683.04	17874.67
683.17	17741.26
683.31	17645.30
683.45	17701.47
683.59	17504.87
683.72	17441.67
683.86	17563.38
684.00	17621.89
684.13	17371.46
684.27	17277.83
684.41	17305.92
684.55	17191.23
684.68	16989.95
684.82	17043.78
684.96	16910.37
685.09	16961.86
685.23	17036.76
685.37	16936.12
685.50	16938.46
685.64	16634.19
685.78	16830.79
685.91	17212.30
686.05	16858.88
686.19	16542.91
686.32	16519.50
686.46	16526.52
686.60	15990.54
686.73	16306.51
686.87	16306.51
687.01	16229.27
687.14	16332.26
687.28	16058.42
687.42	15910.96
687.55	16053.73
687.69	16060.76
687.82	15824.36
687.96	15868.83
688.10	15800.96
688.23	15920.32
688.37	15833.72
688.50	15618.39
688.64	15786.91
688.78	15587.97
688.91	15543.50
689.05	15520.09
689.18	15302.42
689.32	15082.41
689.46	15012.20
689.59	15307.10
689.73	15288.38
689.86	15250.93
690.00	15194.76
690.13	15220.50
690.27	15103.48
690.41	15108.16
690.54	14953.68
690.68	14930.28
690.81	14883.47
690.95	14850.70
691.08	14850.70
691.22	14626.01
691.35	14740.69
691.49	14831.97
691.62	14703.25
691.76	14490.26
691.89	14656.43
692.03	14286.63
692.16	14230.46
692.30	14148.54
692.43	14209.39
692.57	13783.41
692.70	14043.21
692.84	14132.15
692.97	13970.66
693.11	14200.03
693.24	13919.17
693.38	13877.04
693.51	13764.69
693.65	13762.35
693.78	13523.62
693.92	13535.32
694.05	13664.05
694.19	13605.53
694.32	13327.01
694.45	13558.72
694.59	13048.49
694.72	13146.79
694.86	13277.86
694.99	12791.03
695.13	13118.70
695.26	13121.04
695.39	13118.70
695.53	12975.93
695.66	12912.74
695.80	13032.10
695.93	12982.95
696.07	12737.20
696.20	12739.54
696.33	12556.97
696.47	12734.85
696.60	12718.47
696.73	12582.72
696.87	12676.34
697.00	12498.46
697.14	12285.47
697.27	12133.34
697.40	12320.58
697.54	12077.16
697.67	12112.27
697.80	11922.69
697.94	11927.37
698.07	11737.79
698.21	11873.54
698.34	12035.03
698.47	11894.60
698.61	11948.43
698.74	11955.46
698.87	11927.37
699.01	11569.27
699.14	11672.25
699.27	11843.11
699.40	11557.57
699.54	11693.32
699.67	11442.88
699.80	11330.53
699.94	11452.24
700.07	11445.22
700.20	10974.77
700.34	11197.12
700.47	10984.13
700.60	11225.21
700.73	11225.21
700.87	11157.33
701.00	10878.81
701.13	11194.78
701.26	10752.42
701.40	11023.92
701.53	10796.89
701.66	10747.74
701.79	10705.61
701.93	10626.03
702.06	10635.39
702.19	10445.81
702.32	10717.31
702.46	10387.30
702.59	10396.66
702.72	10553.48
702.85	10265.59
702.99	10148.56
703.12	10307.72
703.25	10017.49
703.38	10232.82
703.51	10408.36
703.65	10200.05
703.78	9989.41
703.91	10174.31
704.04	10118.14
704.17	10164.95
704.31	10026.86
704.44	9846.63
704.57	9905.15
704.70	10080.69
704.83	9755.35
704.96	9589.17
705.10	9755.35
705.23	9661.73
>>>>>End Processed Spectral Data<<<<<
