SpectraSuite Data File
++++++++++++++++++++++++++++++++++++
Date: Fri Oct 18 13:58:38 GMT-05:00 2013
User: bianchi
Dark Spectrum Present: No
Reference Spectrum Present: No
Number of Sampled Component Spectra: 1
Spectrometers: USB2+H05261
Integration Time (usec): 50000 (USB2+H05261)
Spectra Averaged: 1 (USB2+H05261)
Boxcar Smoothing: 0 (USB2+H05261)
Correct for Electrical Dark: No (USB2+H05261)
Strobe/Lamp Enabled: No (USB2+H05261)
Correct for Detector Non-linearity: No (USB2+H05261)
Correct for Stray Light: No (USB2+H05261)
Number of Pixels in Processed Spectrum: 2048
>>>>>Begin Processed Spectral Data<<<<<
365.73	0.00
365.92	0.00
366.12	0.00
366.32	0.00
366.52	0.00
366.72	0.00
366.91	0.00
367.11	0.00
367.31	0.00
367.51	0.00
367.70	0.00
367.90	0.00
368.10	0.00
368.30	0.00
368.49	0.00
368.69	0.00
368.89	0.00
369.09	0.00
369.28	0.00
369.48	0.00
369.68	0.00
369.87	0.00
370.07	0.00
370.27	0.00
370.47	0.00
370.66	51.49
370.86	84.26
371.06	175.54
371.25	152.13
371.45	110.01
371.65	161.50
371.84	117.03
372.04	161.50
372.24	133.41
372.44	152.13
372.63	198.95
372.83	142.77
373.03	212.99
373.22	182.56
373.42	180.22
373.62	196.60
373.81	215.33
374.01	224.69
374.21	292.57
374.40	294.91
374.60	292.57
374.79	243.42
374.99	203.63
375.19	241.08
375.38	234.05
375.58	212.99
375.78	220.01
375.97	259.80
376.17	227.03
376.37	243.42
376.56	238.73
376.76	301.93
376.95	245.76
377.15	255.12
377.35	297.25
377.54	280.86
377.74	212.99
377.93	332.36
378.13	248.10
378.33	273.84
378.52	248.10
378.72	250.44
378.91	304.27
379.11	264.48
379.31	264.48
379.50	234.05
379.70	287.89
379.89	245.76
380.09	290.23
380.28	348.74
380.48	339.38
380.68	299.59
380.87	264.48
381.07	238.73
381.26	308.95
381.46	416.62
381.65	304.27
381.85	236.39
382.04	339.38
382.24	332.36
382.43	346.40
382.63	365.12
382.83	327.68
383.02	365.12
383.22	472.79
383.41	381.51
383.61	360.44
383.80	395.55
384.00	379.17
384.19	290.23
384.39	409.59
384.58	402.57
384.78	320.65
384.97	456.40
385.17	386.19
385.36	388.53
385.56	409.59
385.75	320.65
385.95	411.93
386.14	416.62
386.34	362.78
386.53	421.30
386.72	362.78
386.92	463.43
387.11	386.19
387.31	451.72
387.50	409.59
387.70	477.47
387.89	435.34
388.09	421.30
388.28	421.30
388.48	482.15
388.67	475.13
388.86	400.23
389.06	458.74
389.25	500.87
389.45	468.11
389.64	465.77
389.84	519.60
390.03	400.23
390.22	442.36
390.42	500.87
390.61	524.28
390.81	491.51
391.00	503.22
391.19	528.96
391.39	545.34
391.58	517.26
391.78	538.32
391.97	437.68
392.16	423.64
392.36	580.45
392.55	606.20
392.75	510.24
392.94	561.73
393.13	634.29
393.33	528.96
393.52	524.28
393.71	582.79
393.91	573.43
394.10	566.41
394.29	543.00
394.49	575.77
394.68	559.39
394.88	596.84
395.07	561.73
395.26	582.79
395.46	554.71
395.65	613.22
395.84	685.78
396.04	634.29
396.23	669.39
396.42	599.18
396.62	585.13
396.81	683.44
397.00	615.56
397.19	732.59
397.39	676.41
397.58	634.29
397.77	608.54
397.97	681.10
398.16	629.60
398.35	704.50
398.55	678.76
398.74	753.65
398.93	690.46
399.12	727.91
399.32	709.18
399.51	753.65
399.70	798.12
399.90	582.79
400.09	835.57
400.28	779.40
400.47	695.14
400.67	833.23
400.86	774.72
401.05	816.85
401.24	823.87
401.44	800.46
401.63	816.85
401.82	753.65
402.01	713.86
402.21	699.82
402.40	711.52
402.59	772.38
402.78	837.91
402.97	851.96
403.17	891.74
403.36	842.59
403.55	830.89
403.74	826.21
403.93	959.62
404.13	936.21
404.32	964.30
404.51	837.91
404.70	917.49
404.89	938.55
405.09	868.34
405.28	987.71
405.47	915.15
405.66	966.64
405.85	961.96
406.05	976.00
406.24	882.38
406.43	959.62
406.62	961.96
406.81	1142.18
407.00	1046.22
407.20	943.24
407.39	1006.43
407.58	1057.92
407.77	952.60
407.96	1034.52
408.15	973.66
408.34	1067.28
408.54	1078.99
408.73	1109.41
408.92	1008.77
409.11	1139.84
409.30	1029.84
409.49	1116.44
409.68	1118.78
409.87	1093.03
410.07	1233.46
410.26	1149.20
410.45	1188.99
410.64	1025.15
410.83	1156.22
411.02	1137.50
411.21	1212.40
411.40	1238.14
411.59	1322.40
411.78	1310.70
411.98	1299.00
412.17	1275.59
412.36	1207.72
412.55	1310.70
412.74	1357.51
412.93	1317.72
413.12	1296.66
413.31	1387.94
413.50	1378.58
413.69	1458.15
413.88	1409.00
414.07	1331.76
414.26	1467.52
414.45	1420.71
414.64	1430.07
414.83	1427.73
415.02	1582.20
415.22	1540.07
415.41	1645.40
415.60	1521.35
415.79	1565.82
415.98	1556.46
416.17	1554.12
416.36	1537.73
416.55	1638.38
416.74	1654.76
416.93	1636.03
417.12	1540.07
417.31	1720.29
417.50	1699.23
417.69	1692.21
417.88	1724.97
418.07	1713.27
418.26	1685.19
418.45	1823.28
418.64	1839.66
418.83	1717.95
419.02	1921.58
419.21	1853.70
419.39	1792.85
419.58	1795.19
419.77	1849.02
419.96	1785.83
420.15	1806.89
420.34	1863.07
420.53	1877.11
420.72	1879.45
420.91	1963.71
421.10	1942.64
421.29	1933.28
421.48	1785.83
421.67	1907.54
421.86	1942.64
422.05	1874.77
422.24	1820.94
422.43	2031.58
422.61	2005.84
422.80	1942.64
422.99	1991.80
423.18	2043.29
423.37	2087.76
423.56	2073.71
423.75	2090.10
423.94	1912.22
424.13	1858.39
424.32	1905.20
424.50	2078.40
424.69	2050.31
424.88	1991.80
425.07	2010.52
425.26	1884.13
425.45	2069.03
425.64	2054.99
425.83	2059.67
426.01	2038.61
426.20	2019.88
426.39	2083.08
426.58	2010.52
426.77	2012.86
426.96	2083.08
427.15	2022.22
427.33	2010.52
427.52	1947.33
427.71	2099.46
427.90	2132.23
428.09	2111.16
428.28	2101.80
428.46	2136.91
428.65	2235.21
428.84	2218.83
429.03	2272.66
429.22	2232.87
429.40	2200.10
429.59	2265.64
429.78	2101.80
429.97	2174.36
430.16	2202.44
430.34	2298.41
430.53	2310.11
430.72	2284.36
430.91	2223.51
431.10	2237.55
431.28	2211.81
431.47	2286.70
431.66	2328.83
431.85	2408.41
432.03	2324.15
432.22	2448.20
432.41	2338.20
432.60	2420.11
432.79	2429.48
432.97	2487.99
433.16	2385.01
433.35	2459.90
433.54	2527.78
433.72	2420.11
433.91	2420.11
434.10	2464.58
434.28	2455.22
434.47	2413.09
434.66	2586.29
434.85	2544.16
435.03	2661.19
435.22	2651.83
435.41	2586.29
435.59	2642.46
435.78	2675.23
435.97	2502.03
436.16	2663.53
436.34	2700.98
436.53	2738.43
436.72	2623.74
436.90	2651.83
437.09	2745.45
437.28	2614.38
437.46	2642.46
437.65	2768.85
437.84	2717.36
438.02	2719.70
438.21	2860.13
438.40	2754.81
438.58	2780.56
438.77	2932.69
438.96	2820.35
439.14	2965.46
439.33	2850.77
439.52	2960.78
439.70	2923.33
439.89	3061.42
440.08	2815.66
440.26	2972.48
440.45	2970.14
440.63	3056.74
440.82	3178.45
441.01	3110.57
441.19	3117.59
441.38	3201.85
441.57	3150.36
441.75	3227.60
441.94	3087.17
442.12	3288.45
442.31	3215.90
442.50	3131.64
442.68	3295.47
442.87	3302.50
443.05	3293.13
443.24	3379.73
443.43	3335.26
443.61	3358.67
443.80	3548.25
443.98	3272.07
444.17	3162.06
444.35	3253.34
444.54	3445.27
444.73	3445.27
444.91	3400.80
445.10	3318.88
445.28	3325.90
445.47	3405.48
445.65	3330.58
445.84	3346.97
446.02	3337.60
446.21	3442.93
446.39	3391.44
446.58	3548.25
446.77	3538.89
446.95	3480.38
447.14	3435.91
447.32	3398.46
447.51	3578.68
447.69	3478.04
447.88	3386.76
448.06	3417.18
448.25	3389.10
448.43	3379.73
448.62	3513.14
448.80	3454.63
448.99	3552.93
449.17	3538.89
449.36	3646.55
449.54	3625.49
449.73	3655.92
449.91	3709.75
450.10	3691.02
450.28	3684.00
450.46	3674.64
450.65	3639.53
450.83	3758.90
451.02	3707.41
451.20	3669.96
451.39	3672.30
451.57	3714.43
451.76	3733.15
451.94	3812.73
452.13	3798.69
452.31	3892.31
452.49	3798.69
452.68	3843.16
452.86	3812.73
453.05	3789.33
453.23	3943.80
453.42	3803.37
453.60	3943.80
453.78	3918.06
453.97	3859.54
454.15	3946.14
454.34	3845.50
454.52	3948.48
454.70	3967.21
454.89	3861.88
455.07	3927.42
455.26	4035.08
455.44	4173.18
455.62	4072.53
455.81	4002.32
455.99	4014.02
456.17	4147.43
456.36	4315.95
456.54	4126.36
456.73	4161.47
456.91	4231.69
457.09	4222.33
457.28	4451.70
457.46	4163.81
457.64	4379.14
457.83	4234.03
458.01	4025.72
458.19	4283.18
458.38	4301.90
458.56	4451.70
458.74	4589.79
458.93	4449.36
459.11	4332.33
459.29	4353.40
459.48	4395.53
459.66	4372.12
459.84	4447.02
460.03	4580.43
460.21	4454.04
460.39	4402.55
460.57	4580.43
460.76	4451.70
460.94	4533.62
461.12	4592.13
461.31	4699.80
461.49	4652.98
461.67	4545.32
461.85	4587.45
462.04	4606.17
462.22	4741.93
462.40	4793.42
462.59	4758.31
462.77	4795.76
462.95	4821.50
463.13	4837.89
463.32	4674.05
463.50	4826.18
463.68	4842.57
463.86	4915.12
464.05	4741.93
464.23	4643.62
464.41	4844.91
464.59	4800.44
464.78	4926.83
464.96	5011.09
465.14	4678.73
465.32	4835.55
465.50	4919.81
465.69	4938.53
465.87	5022.79
466.05	4898.74
466.23	4882.36
466.41	5071.94
466.60	5083.64
466.78	4926.83
466.96	4961.94
467.14	5088.32
467.32	5135.14
467.51	5172.58
467.69	4919.81
467.87	5111.73
468.05	5193.65
468.23	5078.96
468.41	5149.18
468.60	5093.01
468.78	5233.44
468.96	5085.98
469.14	5205.35
469.32	5441.75
469.50	5233.44
469.69	5371.53
469.87	5467.49
470.05	5303.65
470.23	5298.97
470.41	5315.36
470.59	5359.83
470.77	5273.23
470.95	5425.36
471.14	5341.10
471.32	5397.28
471.50	5500.26
471.68	5511.96
471.86	5518.98
472.04	5638.35
472.22	5792.83
472.40	5624.31
472.58	5619.63
472.77	5607.92
472.95	5825.59
473.13	5881.77
473.31	5849.00
473.49	5624.31
473.67	5675.80
473.85	5834.96
474.03	6040.92
474.21	6090.07
474.39	6043.26
474.57	5977.73
474.75	6106.46
474.93	6099.44
475.12	6118.16
475.30	6197.74
475.48	6211.78
475.66	6146.25
475.84	6211.78
476.02	6258.59
476.20	6171.99
476.38	6380.30
476.56	6509.03
476.74	6569.88
476.92	6380.30
477.10	6448.18
477.28	6502.01
477.46	6497.33
477.64	6572.22
477.82	6686.91
478.00	6965.43
478.18	6789.89
478.36	6775.85
478.54	6942.03
478.72	7014.59
478.90	6995.86
479.08	7173.74
479.26	7119.91
479.44	7183.10
479.62	7325.88
479.80	7382.05
479.98	7398.43
480.16	7548.23
480.34	7571.63
480.52	7597.38
480.70	7569.29
480.88	7569.29
481.06	7529.50
481.24	7630.15
481.41	7978.89
481.59	7885.26
481.77	7946.12
481.95	8081.87
482.13	8121.66
482.31	8067.83
482.49	8124.00
482.67	8100.59
482.85	8287.84
483.03	8470.40
483.21	8568.70
483.39	8491.46
483.57	8533.59
483.74	8667.00
483.92	8744.24
484.10	8491.46
484.28	8748.92
484.46	9025.11
484.64	9029.79
484.82	8861.27
485.00	8929.14
485.18	9200.65
485.35	9296.61
485.53	9336.40
485.71	9291.93
485.89	9647.69
486.07	9579.81
486.25	9455.76
486.43	9638.33
486.61	9544.70
486.78	9734.29
486.96	9912.17
487.14	10026.86
487.32	9942.60
487.50	10066.64
487.68	10129.84
487.85	10256.23
488.03	10232.82
488.21	10661.14
488.39	10321.76
488.57	10429.43
488.75	10698.59
488.92	10752.42
489.10	10799.23
489.28	10906.90
489.46	11007.54
489.64	10960.73
489.81	11225.21
489.99	11267.34
490.17	11391.39
490.35	11454.58
490.53	11499.05
490.70	11454.58
490.88	11405.43
491.06	11770.55
491.24	11698.00
491.41	11609.06
491.59	12009.29
491.77	11803.32
491.95	12023.33
492.13	12196.53
492.30	12201.21
492.48	12208.23
492.66	12278.45
492.84	12390.80
493.01	12418.88
493.19	12561.66
493.37	12774.64
493.54	12627.19
493.72	12737.20
493.90	12589.74
494.08	12823.80
494.25	12884.65
494.43	13043.81
494.61	13420.63
494.79	13481.49
494.96	13348.08
495.14	13348.08
495.32	13432.33
495.49	13504.89
495.67	13551.70
495.85	13479.15
496.02	13738.94
496.20	13916.83
496.38	13820.86
496.55	13827.88
496.73	14242.16
496.91	14073.64
497.09	14202.37
497.26	14211.73
497.44	14106.41
497.62	14148.54
497.79	14588.56
497.97	14415.36
498.14	14658.78
498.32	14668.14
498.50	14677.50
498.67	14600.26
498.85	14801.55
499.03	14862.40
499.20	14986.45
499.38	15012.20
499.56	14984.11
499.73	15164.33
499.91	15307.10
500.08	15506.05
500.26	14925.60
500.44	15517.75
500.61	15264.97
500.79	15517.75
500.97	15559.88
501.14	16023.31
501.32	15913.30
501.49	15704.99
501.67	15761.17
501.84	15957.77
502.02	16156.72
502.20	16049.05
502.37	16142.67
502.55	15990.54
502.72	16018.63
502.90	16395.45
503.07	16147.36
503.25	15927.35
503.43	16175.44
503.60	16517.16
503.78	16610.78
503.95	16580.36
504.13	16180.12
504.30	16524.18
504.48	16468.01
504.65	16739.51
504.83	16863.56
505.01	16971.22
505.18	17003.99
505.36	17081.23
505.53	16760.58
505.71	17125.70
505.88	17195.92
506.06	16645.89
506.23	17233.36
506.41	17448.69
506.58	17509.55
506.76	17394.86
506.93	17118.68
507.11	17200.60
507.28	17561.04
507.46	17331.67
507.63	17511.89
507.81	17752.96
507.98	17556.36
508.16	17652.32
508.33	17717.86
508.50	17774.03
508.68	17736.58
508.85	17933.18
509.03	17666.36
509.20	18174.26
509.38	18242.14
509.55	18281.92
509.73	17879.35
509.90	18239.79
510.08	18209.37
510.25	18031.49
510.42	18302.99
510.60	18604.92
510.77	18359.16
510.95	18640.03
511.12	18225.75
511.30	18616.62
511.47	18665.77
511.64	18705.56
511.82	18787.48
511.99	18810.89
512.17	18778.12
512.34	18998.13
512.51	18717.26
512.69	19143.24
512.86	19044.94
513.04	19166.65
513.21	19447.51
513.38	19501.34
513.56	19316.44
513.73	19220.48
513.90	19192.39
514.08	19412.40
514.25	19573.90
514.43	19281.33
514.60	19571.56
514.77	19431.13
514.95	19742.42
515.12	19639.44
515.29	19634.75
515.47	19651.14
515.64	20037.33
515.81	19955.41
515.99	20046.69
516.16	20271.38
516.33	20088.82
516.51	20238.61
516.68	20070.09
516.85	20163.72
517.03	20250.32
517.20	20343.94
517.37	20278.40
517.54	20409.47
517.72	20559.27
517.89	20500.75
518.06	20498.41
518.24	20311.17
518.41	20629.48
518.58	20306.49
518.75	20741.83
518.93	20973.54
519.10	20994.61
519.27	20837.79
519.45	20966.52
519.62	20936.09
519.79	21039.08
519.96	21106.95
520.14	21053.12
520.31	20968.86
520.48	21259.09
520.65	21275.47
520.83	21474.42
521.00	21081.21
521.17	21153.76
521.34	21324.62
521.52	21376.11
521.69	21621.87
521.86	21392.50
522.03	21635.91
522.20	21460.37
522.38	21603.14
522.55	21474.42
522.72	21600.80
522.89	21860.60
523.07	21954.22
523.24	22040.82
523.41	21860.60
523.58	21905.07
523.75	21839.54
523.92	21795.07
524.10	22221.05
524.27	21872.31
524.44	22181.26
524.61	22302.96
524.78	22148.49
524.96	22106.36
525.13	22771.07
525.30	22452.76
525.47	22668.09
525.64	22394.25
525.81	22562.76
525.98	22661.07
526.16	22731.28
526.33	22600.21
526.50	22890.44
526.67	22597.87
526.84	22714.90
527.01	22752.35
527.18	22927.89
527.36	22663.41
527.53	23204.07
527.70	23124.49
527.87	23316.42
528.04	22806.18
528.21	22897.46
528.38	23047.26
528.55	23269.61
528.72	23065.98
528.89	23065.98
529.07	23267.27
529.24	23297.69
529.41	23332.80
529.58	23431.10
529.75	23281.31
529.92	23520.04
530.09	23255.56
530.26	23740.05
530.43	23700.26
530.60	23388.97
530.77	23447.49
530.94	23726.01
531.11	23522.38
531.28	23344.50
531.46	23737.71
531.63	23758.78
531.80	23697.92
531.97	23791.55
532.14	23796.23
532.31	23690.90
532.48	23761.12
532.65	23950.70
532.82	23761.12
532.99	23992.83
533.16	23852.40
533.33	24470.30
533.50	24318.17
533.67	24421.15
533.84	23674.52
534.01	24224.54
534.18	24252.63
534.35	24451.58
534.52	24439.87
534.69	24678.61
534.86	24514.77
535.03	24404.77
535.20	24723.08
535.37	24542.86
535.54	24744.14
535.71	24411.79
535.88	24793.29
536.05	24367.32
536.22	24407.11
536.38	24510.09
536.55	24964.15
536.72	24828.40
536.89	24615.41
537.06	24694.99
537.23	25127.99
537.40	24669.25
537.57	24844.79
537.74	24793.29
537.91	25233.32
538.08	25120.97
538.25	24718.40
538.42	25076.50
538.59	25120.97
538.75	24774.57
538.92	25362.04
539.09	25439.28
539.26	25242.68
539.43	25092.88
539.60	25123.31
539.77	25043.73
539.94	25450.99
540.11	25598.44
540.28	25549.29
540.44	25551.63
540.61	24900.96
540.78	25287.15
540.95	25228.63
541.12	25745.89
541.29	25422.90
541.46	25443.96
541.62	25301.19
541.79	25628.87
541.96	25146.72
542.13	25626.53
542.30	25624.18
542.47	25855.90
542.63	26274.85
542.80	26099.31
542.97	25771.64
543.14	26120.38
543.31	26419.97
543.48	26052.50
543.64	26211.66
543.81	26120.38
543.98	25914.41
544.15	26394.22
544.32	26635.30
544.48	26534.65
544.65	26108.68
544.82	26029.10
544.99	26480.82
545.16	26225.70
545.32	26256.13
545.49	26752.32
545.66	26733.60
545.83	26808.50
546.00	26705.51
546.16	26506.57
546.33	26164.85
546.50	26300.60
546.67	26724.24
546.83	26052.50
547.00	26946.59
547.17	26771.05
547.34	26742.96
547.50	26948.93
547.67	27140.85
547.84	26852.97
548.00	26941.91
548.17	27136.17
548.34	27000.42
548.51	27138.51
548.67	27182.98
548.84	27222.77
549.01	27239.15
549.18	26827.22
549.34	27009.78
549.51	26925.52
549.68	27019.14
549.84	26768.71
550.01	27250.86
550.18	27091.70
550.34	27395.97
550.51	27342.14
550.68	27510.66
550.84	27232.13
551.01	27292.99
551.18	27379.59
551.34	27026.17
551.51	26927.86
551.68	27269.58
551.84	27491.93
552.01	27517.68
552.18	27772.80
552.34	27395.97
552.51	27559.81
552.68	27204.05
552.84	27718.96
553.01	27314.05
553.18	27513.00
553.34	27892.16
553.51	27473.21
553.67	27763.43
553.84	28051.32
554.01	27833.65
554.17	27859.40
554.34	27665.13
554.51	27838.33
554.67	28105.15
554.84	28046.64
555.00	28067.70
555.17	27924.93
555.33	27845.35
555.50	28016.21
555.67	27835.99
555.83	27976.42
556.00	27786.84
556.16	28147.28
556.33	27983.44
556.50	27910.89
556.66	27960.04
556.83	28205.80
556.99	28170.69
557.16	27953.02
557.32	28130.90
557.49	28067.70
557.65	27908.55
557.82	27971.74
557.98	28086.43
558.15	27950.68
558.32	28627.09
558.48	28074.73
558.65	28751.14
558.81	28517.09
558.98	28257.29
559.14	28290.06
559.31	28315.80
559.47	28318.14
559.64	28760.50
559.80	28814.34
559.97	28486.66
560.13	28524.11
560.30	27999.83
560.46	28648.16
560.63	28451.55
560.79	28411.76
560.96	28514.75
561.12	28561.56
561.29	28765.18
561.45	28383.68
561.61	28723.05
561.78	28503.04
561.94	28610.71
562.11	28741.78
562.27	28531.13
562.44	28790.93
562.60	28460.91
562.77	28397.72
562.93	28617.73
563.10	28861.15
563.26	28521.77
563.42	29221.59
563.59	28830.72
563.75	29137.33
563.92	28975.83
564.08	28720.71
564.24	28615.39
564.41	28694.97
564.57	28685.61
564.74	28767.52
564.90	29069.45
565.07	28732.42
565.23	29085.84
565.39	28514.75
565.56	28938.38
565.72	28584.96
565.88	29057.75
566.05	29228.61
566.21	28814.34
566.38	28975.83
566.54	29041.37
566.70	29366.70
566.87	29268.40
567.03	29048.39
567.19	29343.30
567.36	29443.94
567.52	29160.73
567.68	28987.53
567.85	29109.24
568.01	29015.62
568.17	29123.29
568.34	29202.86
568.50	29551.60
568.66	28533.47
568.83	29476.71
568.99	29242.65
569.15	29181.80
569.32	29160.73
569.48	29048.39
569.64	29441.60
569.81	29113.92
569.97	29312.87
570.13	29172.44
570.30	28971.15
570.46	29326.91
570.62	29563.31
570.78	29387.77
570.95	29085.84
571.11	29549.26
571.27	28919.66
571.43	29085.84
571.60	29635.86
571.76	28961.79
571.92	29546.92
572.09	29104.56
572.25	29713.10
572.41	29298.83
572.57	29670.97
572.74	29530.54
572.90	29331.59
573.06	29198.18
573.22	29806.72
573.38	29359.68
573.55	29406.49
573.71	29626.50
573.87	29432.24
574.03	29406.49
574.20	29666.29
574.36	29156.05
574.52	29366.70
574.68	29270.74
574.84	29593.73
575.01	29514.16
575.17	29640.54
575.33	29390.11
575.49	29226.27
575.65	29542.24
575.82	29886.30
575.98	29439.26
576.14	29280.10
576.30	29434.58
576.46	29404.15
576.62	29055.41
576.79	29294.14
576.95	29570.33
577.11	29535.22
577.27	29825.45
577.43	29366.70
577.59	29584.37
577.75	29270.74
577.92	29333.93
578.08	29523.52
578.24	29053.07
578.40	29640.54
578.56	29336.27
578.72	29399.47
578.88	30068.86
579.04	29855.87
579.21	29640.54
579.37	29893.32
579.53	29427.56
579.69	29109.24
579.85	29523.52
580.01	29457.98
580.17	29479.05
580.33	29558.63
580.49	29401.81
580.65	29968.22
580.82	30019.71
580.98	29507.13
581.14	29479.05
581.30	29736.51
581.46	29633.52
581.62	29680.33
581.78	29394.79
581.94	29729.48
582.10	29277.76
582.26	29921.41
582.42	29308.19
582.58	30108.65
582.74	29888.64
582.90	29720.12
583.06	29813.74
583.22	29626.50
583.38	29591.39
583.54	29696.72
583.70	29582.03
583.86	29434.58
584.02	29226.27
584.18	29139.67
584.34	29537.56
584.50	29685.01
584.66	29673.31
584.82	29539.90
584.98	30029.07
585.14	29605.44
585.30	29675.65
585.46	29371.38
585.62	29310.53
585.78	29642.88
585.94	29497.77
586.10	29947.15
586.26	29668.63
586.42	29706.08
586.58	29963.54
586.74	29111.58
586.90	29736.51
587.06	29661.61
587.22	29785.66
587.38	29930.77
587.54	29834.81
587.70	30164.82
587.86	29579.69
588.02	29752.89
588.18	30312.28
588.34	29696.72
588.49	29556.28
588.65	29647.57
588.81	29713.10
588.97	30071.20
589.13	29862.90
589.29	29855.87
589.45	30110.99
589.61	30005.67
589.77	29862.90
589.93	30115.67
590.08	30270.15
590.24	30478.46
590.40	30288.87
590.56	30096.95
590.72	30000.99
590.88	29621.82
591.04	29984.60
591.20	30176.53
591.35	29750.55
591.51	30480.80
591.67	30506.54
591.83	30436.33
591.99	30295.89
592.15	30150.78
592.31	29926.09
592.46	30120.35
592.62	30394.20
592.78	29954.18
592.94	29649.91
593.10	29701.40
593.26	30331.00
593.41	30319.30
593.57	30129.72
593.73	29947.15
593.89	29954.18
594.05	30003.33
594.20	30103.97
594.36	30436.33
594.52	30286.53
594.68	29675.65
594.84	30068.86
594.99	30541.65
595.15	30368.45
595.31	30242.06
595.47	30345.05
595.62	30375.47
595.78	30457.39
595.94	30066.52
596.10	30059.50
596.25	29984.60
596.41	29886.30
596.57	30110.99
596.73	30293.55
596.88	30190.57
597.04	30237.38
597.20	30162.48
597.36	30396.54
597.51	30501.86
597.67	30347.39
597.83	30274.83
597.99	30593.14
598.14	30513.56
598.30	30080.56
598.46	30352.07
598.61	30387.18
598.77	30153.12
598.93	30536.97
599.09	30258.45
599.24	30794.43
599.40	30209.29
599.56	30396.54
599.71	30403.56
599.87	30366.11
600.03	30380.15
600.18	30155.46
600.34	30103.97
600.50	30204.61
600.65	30073.54
600.81	30462.07
600.97	30548.67
601.12	31044.87
601.28	30455.05
601.44	30389.52
601.59	30429.30
601.75	30221.00
601.91	30618.89
602.06	30202.27
602.22	30143.76
602.37	30036.09
602.53	29965.88
602.69	30302.92
602.84	30185.89
603.00	30546.33
603.16	30373.13
603.31	30295.89
603.47	30590.80
603.62	30239.72
603.78	30490.16
603.94	29743.53
604.09	30099.29
604.25	30314.62
604.40	29865.24
604.56	30225.68
604.71	30363.77
604.87	30670.38
605.03	30534.63
605.18	30335.68
605.34	30286.53
605.49	30232.70
605.65	30068.86
605.80	29626.50
605.96	29879.28
606.12	30326.32
606.27	30106.31
606.43	29797.36
606.58	30136.74
606.74	30183.55
606.89	30022.05
607.05	30511.22
607.20	30452.71
607.36	30459.73
607.51	30267.81
607.67	29996.31
607.82	29844.17
607.98	30000.99
608.13	30066.52
608.29	30396.54
608.44	30155.46
608.60	30136.74
608.75	30244.40
608.91	30286.53
609.06	29766.93
609.22	30010.35
609.37	29991.62
609.53	30284.19
609.68	30162.48
609.84	29848.85
609.99	30249.08
610.15	29930.77
610.30	30129.72
610.46	29970.56
610.61	30129.72
610.76	30052.48
610.92	30443.35
611.07	29867.58
611.23	29638.20
611.38	30015.03
611.54	29813.74
611.69	29727.14
611.84	29881.62
612.00	29811.40
612.15	29745.87
612.31	29986.94
612.46	29724.80
612.62	29961.20
612.77	29993.97
612.92	30019.71
613.08	29874.60
613.23	30155.46
613.39	29834.81
613.54	29521.18
613.69	29586.71
613.85	29483.73
614.00	29638.20
614.15	29876.94
614.31	29717.78
614.46	29476.71
614.62	29799.70
614.77	29504.79
614.92	29752.89
615.08	29593.73
615.23	29563.31
615.38	29780.98
615.54	29532.88
615.69	29593.73
615.84	29230.95
616.00	29612.46
616.15	29399.47
616.30	29816.08
616.46	29347.98
616.61	29450.96
616.76	29399.47
616.92	29450.96
617.07	29687.36
617.22	29614.80
617.37	29652.25
617.53	29369.04
617.68	29090.52
617.83	29134.99
617.99	29303.51
618.14	29303.51
618.29	29181.80
618.45	29504.79
618.60	29165.42
618.75	29294.14
618.90	29610.12
619.06	29729.48
619.21	29109.24
619.36	29617.14
619.51	29064.77
619.67	28748.80
619.82	29123.29
619.97	29081.16
620.12	28987.53
620.28	29256.70
620.43	29455.64
620.58	29001.58
620.73	29427.56
620.89	29273.08
621.04	29118.60
621.19	29046.05
621.34	29149.03
621.49	29081.16
621.65	28720.71
621.80	28697.31
621.95	29062.43
622.10	28905.62
622.25	29071.79
622.41	28926.68
622.56	28779.23
622.71	28725.39
622.86	28851.78
623.01	29022.64
623.16	28575.60
623.32	28694.97
623.47	28947.75
623.62	28308.78
623.77	28737.10
623.92	28900.94
624.07	28456.23
624.23	28781.57
624.38	28889.23
624.53	28877.53
624.68	29006.26
624.83	29029.66
624.98	28797.95
625.13	28711.35
625.29	28563.90
625.44	28631.77
625.59	28407.08
625.74	28531.13
625.89	28095.79
626.04	28379.00
626.19	28161.33
626.34	28095.79
626.49	28343.89
626.65	28512.41
626.80	28381.34
626.95	28198.77
627.10	28332.18
627.25	28173.03
627.40	28423.47
627.55	27999.83
627.70	28156.64
627.85	28039.62
628.00	28088.77
628.15	28573.26
628.30	28074.73
628.45	28357.93
628.60	28093.45
628.76	28215.16
628.91	28371.97
629.06	27997.49
629.21	28116.86
629.36	28404.74
629.51	28144.94
629.66	27772.80
629.81	28217.50
629.96	27672.15
630.11	27461.51
630.26	27796.20
630.41	27967.06
630.56	27707.26
630.71	28032.60
630.86	27770.46
631.01	27761.09
631.16	28332.18
631.31	27531.72
631.46	28081.75
631.61	28079.41
631.76	27648.75
631.91	27786.84
632.06	27711.94
632.21	27569.17
632.36	27740.03
632.51	27524.70
632.66	27641.73
632.81	27470.87
632.96	27709.60
633.10	27538.74
633.25	27644.07
633.40	27573.85
633.55	27819.61
633.70	27527.04
633.85	27665.13
634.00	27241.50
634.15	27449.80
634.30	27063.61
634.45	27473.21
634.60	27307.03
634.75	27531.72
634.90	27262.56
635.05	27431.08
635.19	27194.68
635.34	27625.34
635.49	27491.93
635.64	27522.36
635.79	27463.85
635.94	27253.20
636.09	27639.39
636.24	27288.31
636.39	27267.24
636.53	27096.38
636.68	27215.75
636.83	27417.04
636.98	27463.85
637.13	27395.97
637.28	27461.51
637.43	27119.79
637.57	27094.04
637.72	27150.21
637.87	27253.20
638.02	27087.02
638.17	27009.78
638.32	27133.83
638.46	27190.00
638.61	26984.04
638.76	26888.07
638.91	26773.39
639.06	27005.10
639.20	26871.69
639.35	27068.30
639.50	27180.64
639.65	27105.74
639.80	26972.33
639.94	26700.83
640.09	27033.19
640.24	27253.20
640.39	26670.40
640.54	26757.00
640.68	26822.54
640.83	26586.15
640.98	26771.05
641.13	26469.12
641.27	26883.39
641.42	26548.70
641.57	26576.78
641.72	26644.66
641.86	26831.90
642.01	26459.76
642.16	26342.73
642.31	26867.01
642.45	26719.56
642.60	26452.73
642.75	26368.48
642.90	26466.78
643.04	26335.71
643.19	26572.10
643.34	26480.82
643.48	26632.96
643.63	26508.91
643.78	26136.76
643.93	26754.66
644.07	26551.04
644.22	26845.94
644.37	26012.71
644.51	26408.26
644.66	26529.97
644.81	26281.88
644.95	26300.60
645.10	26024.42
645.25	26368.48
645.39	26157.83
645.54	25902.71
645.69	26094.63
645.83	26316.98
645.98	26075.91
646.13	26611.89
646.27	26185.91
646.42	25720.15
646.57	26307.62
646.71	26162.51
646.86	26192.94
647.00	26036.12
647.15	26340.39
647.30	25970.58
647.44	25968.24
647.59	26246.77
647.74	25666.31
647.88	26026.76
648.03	26176.55
648.17	26115.70
648.32	26214.00
648.47	26359.11
648.61	26291.24
648.76	26125.06
648.90	25923.77
649.05	25792.70
649.20	25970.58
649.34	25937.82
649.49	25612.48
649.63	25617.16
649.78	25621.84
649.92	25661.63
650.07	25673.34
650.21	25940.16
650.36	26136.76
650.51	25549.29
650.65	25724.83
650.80	25661.63
650.94	25535.24
651.09	25603.12
651.23	25598.44
651.38	25685.04
651.52	25582.06
651.67	25596.10
651.81	25453.33
651.96	25553.97
652.10	25324.60
652.25	25542.27
652.39	25722.49
652.54	25481.41
652.68	25546.95
652.83	25479.07
652.97	25748.23
653.12	25596.10
653.26	25450.99
653.41	25415.88
653.55	25577.37
653.70	25373.75
653.84	25497.80
653.99	25591.42
654.13	25228.63
654.27	25291.83
654.42	25369.07
654.56	25214.59
654.71	25074.16
654.85	25336.30
655.00	25406.52
655.14	25738.87
655.29	25139.69
655.43	25130.33
655.57	25039.05
655.72	25062.46
655.86	25006.28
656.01	25198.21
656.15	24851.81
656.30	24851.81
656.44	25191.19
656.58	24936.07
656.73	25181.82
656.87	24863.51
657.01	24912.66
657.16	24968.84
657.30	25193.53
657.45	25111.61
657.59	24776.91
657.73	24512.43
657.88	25008.62
658.02	24856.49
658.16	24905.64
658.31	24762.87
658.45	24903.30
658.60	24730.10
658.74	24634.14
658.88	24676.27
659.03	24741.80
659.17	24959.47
659.31	24685.63
659.46	24482.00
659.60	24774.57
659.74	24219.86
659.89	24065.39
660.03	24198.80
660.17	24498.39
660.32	24245.61
660.46	24114.54
660.60	24016.24
660.74	24238.59
660.89	24210.50
661.03	24067.73
661.17	24149.65
661.32	24465.62
661.46	24161.35
661.60	24517.11
661.74	24046.66
661.89	24112.20
662.03	24364.98
662.17	24025.60
662.31	23899.21
662.46	24327.53
662.60	24219.86
662.74	24039.64
662.88	23779.84
663.03	23969.43
663.17	23793.89
663.31	23758.78
663.45	23733.03
663.60	23634.73
663.74	23580.90
663.88	23597.28
664.02	23786.86
664.17	23838.36
664.31	23772.82
664.45	23449.83
664.59	23597.28
664.73	23463.87
664.88	23183.01
665.02	23152.58
665.16	23094.07
665.30	23489.62
665.44	23180.67
665.59	23077.68
665.73	22991.08
665.87	22970.02
666.01	23295.35
666.15	22965.34
666.29	23243.86
666.44	23229.82
666.58	22829.59
666.72	23365.57
666.86	23117.47
667.00	23309.40
667.14	22941.93
667.28	23070.66
667.43	22909.16
667.57	23007.47
667.71	22691.49
667.85	22939.59
667.99	22677.45
668.13	22712.56
668.27	22394.25
668.41	22960.66
668.56	22485.53
668.70	22799.16
668.84	22719.58
668.98	22738.30
669.12	22511.27
669.26	22368.50
669.40	22338.07
669.54	22691.49
669.68	22661.07
669.82	22059.55
669.96	22043.17
670.10	22120.40
670.25	22097.00
670.39	22230.41
670.53	21867.63
670.67	21858.26
670.81	21982.31
670.95	21776.34
671.09	21954.22
671.23	21795.07
671.37	21921.46
671.51	21886.35
671.65	22108.70
671.79	21848.90
671.93	21846.56
672.07	22059.55
672.21	21860.60
672.35	21729.53
672.49	21455.69
672.63	21111.63
672.77	21563.36
672.91	21558.67
673.05	21245.04
673.19	21331.64
673.33	21755.28
673.47	21467.39
673.61	21130.36
673.75	21074.18
673.89	21207.59
674.03	21202.91
674.17	21142.06
674.31	21158.44
674.45	21181.85
674.59	20985.24
674.73	20884.60
674.87	21298.88
675.01	20980.56
675.15	20512.46
675.29	20805.02
675.43	20716.08
675.56	20706.72
675.70	20788.64
675.84	20514.80
675.98	19969.45
676.12	20795.66
676.26	20788.64
676.40	20730.12
676.54	20589.69
676.68	20339.26
676.82	20072.43
676.96	20215.21
677.10	19981.15
677.23	20088.82
677.37	19920.30
677.51	19929.66
677.65	19585.60
677.79	20063.07
677.93	19751.78
678.07	19651.14
678.21	19901.58
678.34	19623.05
678.48	19283.67
678.62	19520.07
678.76	19555.18
678.90	19484.96
679.04	19335.17
679.18	19676.88
679.31	19080.05
679.45	18937.27
679.59	18836.63
679.73	18803.86
679.87	19012.17
680.00	18895.14
680.14	18684.50
680.28	18820.25
680.42	18792.16
680.56	19030.90
680.70	18710.24
680.83	18824.93
680.97	18553.43
681.11	18672.79
681.25	18665.77
681.39	18335.76
681.52	18132.13
681.66	18569.81
681.80	18569.81
681.94	18321.71
682.07	18118.09
682.21	18017.44
682.35	17905.10
682.49	18143.83
682.62	17827.86
682.76	17858.29
682.90	17928.50
683.04	17909.78
683.17	17989.36
683.31	17823.18
683.45	17774.03
683.59	17422.95
683.72	17479.12
683.86	17736.58
684.00	17500.19
684.13	17326.99
684.27	17727.22
684.41	17259.11
684.55	17050.80
684.68	17034.42
684.82	16929.09
684.96	17043.78
685.09	17027.40
685.23	16814.41
685.37	16996.97
685.50	16886.97
685.64	16856.54
685.78	17060.16
685.91	17022.72
686.05	16699.72
686.19	16472.69
686.32	16772.28
686.46	16465.67
686.60	16369.71
686.73	16423.54
686.87	16430.56
687.01	16341.62
687.14	16353.32
687.28	16060.76
687.42	16137.99
687.55	16088.84
687.69	16130.97
687.82	15843.09
687.96	16091.18
688.10	16023.31
688.23	15545.84
688.37	15983.52
688.50	15934.37
688.64	15686.27
688.78	15637.12
688.91	15229.87
689.05	15396.04
689.18	15573.92
689.32	14941.98
689.46	15166.67
689.59	15300.08
689.73	15075.39
689.86	14965.39
690.00	15386.68
690.13	15281.36
690.27	15131.56
690.41	14951.34
690.54	15215.82
690.68	14871.76
690.81	15061.35
690.95	14731.33
691.08	14782.82
691.22	14637.71
691.35	14857.72
691.49	14902.19
691.62	14874.10
691.76	14370.89
691.89	14288.97
692.03	14310.04
692.16	14221.10
692.30	14167.26
692.43	14377.91
692.57	14328.76
692.70	13991.72
692.84	13933.21
692.97	13900.44
693.11	14036.19
693.24	13881.72
693.38	14010.45
693.51	13748.31
693.65	13851.29
693.78	13657.03
693.92	13715.54
694.05	13694.47
694.19	13460.42
694.32	13327.01
694.45	13387.86
694.59	13261.48
694.72	13277.86
694.86	13184.24
694.99	12891.67
695.13	12793.37
695.26	13193.60
695.39	13259.13
695.53	13067.21
695.66	12856.56
695.80	12748.90
695.93	12947.84
696.07	12879.97
696.20	12884.65
696.33	12615.49
696.47	12772.30
696.60	12744.22
696.73	12622.51
696.87	12688.04
697.00	12540.59
697.14	12285.47
697.27	12294.83
697.40	12135.68
697.54	12308.88
697.67	12081.85
697.80	12297.17
697.94	12039.72
698.07	11939.07
698.21	12191.85
698.34	12044.40
698.47	12135.68
698.61	11908.65
698.74	11918.01
698.87	11602.04
699.01	11866.52
699.14	11836.09
699.27	11625.44
699.40	11524.80
699.54	11651.19
699.67	11360.96
699.80	11426.50
699.94	11344.58
700.07	11290.74
700.20	11117.54
700.34	11136.27
700.47	11035.63
700.60	11201.80
700.73	11138.61
700.87	11159.67
701.00	10944.34
701.13	11042.65
701.26	11091.80
701.40	10930.30
701.53	10956.05
701.66	10993.50
701.79	10834.34
701.93	10721.99
702.06	10637.73
702.19	10462.19
702.32	10562.84
702.46	10469.22
702.59	10368.57
702.72	10457.51
702.85	10127.50
702.99	10244.52
703.12	10501.98
703.25	10246.87
703.38	10160.27
703.51	10099.41
703.65	10176.65
703.78	9987.07
703.91	10078.35
704.04	10080.69
704.17	10036.22
704.31	10040.90
704.44	10022.17
704.57	9830.25
704.70	9863.02
704.83	9764.72
704.96	9687.48
705.10	9591.52
705.23	9341.08
>>>>>End Processed Spectral Data<<<<<
