SpectraSuite Data File
++++++++++++++++++++++++++++++++++++
Date: Fri Oct 18 13:57:56 GMT-05:00 2013
User: bianchi
Dark Spectrum Present: No
Reference Spectrum Present: No
Number of Sampled Component Spectra: 1
Spectrometers: USB2+H05261
Integration Time (usec): 50000 (USB2+H05261)
Spectra Averaged: 1 (USB2+H05261)
Boxcar Smoothing: 0 (USB2+H05261)
Correct for Electrical Dark: No (USB2+H05261)
Strobe/Lamp Enabled: No (USB2+H05261)
Correct for Detector Non-linearity: No (USB2+H05261)
Correct for Stray Light: No (USB2+H05261)
Number of Pixels in Processed Spectrum: 2048
>>>>>Begin Processed Spectral Data<<<<<
365.73	0.00
365.92	0.00
366.12	0.00
366.32	0.00
366.52	0.00
366.72	0.00
366.91	0.00
367.11	0.00
367.31	0.00
367.51	0.00
367.70	0.00
367.90	0.00
368.10	0.00
368.30	0.00
368.49	0.00
368.69	0.00
368.89	0.00
369.09	0.00
369.28	0.00
369.48	0.00
369.68	0.00
369.87	0.00
370.07	0.00
370.27	0.00
370.47	0.00
370.66	93.62
370.86	110.01
371.06	121.71
371.25	149.79
371.45	93.62
371.65	187.24
371.84	184.90
372.04	112.35
372.24	182.56
372.44	168.52
372.63	180.22
372.83	255.12
373.03	189.58
373.22	201.29
373.42	252.78
373.62	173.20
373.81	196.60
374.01	212.99
374.21	196.60
374.40	262.14
374.60	252.78
374.79	234.05
374.99	177.88
375.19	191.92
375.38	231.71
375.58	294.91
375.78	234.05
375.97	301.93
376.17	287.89
376.37	229.37
376.56	320.65
376.76	308.95
376.95	220.01
377.15	306.61
377.35	220.01
377.54	285.55
377.74	311.29
377.93	283.20
378.13	212.99
378.33	287.89
378.52	250.44
378.72	360.44
378.91	318.31
379.11	278.52
379.31	224.69
379.50	241.08
379.70	320.65
379.89	306.61
380.09	330.02
380.28	283.20
380.48	238.73
380.68	297.25
380.87	367.46
381.07	332.36
381.26	308.95
381.46	355.76
381.65	315.97
381.85	248.10
382.04	369.80
382.24	360.44
382.43	311.29
382.63	308.95
382.83	414.27
383.02	374.49
383.22	315.97
383.41	341.72
383.61	388.53
383.80	379.17
384.00	332.36
384.19	372.15
384.39	416.62
384.58	358.10
384.78	365.12
384.97	351.08
385.17	404.91
385.36	381.51
385.56	404.91
385.75	390.87
385.95	386.19
386.14	400.23
386.34	437.68
386.53	407.25
386.72	393.21
386.92	463.43
387.11	475.13
387.31	407.25
387.50	470.45
387.70	388.53
387.89	442.36
388.09	482.15
388.28	433.00
388.48	514.92
388.67	505.56
388.86	463.43
389.06	397.89
389.25	486.83
389.45	521.94
389.64	440.02
389.84	482.15
390.03	484.49
390.22	447.04
390.42	526.62
390.61	465.77
390.81	571.09
391.00	526.62
391.19	503.22
391.39	545.34
391.58	484.49
391.78	484.49
391.97	512.58
392.16	519.60
392.36	631.94
392.55	493.85
392.75	479.81
392.94	596.84
393.13	456.40
393.33	517.26
393.52	491.51
393.71	578.11
393.91	528.96
394.10	594.50
394.29	568.75
394.49	624.92
394.68	636.63
394.88	610.88
395.07	613.22
395.26	669.39
395.46	631.94
395.65	634.29
395.84	566.41
396.04	653.01
396.23	634.29
396.42	751.31
396.62	624.92
396.81	765.36
397.00	720.88
397.19	648.33
397.39	667.05
397.58	669.39
397.77	638.97
397.97	748.97
398.16	709.18
398.35	683.44
398.55	732.59
398.74	741.95
398.93	746.63
399.12	793.44
399.32	723.23
399.51	730.25
399.70	781.74
399.90	758.33
400.09	858.98
400.28	744.29
400.47	777.06
400.67	800.46
400.86	835.57
401.05	858.98
401.24	863.66
401.44	851.96
401.63	840.25
401.82	847.27
402.01	819.19
402.21	847.27
402.40	863.66
402.59	910.47
402.78	851.96
402.97	798.12
403.17	954.94
403.36	882.38
403.55	905.79
403.74	922.17
403.93	793.44
404.13	866.00
404.32	835.57
404.51	968.98
404.70	931.53
404.89	931.53
405.09	966.64
405.28	961.96
405.47	1004.09
405.66	1057.92
405.85	1064.94
406.05	978.34
406.24	1013.45
406.43	990.05
406.62	1036.86
406.81	1086.01
407.00	1076.65
407.20	1055.58
407.39	1095.37
407.58	1057.92
407.77	980.68
407.96	1074.31
408.15	1095.37
408.34	1062.60
408.54	1142.18
408.73	1144.52
408.92	1160.91
409.11	1184.31
409.30	1247.51
409.49	1121.12
409.68	1200.69
409.87	1149.20
410.07	1128.14
410.26	1186.65
410.45	1212.40
410.64	1172.61
410.83	1118.78
411.02	1196.01
411.21	1249.85
411.40	1275.59
411.59	1315.38
411.78	1256.87
411.98	1331.76
412.17	1362.19
412.36	1282.61
412.55	1392.62
412.74	1362.19
412.93	1390.28
413.12	1418.36
413.31	1401.98
413.50	1404.32
413.69	1495.60
413.88	1490.92
414.07	1474.54
414.26	1462.83
414.45	1465.18
414.64	1565.82
414.83	1504.96
415.02	1570.50
415.22	1612.63
415.41	1650.08
415.60	1577.52
415.79	1577.52
415.98	1636.03
416.17	1650.08
416.36	1785.83
416.55	1624.33
416.74	1732.00
416.93	1701.57
417.12	1624.33
417.31	1790.51
417.50	1713.27
417.69	1895.83
417.88	1776.47
418.07	1769.44
418.26	1764.76
418.45	1813.92
418.64	1893.49
418.83	1811.57
419.02	1886.47
419.21	1900.52
419.39	1888.81
419.58	1781.15
419.77	1870.09
419.96	1895.83
420.15	1891.15
420.34	1944.99
420.53	1916.90
420.72	1970.73
420.91	1975.41
421.10	2043.29
421.29	1933.28
421.48	2038.61
421.67	2036.27
421.86	2026.90
422.05	2029.24
422.24	1921.58
422.43	2066.69
422.61	2033.93
422.80	1970.73
422.99	2047.97
423.18	2087.76
423.37	2099.46
423.56	2129.89
423.75	2050.31
423.94	1963.71
424.13	1991.80
424.32	2054.99
424.50	2146.27
424.69	2118.18
424.88	2188.40
425.07	2064.35
425.26	1940.30
425.45	2092.44
425.64	2078.40
425.83	2001.16
426.01	2160.31
426.20	2122.87
426.39	2054.99
426.58	2087.76
426.77	2080.74
426.96	2127.55
427.15	2031.58
427.33	2195.42
427.52	2193.08
427.71	2174.36
427.90	2265.64
428.09	2122.87
428.28	2214.15
428.46	2321.81
428.65	2073.71
428.84	2338.20
429.03	2317.13
429.22	2242.23
429.40	2328.83
429.59	2401.39
429.78	2263.30
429.97	2272.66
430.16	2186.06
430.34	2289.04
430.53	2349.90
430.72	2445.86
430.91	2450.54
431.10	2399.05
431.28	2363.94
431.47	2499.69
431.66	2403.73
431.85	2429.48
432.03	2502.03
432.22	2438.84
432.41	2602.68
432.60	2551.18
432.79	2525.44
432.97	2562.89
433.16	2605.02
433.35	2597.99
433.54	2581.61
433.72	2537.14
433.91	2619.06
434.10	2502.03
434.28	2567.57
434.47	2600.34
434.66	2649.49
434.85	2539.48
435.03	2593.31
435.22	2717.36
435.41	2867.16
435.59	2818.00
435.78	2670.55
435.97	2768.85
436.16	2684.59
436.34	2747.79
436.53	2726.72
436.72	2895.24
436.90	2644.81
437.09	2820.35
437.28	2789.92
437.46	2810.98
437.65	2764.17
437.84	2902.26
438.02	2928.01
438.21	2848.43
438.40	2743.11
438.58	2963.12
438.77	2913.97
438.96	2977.16
439.14	3016.95
439.33	3061.42
439.52	3070.78
439.70	3035.67
439.89	3204.19
440.08	3110.57
440.26	3218.24
440.45	3077.80
440.63	3204.19
440.82	3169.09
441.01	3302.50
441.19	3286.11
441.38	3398.46
441.57	3262.71
441.75	3290.79
441.94	3297.81
442.12	3316.54
442.31	3339.94
442.50	3330.58
442.68	3375.05
442.87	3321.22
443.05	3543.57
443.24	3559.95
443.43	3485.06
443.61	3571.66
443.80	3536.55
443.98	3405.48
444.17	3379.73
444.35	3412.50
444.54	3618.47
444.73	3592.72
444.91	3616.13
445.10	3536.55
445.28	3489.74
445.47	3520.17
445.65	3499.10
445.84	3520.17
446.02	3515.48
446.21	3431.23
446.39	3531.87
446.58	3660.60
446.77	3520.17
446.95	3630.17
447.14	3581.02
447.32	3712.09
447.51	3562.30
447.69	3616.13
447.88	3719.11
448.06	3482.72
448.25	3588.04
448.43	3786.99
448.62	3637.19
448.80	3719.11
448.99	3655.92
449.17	3653.58
449.36	3648.90
449.54	3784.65
449.73	3747.20
449.91	3894.65
450.10	3726.13
450.28	3831.46
450.46	3899.33
450.65	3794.01
450.83	3829.12
451.02	3885.29
451.20	3976.57
451.39	3866.56
451.57	4018.70
451.76	3808.05
451.94	3976.57
452.13	4023.38
452.31	4056.15
452.49	3920.40
452.68	3978.91
452.86	3838.48
453.05	4074.87
453.23	4114.66
453.42	3974.23
453.60	3932.10
453.78	4107.64
453.97	3885.29
454.15	3969.55
454.34	3906.35
454.52	4098.28
454.70	4189.56
454.89	4170.83
455.07	4117.00
455.26	4241.05
455.44	4140.41
455.62	4196.58
455.81	4269.14
455.99	4234.03
456.17	4278.50
456.36	4222.33
456.54	4278.50
456.73	4313.61
456.91	4432.97
457.09	4491.49
457.28	4454.04
457.46	4500.85
457.64	4456.38
457.83	4517.23
458.01	4409.57
458.19	4547.66
458.38	4514.89
458.56	4641.28
458.74	4542.98
458.93	4388.50
459.11	4545.32
459.29	4475.10
459.48	4582.77
459.66	4550.00
459.84	4601.49
460.03	4636.60
460.21	4678.73
460.39	4655.33
460.57	4753.63
460.76	4734.90
460.94	4884.70
461.12	4683.41
461.31	4755.97
461.49	4723.20
461.67	4725.54
461.85	4805.12
462.04	4791.08
462.22	5043.85
462.40	4910.44
462.59	4978.32
462.77	4842.57
462.95	4835.55
463.13	4858.95
463.32	4880.02
463.50	4903.42
463.68	4858.95
463.86	4968.96
464.05	4936.19
464.23	4898.74
464.41	5167.90
464.59	5083.64
464.78	5088.32
464.96	5184.29
465.14	5177.26
465.32	5245.14
465.50	5249.82
465.69	5270.89
465.87	5109.39
466.05	5170.24
466.23	5093.01
466.41	5043.85
466.60	5263.86
466.78	5174.92
466.96	5228.76
467.14	5385.57
467.32	5352.81
467.51	5423.02
467.69	5085.98
467.87	5242.80
468.05	5399.62
468.23	5322.38
468.41	5301.31
468.60	5348.12
468.78	5483.88
468.96	5259.18
469.14	5476.85
469.32	5446.43
469.50	5217.05
469.69	5631.33
469.87	5699.20
470.05	5540.05
470.23	5575.16
470.41	5502.60
470.59	5710.91
470.77	5554.09
470.95	5614.95
471.14	5661.76
471.32	5724.95
471.50	6015.18
471.68	5797.51
471.86	5710.91
472.04	5839.64
472.22	5884.11
472.40	5738.99
472.58	5970.71
472.77	5977.73
472.95	5935.60
473.13	6162.63
473.31	5893.47
473.49	6073.69
473.67	6143.91
473.85	6207.10
474.03	6258.59
474.21	6108.80
474.39	6399.02
474.57	6338.17
474.75	6413.07
474.93	6366.26
475.12	6256.25
475.30	6452.86
475.48	6389.66
475.66	6560.52
475.84	6441.15
476.02	6600.31
476.20	6509.03
476.38	6518.39
476.56	6726.70
476.74	6745.42
476.92	6876.49
477.10	6890.54
477.28	6782.87
477.46	6813.30
477.64	6909.26
477.82	6942.03
478.00	7227.57
478.18	7199.49
478.36	7246.30
478.54	7091.82
478.72	7225.23
478.90	7215.87
479.08	7506.10
479.26	7501.42
479.44	7602.06
479.62	7506.10
479.80	7595.04
479.98	7674.62
480.16	7810.37
480.34	7831.43
480.52	7885.26
480.70	7913.35
480.88	7946.12
481.06	7964.84
481.24	7791.64
481.41	8112.30
481.59	8306.56
481.77	8339.33
481.95	8327.63
482.13	8290.18
482.31	8432.95
482.49	8638.92
482.67	8629.56
482.85	8751.26
483.03	8720.84
483.21	8765.31
483.39	8699.77
483.57	8856.59
483.74	8964.25
483.92	8814.46
484.10	9128.09
484.28	9046.17
484.46	9308.31
484.64	9490.87
484.82	9544.70
485.00	9364.48
485.18	9486.19
485.35	9657.05
485.53	9729.61
485.71	9668.75
485.89	9944.94
486.07	9750.67
486.25	9888.76
486.43	9940.26
486.61	10186.01
486.78	10221.12
486.96	10193.03
487.14	10448.15
487.32	10298.36
487.50	10321.76
487.68	10567.52
487.85	10600.29
488.03	10925.62
488.21	10857.75
488.39	11101.16
488.57	11049.67
488.75	10932.64
488.92	11119.89
489.10	11379.68
489.28	11386.71
489.46	11683.95
489.64	11363.30
489.81	11515.44
489.99	11784.60
490.17	11826.73
490.35	11885.24
490.53	11922.69
490.70	12072.48
490.88	12035.03
491.06	12341.64
491.24	12013.97
491.41	12215.26
491.59	12425.90
491.77	12369.73
491.95	12791.03
492.13	12802.73
492.30	12587.40
492.48	12669.32
492.66	12664.64
492.84	12725.49
493.01	12964.23
493.19	13036.78
493.37	12954.87
493.54	13373.82
493.72	13327.01
493.90	13303.60
494.08	13172.54
494.25	13734.26
494.43	13720.22
494.61	13682.77
494.79	13790.44
494.96	13762.35
495.14	13778.73
495.32	13895.76
495.49	14164.92
495.67	13954.27
495.85	14274.93
496.02	14134.50
496.20	14178.97
496.38	14321.74
496.55	14413.02
496.73	14567.49
496.91	14391.95
497.09	14714.95
497.26	14654.09
497.44	14815.59
497.62	14675.16
497.79	15129.22
497.97	14864.74
498.14	15075.39
498.32	15363.28
498.50	15283.70
498.67	15477.96
498.85	15370.30
499.03	15473.28
499.20	15330.51
499.38	15503.71
499.56	15971.82
499.73	15836.06
499.91	15784.57
500.08	15805.64
500.26	15815.00
500.44	16056.08
500.61	16046.71
500.79	15946.07
500.97	16243.32
501.14	16559.29
501.32	16372.05
501.49	16168.42
501.67	16446.94
501.84	16606.10
502.02	16500.78
502.20	16650.57
502.37	16556.95
502.55	16624.83
502.72	16767.60
502.90	16933.78
503.07	16893.99
503.25	16891.65
503.43	16868.24
503.60	16978.25
503.78	17043.78
503.95	17137.40
504.13	17249.75
504.30	17488.48
504.48	17132.72
504.65	17085.91
504.83	17727.22
505.01	17818.50
505.18	17554.02
505.36	17689.77
505.53	17380.82
505.71	17551.68
505.88	17619.55
506.06	17603.17
506.23	17802.11
506.41	17893.40
506.58	18178.94
506.76	17930.84
506.93	17839.56
507.11	17947.23
507.28	18277.24
507.46	18366.18
507.63	18167.24
507.81	18389.59
507.98	18356.82
508.16	18398.95
508.33	18312.35
508.50	18764.07
508.68	18686.84
508.85	18757.05
509.03	18560.45
509.20	18707.90
509.38	18930.25
509.55	19044.94
509.73	18773.44
509.90	19007.49
510.08	18527.68
510.25	18897.49
510.42	18956.00
510.60	19548.15
510.77	19241.54
510.95	19524.75
511.12	19035.58
511.30	19466.24
511.47	19433.47
511.64	19246.23
511.82	19903.92
511.99	19501.34
512.17	19796.25
512.34	19566.88
512.51	19831.36
512.69	19693.27
512.86	19847.74
513.04	20084.14
513.21	20119.24
513.38	19957.75
513.56	20135.63
513.73	19962.43
513.90	20182.44
514.08	20154.35
514.25	20355.64
514.43	20519.48
514.60	20599.05
514.77	20538.20
514.95	20613.10
515.12	20552.24
515.29	20425.86
515.47	20629.48
515.64	20688.00
515.81	20840.13
515.99	20704.38
516.16	21233.34
516.33	20985.24
516.51	21060.14
516.68	20748.85
516.85	21053.12
517.03	20996.95
517.20	21448.67
517.37	21062.48
517.54	21310.58
517.72	21228.66
517.89	21408.88
518.06	21310.58
518.24	21226.32
518.41	21301.22
518.58	21678.04
518.75	21443.99
518.93	21886.35
519.10	21572.72
519.27	21895.71
519.45	21722.51
519.62	21720.17
519.79	21867.63
519.96	21720.17
520.14	22153.17
520.31	21614.85
520.48	21961.25
520.65	22045.51
520.83	22394.25
521.00	22239.77
521.17	22230.41
521.34	22122.74
521.52	22354.46
521.69	22429.35
521.86	22707.88
522.03	22534.68
522.20	22719.58
522.38	22443.40
522.55	22602.55
522.72	22649.36
522.89	22560.42
523.07	22710.22
523.24	22553.40
523.41	22824.90
523.58	22466.80
523.75	23285.99
523.92	22995.76
524.10	22750.01
524.27	23051.94
524.44	23199.39
524.61	23351.52
524.78	23278.97
524.96	22897.46
525.13	23323.44
525.30	23173.64
525.47	23843.04
525.64	23620.69
525.81	23683.88
525.98	23573.88
526.16	23704.95
526.33	23396.00
526.50	23803.25
526.67	23426.42
526.84	23576.22
527.01	23683.88
527.18	23840.70
527.36	24058.37
527.53	23686.22
527.70	24372.00
527.87	24325.19
528.04	24032.62
528.21	24212.84
528.38	23913.25
528.55	24173.05
528.72	24273.70
528.89	24411.79
529.07	24231.57
529.24	24201.14
529.41	24130.92
529.58	24458.60
529.75	23992.83
529.92	24369.66
530.09	24517.11
530.26	24533.50
530.43	24505.41
530.60	24584.99
530.77	24751.17
530.94	24428.17
531.11	24655.20
531.28	24554.56
531.46	24477.32
531.63	24706.70
531.80	24809.68
531.97	25074.16
532.14	24994.58
532.31	24783.93
532.48	25020.33
532.65	24919.68
532.82	24842.45
532.99	25127.99
533.16	25238.00
533.33	25230.98
533.50	25214.59
533.67	25179.48
533.84	24856.49
534.01	25429.92
534.18	25259.06
534.35	25359.70
534.52	25488.43
534.69	25755.26
534.86	25804.41
535.03	25235.66
535.20	25507.16
535.37	25804.41
535.54	25916.75
535.71	25184.16
535.88	25923.77
536.05	25568.01
536.22	25855.90
536.38	26078.25
536.55	26155.49
536.72	25614.82
536.89	25743.55
537.06	26134.42
537.23	25949.52
537.40	25916.75
537.57	25771.64
537.74	25872.28
537.91	26647.00
538.08	26195.28
538.25	26300.60
538.42	26148.46
538.59	26202.30
538.75	26157.83
538.92	26258.47
539.09	26368.48
539.26	26125.06
539.43	26307.62
539.60	26593.17
539.77	26408.26
539.94	26600.19
540.11	26455.08
540.28	26202.30
540.44	26686.79
540.61	26492.52
540.78	26485.50
540.95	26766.37
541.12	26635.30
541.29	26621.25
541.46	26544.02
541.62	26923.18
541.79	26487.84
541.96	26745.30
542.13	26941.91
542.30	27070.64
542.47	27014.46
542.63	27054.25
542.80	27023.83
542.97	27164.26
543.14	27131.49
543.31	27388.95
543.48	27222.77
543.64	27452.14
543.81	27489.59
543.98	27491.93
544.15	27594.92
544.32	27658.11
544.48	27599.60
544.65	27091.70
544.82	27583.21
544.99	27143.19
545.16	27428.74
545.32	27700.24
545.49	28037.28
545.66	27737.69
545.83	28109.83
546.00	27805.56
546.16	27938.97
546.33	27550.45
546.50	27768.12
546.67	27718.96
546.83	27454.48
547.00	27995.15
547.17	27917.91
547.34	27941.32
547.50	28011.53
547.67	28280.69
547.84	28128.56
548.00	28095.79
548.17	28074.73
548.34	28009.19
548.51	28821.36
548.67	28315.80
548.84	28404.74
549.01	27936.63
549.18	28540.49
549.34	27988.13
549.51	28229.20
549.68	28678.58
549.84	28151.96
550.01	28437.51
550.18	28130.90
550.34	28608.37
550.51	28418.78
550.68	28554.54
550.84	28685.61
551.01	28767.52
551.18	28531.13
551.34	28474.96
551.51	29095.20
551.68	28573.26
551.84	28727.74
552.01	28861.15
552.18	28854.12
552.34	28697.31
552.51	28863.49
552.68	28814.34
552.84	28811.99
553.01	28903.28
553.18	28723.05
553.34	28992.22
553.51	28849.44
553.67	29230.95
553.84	29263.72
554.01	29015.62
554.17	29343.30
554.34	29106.90
554.51	29146.69
554.67	29422.87
554.84	28819.02
555.00	29083.50
555.17	29244.99
555.33	29701.40
555.50	29270.74
555.67	29560.97
555.83	29256.70
556.00	29268.40
556.16	29373.72
556.33	29195.84
556.50	29024.98
556.66	29212.23
556.83	29085.84
556.99	29722.46
557.16	29750.55
557.32	29493.09
557.49	29659.27
557.65	29553.94
557.82	29628.84
557.98	29165.42
558.15	29631.18
558.32	29427.56
558.48	29780.98
558.65	29986.94
558.81	29457.98
558.98	29624.16
559.14	29792.68
559.31	29682.67
559.47	29619.48
559.64	29776.30
559.80	29972.90
559.97	29724.80
560.13	29687.36
560.30	29773.95
560.46	29996.31
560.63	30073.54
560.79	29872.26
560.96	30195.25
561.12	29909.71
561.29	29741.19
561.45	29603.10
561.61	30209.29
561.78	30160.14
561.94	29853.53
562.11	30595.48
562.27	30195.25
562.44	30099.29
562.60	30092.27
562.77	30213.98
562.93	29940.13
563.10	30492.50
563.26	29762.25
563.42	30167.16
563.59	30246.74
563.75	30539.31
563.92	30281.85
564.08	29874.60
564.24	30096.95
564.41	30293.55
564.57	30188.23
564.74	30249.08
564.90	30125.04
565.07	30396.54
565.23	30326.32
565.39	30195.25
565.56	30412.92
565.72	30197.59
565.88	30174.19
566.05	30525.27
566.21	30284.19
566.38	30565.06
566.54	30211.64
566.70	30459.73
566.87	30960.61
567.03	30412.92
567.19	30911.46
567.36	30864.64
567.52	30244.40
567.68	30646.97
567.85	30160.14
568.01	30560.37
568.17	30148.44
568.34	30668.04
568.50	30532.29
568.66	30668.04
568.83	30499.52
568.99	30455.05
569.15	30677.40
569.32	30618.89
569.48	30520.59
569.64	30569.74
569.81	30490.16
569.97	30558.03
570.13	31037.84
570.30	30490.16
570.46	30628.25
570.62	30726.55
570.78	30642.29
570.95	30424.62
571.11	30583.78
571.27	30431.65
571.43	30590.80
571.60	30754.64
571.76	30775.70
571.92	30602.50
572.09	30934.86
572.25	30911.46
572.41	30934.86
572.57	30670.38
572.74	30932.52
572.90	30754.64
573.06	30642.29
573.22	30506.54
573.38	30862.30
573.55	30785.07
573.71	31243.81
573.87	30986.35
574.03	30834.22
574.20	31126.78
574.36	30558.03
574.52	31122.10
574.68	30745.28
574.84	30932.52
575.01	31323.39
575.17	30782.73
575.33	30712.51
575.49	30969.97
575.65	31314.03
575.82	31101.04
575.98	30672.72
576.14	31152.53
576.30	30857.62
576.46	30801.45
576.62	30773.36
576.79	31192.32
576.95	30740.60
577.11	31103.38
577.27	30799.11
577.43	31012.10
577.59	31005.08
577.75	30822.51
577.92	30672.72
578.08	30761.66
578.24	30707.83
578.40	30792.09
578.56	30450.37
578.72	31058.91
578.88	31030.82
579.04	31395.95
579.21	31220.41
579.37	31164.23
579.53	31522.34
579.69	30764.00
579.85	30579.10
580.01	30941.88
580.17	31278.92
580.33	31358.50
580.49	31126.78
580.65	30902.09
580.82	31625.32
580.98	30871.67
581.14	31129.12
581.30	31758.73
581.46	30874.01
581.62	31016.78
581.78	31042.53
581.94	31110.40
582.10	31091.68
582.26	30995.71
582.42	31119.76
582.58	31218.07
582.74	31391.26
582.90	31569.15
583.06	31330.41
583.22	30998.06
583.38	31353.82
583.54	30883.37
583.70	31138.49
583.86	31082.31
584.02	30930.18
584.18	31353.82
584.34	31386.58
584.50	31445.10
584.66	31409.99
584.82	30831.88
584.98	31281.26
585.14	31105.72
585.30	30955.93
585.46	31248.49
585.62	31222.75
585.78	31131.47
585.94	30960.61
586.10	31147.85
586.26	31559.78
586.42	31330.41
586.58	31667.45
586.74	31770.43
586.90	31197.00
587.06	30838.90
587.22	31674.47
587.38	31154.87
587.54	31248.49
587.70	31274.24
587.86	31339.77
588.02	31407.65
588.18	31936.61
588.34	31496.59
588.49	31637.02
588.65	31597.23
588.81	31168.91
588.97	31101.04
589.13	31512.97
589.29	31604.25
589.45	31365.52
589.61	31393.61
589.77	31807.88
589.93	31524.68
590.08	31424.03
590.24	31498.93
590.40	31768.09
590.56	31625.32
590.72	31562.12
590.88	30965.29
591.04	31491.91
591.20	31620.64
591.35	31875.76
591.51	31910.86
591.67	31779.79
591.83	31908.52
591.99	31660.43
592.15	31728.30
592.31	31550.42
592.46	31461.48
592.62	31412.33
592.78	31220.41
592.94	31545.74
593.10	31438.08
593.26	31344.45
593.41	31756.39
593.57	31763.41
593.73	31777.45
593.89	31772.77
594.05	32055.98
594.20	31545.74
594.36	31487.23
594.52	31236.79
594.68	31751.71
594.84	31482.55
594.99	31592.55
595.15	31707.24
595.31	32121.51
595.47	31566.81
595.62	31945.97
595.78	32072.36
595.94	31428.71
596.10	31552.76
596.25	31803.20
596.41	31674.47
596.57	31346.79
596.73	31910.86
596.88	31934.27
597.04	32051.30
597.20	32210.45
597.36	31723.62
597.51	31798.52
597.67	31948.31
597.83	31676.81
597.99	31737.66
598.14	31819.58
598.30	31613.62
598.46	31412.33
598.61	31803.20
598.77	31707.24
598.93	31810.22
599.09	32011.51
599.24	32175.34
599.40	31707.24
599.56	32292.37
599.71	32425.78
599.87	31805.54
600.03	31681.49
600.18	31688.51
600.34	31814.90
600.50	31723.62
600.65	31964.70
600.81	32004.49
600.97	32175.34
601.12	32332.16
601.28	32271.31
601.44	31934.27
601.59	32063.00
601.75	32072.36
601.91	31803.20
602.06	32245.56
602.22	31679.15
602.37	31728.30
602.53	31559.78
602.69	32271.31
602.84	31941.29
603.00	32091.09
603.16	32217.47
603.31	32264.28
603.47	31807.88
603.62	31796.18
603.78	31562.12
603.94	31428.71
604.09	31735.32
604.25	32280.67
604.40	31742.35
604.56	32025.55
604.71	32252.58
604.87	31896.82
605.03	31807.88
605.18	31545.74
605.34	31990.44
605.49	31924.91
605.65	32093.43
605.80	31740.00
605.96	31550.42
606.12	31901.50
606.27	31641.70
606.43	31644.04
606.58	31936.61
606.74	31344.45
606.89	32044.27
607.05	32123.85
607.20	31929.59
607.36	31864.05
607.51	31828.95
607.67	31721.28
607.82	31290.62
607.98	31381.90
608.13	31857.03
608.29	31690.85
608.44	31646.38
608.60	31571.49
608.75	31931.93
608.91	31852.35
609.06	31468.50
609.22	31931.93
609.37	31145.51
609.53	31786.82
609.68	31267.22
609.84	31225.09
609.99	31583.19
610.15	31861.71
610.30	31529.36
610.46	31555.10
610.61	31253.17
610.76	31599.57
610.92	31583.19
611.07	31414.67
611.23	31285.94
611.38	31161.89
611.54	31213.38
611.69	31276.58
611.84	31339.77
612.00	31337.43
612.15	31419.35
612.31	31379.56
612.46	31187.64
612.62	31562.12
612.77	31527.02
612.92	31496.59
613.08	31054.23
613.23	31381.90
613.39	31363.18
613.54	30960.61
613.69	31189.98
613.85	31061.25
614.00	31470.84
614.15	31557.44
614.31	31519.99
614.46	31440.42
614.62	31187.64
614.77	31747.03
614.92	31290.62
615.08	31206.36
615.23	31456.80
615.38	31351.48
615.54	30993.37
615.69	31426.37
615.84	30658.68
616.00	31470.84
616.15	30969.97
616.30	31262.54
616.46	31332.75
616.61	30836.56
616.76	31260.20
616.92	31222.75
617.07	31335.09
617.22	30972.31
617.37	30705.49
617.53	30932.52
617.68	30630.59
617.83	30433.99
617.99	30991.03
618.14	31122.10
618.29	30974.65
618.45	30974.65
618.60	30991.03
618.75	31089.34
618.90	30857.62
619.06	31363.18
619.21	31175.94
619.36	30848.26
619.51	30565.06
619.67	30551.01
619.82	30663.36
619.97	30948.90
620.12	30864.64
620.28	30497.18
620.43	30817.83
620.58	30820.17
620.73	31164.23
620.89	31084.65
621.04	30817.83
621.19	30513.56
621.34	30616.55
621.49	30473.78
621.65	30387.18
621.80	30431.65
621.95	30520.59
622.10	30309.94
622.25	30504.20
622.41	30614.21
622.56	30415.26
622.71	30684.42
622.86	30815.49
623.01	30735.92
623.16	30583.78
623.32	30260.79
623.47	30377.81
623.62	30335.68
623.77	30260.79
623.92	30094.61
624.07	30274.83
624.23	30178.87
624.38	30651.66
624.53	30309.94
624.68	30429.30
624.83	30656.34
624.98	30136.74
625.13	30375.47
625.29	30209.29
625.44	30485.48
625.59	30188.23
625.74	29869.92
625.89	29682.67
626.04	30038.44
626.19	29813.74
626.34	29771.61
626.49	29846.51
626.65	30155.46
626.80	30155.46
626.95	29935.45
627.10	29954.18
627.25	30155.46
627.40	29703.74
627.55	29549.26
627.70	29935.45
627.85	29593.73
628.00	29560.97
628.15	29633.52
628.30	29811.40
628.45	29802.04
628.60	29645.23
628.76	29521.18
628.91	29961.20
629.06	29790.34
629.21	29888.64
629.36	29673.31
629.51	29151.37
629.66	29476.71
629.81	29516.50
629.96	29490.75
630.11	29689.70
630.26	29479.05
630.41	29591.39
630.56	29567.99
630.71	29593.73
630.86	29507.13
631.01	29450.96
631.16	30033.75
631.31	29362.02
631.46	29336.27
631.61	29518.84
631.76	29638.20
631.91	29933.11
632.06	29591.39
632.21	28907.96
632.36	29474.37
632.51	29158.39
632.66	29326.91
632.81	29097.54
632.96	29488.41
633.10	29326.91
633.25	29268.40
633.40	29467.34
633.55	29085.84
633.70	29104.56
633.85	29233.29
634.00	28861.15
634.15	28746.46
634.30	29074.13
634.45	29146.69
634.60	29324.57
634.75	29013.28
634.90	29390.11
635.05	29099.88
635.19	29181.80
635.34	29357.34
635.49	28994.56
635.64	29198.18
635.79	28886.89
635.94	28936.04
636.09	28973.49
636.24	29153.71
636.39	28844.76
636.53	28748.80
636.68	28800.29
636.83	28320.48
636.98	28645.82
637.13	29015.62
637.28	29205.20
637.43	29305.85
637.57	28821.36
637.72	28760.50
637.87	28554.54
638.02	28680.92
638.17	28498.36
638.32	28353.25
638.46	28725.39
638.61	28339.21
638.76	28357.93
638.91	28699.65
639.06	28481.98
639.20	28622.41
639.35	28868.17
639.50	28470.28
639.65	29160.73
639.80	28587.30
639.94	28423.47
640.09	28575.60
640.24	28645.82
640.39	28479.64
640.54	28304.10
640.68	28507.72
640.83	28245.58
640.98	27946.00
641.13	28233.88
641.27	28386.02
641.42	28343.89
641.57	27917.91
641.72	28063.02
641.86	27880.46
642.01	27414.69
642.16	27744.71
642.31	27768.12
642.45	28039.62
642.60	28018.55
642.75	27931.95
642.90	27620.66
643.04	28278.35
643.19	27721.30
643.34	27976.42
643.48	27833.65
643.63	27707.26
643.78	28011.53
643.93	28067.70
644.07	28332.18
644.22	28098.13
644.37	27931.95
644.51	27946.00
644.66	27955.36
644.81	27878.12
644.95	27583.21
645.10	27674.49
645.25	27768.12
645.39	27812.59
645.54	27985.79
645.69	27871.10
645.83	27843.01
645.98	27967.06
646.13	27660.45
646.27	27800.88
646.42	27510.66
646.57	27693.22
646.71	27718.96
646.86	27440.44
647.00	27861.74
647.15	27618.32
647.30	27307.03
647.44	27197.02
647.59	27292.99
647.74	27468.53
647.88	27779.82
648.03	27524.70
648.17	27559.81
648.32	27562.15
648.47	27559.81
648.61	27384.27
648.76	27412.35
648.90	27283.62
649.05	27253.20
649.20	27817.27
649.34	27559.81
649.49	27129.15
649.63	27225.11
649.78	27063.61
649.92	27180.64
650.07	27246.18
650.21	27204.05
650.36	27058.93
650.51	27131.49
650.65	27414.69
650.80	27246.18
650.94	27068.30
651.09	27405.33
651.23	26916.16
651.38	26799.13
651.52	26869.35
651.67	27463.85
651.81	27292.99
651.96	26993.40
652.10	27035.53
652.25	26747.64
652.39	27157.24
652.54	27140.85
652.68	26979.36
652.83	27316.39
652.97	27143.19
653.12	27016.80
653.26	26569.76
653.41	27051.91
653.55	26778.07
653.70	26714.87
653.84	26544.02
653.99	26609.55
654.13	27075.32
654.27	26801.47
654.42	26888.07
654.56	26742.96
654.71	27274.26
654.85	26696.15
655.00	27136.17
655.14	26831.90
655.29	26609.55
655.43	26778.07
655.57	26822.54
655.72	26197.62
655.86	26834.24
656.01	26735.94
656.15	26726.58
656.30	26850.63
656.44	26181.23
656.58	26321.66
656.73	26565.08
656.87	26506.57
657.01	26279.54
657.16	26443.37
657.30	26576.78
657.45	26410.60
657.59	26202.30
657.73	26230.38
657.88	26707.85
658.02	25977.61
658.16	26368.48
658.31	25961.22
658.45	26106.34
658.60	26373.16
658.74	26094.63
658.88	26071.23
659.03	25888.67
659.17	26370.82
659.31	25942.50
659.46	26031.44
659.60	26300.60
659.74	26120.38
659.89	25715.47
660.03	25778.66
660.17	26120.38
660.32	25916.75
660.46	25921.43
660.60	25411.20
660.74	25549.29
660.89	25795.04
661.03	25568.01
661.17	25479.07
661.32	25495.46
661.46	26094.63
661.60	25558.65
661.74	25474.39
661.89	25462.69
662.03	25575.03
662.17	25570.35
662.31	25387.79
662.46	25429.92
662.60	25460.35
662.74	25322.26
662.88	25263.74
663.03	25003.94
663.17	25202.89
663.31	24971.18
663.45	24985.22
663.60	24790.95
663.74	24891.60
663.88	24945.43
664.02	24936.07
664.17	25364.39
664.31	25097.56
664.45	25092.88
664.59	24954.79
664.73	24905.64
664.88	24844.79
665.02	24755.85
665.16	24592.01
665.30	24631.80
665.44	24629.46
665.59	24411.79
665.73	24261.99
665.87	24545.20
666.01	24629.46
666.15	24769.89
666.29	24842.45
666.44	24460.94
666.58	24032.62
666.72	24280.72
666.86	24397.74
667.00	24507.75
667.14	24222.20
667.28	24301.78
667.43	24224.54
667.57	24517.11
667.71	24212.84
667.85	24306.46
667.99	24039.64
668.13	23967.09
668.27	23946.02
668.41	24133.26
668.56	23639.41
668.70	24128.58
668.84	23974.11
668.98	24107.52
669.12	23857.08
669.26	23768.14
669.40	23838.36
669.54	23997.51
669.68	23754.10
669.82	23735.37
669.96	23510.68
670.10	23580.90
670.25	23400.68
670.39	23550.47
670.53	23335.14
670.67	23133.86
670.81	23363.23
670.95	23335.14
671.09	23543.45
671.23	23173.64
671.37	23456.85
671.51	23456.85
671.65	23171.30
671.79	23398.34
671.93	23051.94
672.07	22979.38
672.21	23199.39
672.35	22740.64
672.49	22794.48
672.63	22970.02
672.77	22607.23
672.91	22897.46
673.05	22473.82
673.19	22511.27
673.33	22525.32
673.47	22476.16
673.61	22750.01
673.75	22558.08
673.89	22742.99
674.03	22569.79
674.17	22169.55
674.31	22408.29
674.45	22387.22
674.59	22359.14
674.73	22338.07
674.87	22132.11
675.01	21837.20
675.15	22001.04
675.29	22101.68
675.43	21982.31
675.56	21996.35
675.70	21799.75
675.84	22113.38
675.98	21348.03
676.12	22099.34
676.26	21961.25
676.40	22052.53
676.54	21563.36
676.68	21539.95
676.82	21223.98
676.96	21455.69
677.10	21568.04
677.23	21111.63
677.37	21125.68
677.51	20996.95
677.65	21085.89
677.79	20954.82
677.93	20973.54
678.07	20910.35
678.21	20673.95
678.34	20765.23
678.48	20627.14
678.62	20758.21
678.76	20585.01
678.90	20627.14
679.04	20287.76
679.18	20622.46
679.31	20245.63
679.45	20285.42
679.59	19831.36
679.73	20027.96
679.87	20070.09
680.00	20053.71
680.14	20166.06
680.28	19796.25
680.42	19943.70
680.56	20044.35
680.70	19943.70
680.83	19716.67
680.97	19733.06
681.11	19922.64
681.25	19136.22
681.39	19302.40
681.52	19527.09
681.66	19583.26
681.80	19585.60
681.94	19115.16
682.07	19449.85
682.21	19206.44
682.35	19185.37
682.49	18806.20
682.62	19206.44
682.76	18654.07
682.90	19129.20
683.04	18874.08
683.17	18831.95
683.31	18672.79
683.45	19016.85
683.59	18869.40
683.72	18841.31
683.86	18661.09
684.00	18902.17
684.13	18665.77
684.27	18417.68
684.41	18305.33
684.55	17965.95
684.68	18071.28
684.82	17954.25
684.96	18129.79
685.09	18099.36
685.23	18141.49
685.37	18141.49
685.50	18324.05
685.64	18054.89
685.78	18031.49
685.91	17799.77
686.05	17888.71
686.19	17451.03
686.32	18047.87
686.46	17483.80
686.60	17472.10
686.73	17511.89
686.87	17448.69
687.01	17413.59
687.14	17282.52
687.28	16971.22
687.42	17081.23
687.55	16978.25
687.69	17001.65
687.82	17228.68
687.96	16840.15
688.10	16706.74
688.23	16964.20
688.37	16828.45
688.50	16582.70
688.64	16622.48
688.78	16510.14
688.91	16505.46
689.05	16477.37
689.18	16617.80
689.32	16084.16
689.46	16182.46
689.59	16224.59
689.73	16236.30
689.86	16035.01
690.00	16042.03
690.13	16006.92
690.27	16009.26
690.41	15707.34
690.54	15831.38
690.68	15850.11
690.81	15964.79
690.95	16030.33
691.08	15815.00
691.22	15843.09
691.35	15632.44
691.49	15733.08
691.62	15693.29
691.76	15733.08
691.89	15503.71
692.03	14892.83
692.16	14991.13
692.30	15089.43
692.43	14979.43
692.57	14808.57
692.70	14960.70
692.84	14824.95
692.97	14820.27
693.11	14934.96
693.24	14817.93
693.38	14637.71
693.51	14640.05
693.65	14693.88
693.78	14553.45
693.92	14569.83
694.05	14508.98
694.19	14403.66
694.32	14422.38
694.45	14237.48
694.59	14083.00
694.72	13870.01
694.86	14127.47
694.99	13951.93
695.13	13963.64
695.26	14026.83
695.39	13926.19
695.53	13933.21
695.66	13865.33
695.80	13671.07
695.93	13998.74
696.07	13722.56
696.20	13802.14
696.33	13769.37
696.47	13654.69
696.60	13572.77
696.73	13153.81
696.87	13479.15
697.00	13357.44
697.14	13291.90
697.27	13167.85
697.40	12994.65
697.54	13055.51
697.67	12975.93
697.80	12996.99
697.94	12746.56
698.07	12931.46
698.21	12720.81
698.34	12634.21
698.47	12854.22
698.61	12781.67
698.74	12835.50
698.87	12748.90
699.01	12514.84
699.14	12446.97
699.27	12334.62
699.40	12411.86
699.54	12287.81
699.67	12271.43
699.80	12257.39
699.94	11955.46
700.07	12266.75
700.20	11770.55
700.34	11751.83
700.47	11625.44
700.60	11836.09
700.73	11796.30
700.87	11676.93
701.00	11630.12
701.13	11786.94
701.26	11838.43
701.40	11634.80
701.53	11527.14
701.66	11707.36
701.79	11470.97
701.93	11466.28
702.06	11243.93
702.19	11293.08
702.32	11131.59
702.46	11005.20
702.59	11145.63
702.72	11007.54
702.85	10949.03
702.99	11007.54
703.12	10839.02
703.25	10686.89
703.38	11105.84
703.51	11094.14
703.65	10820.30
703.78	10857.75
703.91	10637.73
704.04	10974.77
704.17	10841.36
704.31	10518.37
704.44	10403.68
704.57	10445.81
704.70	10291.34
704.83	10382.62
704.96	10080.69
705.10	10218.78
705.23	10050.26
>>>>>End Processed Spectral Data<<<<<
