SpectraSuite Data File
++++++++++++++++++++++++++++++++++++
Date: Fri Oct 18 13:58:22 GMT-05:00 2013
User: bianchi
Dark Spectrum Present: No
Reference Spectrum Present: No
Number of Sampled Component Spectra: 1
Spectrometers: USB2+H05261
Integration Time (usec): 50000 (USB2+H05261)
Spectra Averaged: 1 (USB2+H05261)
Boxcar Smoothing: 0 (USB2+H05261)
Correct for Electrical Dark: No (USB2+H05261)
Strobe/Lamp Enabled: No (USB2+H05261)
Correct for Detector Non-linearity: No (USB2+H05261)
Correct for Stray Light: No (USB2+H05261)
Number of Pixels in Processed Spectrum: 2048
>>>>>Begin Processed Spectral Data<<<<<
365.73	0.00
365.92	0.00
366.12	0.00
366.32	0.00
366.52	0.00
366.72	0.00
366.91	0.00
367.11	0.00
367.31	0.00
367.51	0.00
367.70	0.00
367.90	0.00
368.10	0.00
368.30	0.00
368.49	0.00
368.69	0.00
368.89	0.00
369.09	0.00
369.28	0.00
369.48	0.00
369.68	0.00
369.87	0.00
370.07	0.00
370.27	0.00
370.47	0.00
370.66	77.24
370.86	114.69
371.06	119.37
371.25	229.37
371.45	161.50
371.65	149.79
371.84	205.97
372.04	154.48
372.24	119.37
372.44	105.32
372.63	238.73
372.83	217.67
373.03	208.31
373.22	175.54
373.42	215.33
373.62	231.71
373.81	198.95
374.01	271.50
374.21	201.29
374.40	224.69
374.60	292.57
374.79	346.40
374.99	290.23
375.19	322.99
375.38	304.27
375.58	262.14
375.78	273.84
375.97	241.08
376.17	327.68
376.37	245.76
376.56	278.52
376.76	257.46
376.95	330.02
377.15	212.99
377.35	229.37
377.54	325.33
377.74	299.59
377.93	191.92
378.13	320.65
378.33	348.74
378.52	320.65
378.72	346.40
378.91	297.25
379.11	334.70
379.31	362.78
379.50	320.65
379.70	262.14
379.89	355.76
380.09	236.39
380.28	311.29
380.48	355.76
380.68	297.25
380.87	283.20
381.07	332.36
381.26	374.49
381.46	339.38
381.65	353.42
381.85	388.53
382.04	280.86
382.24	315.97
382.43	407.25
382.63	330.02
382.83	299.59
383.02	369.80
383.22	330.02
383.41	365.12
383.61	374.49
383.80	355.76
384.00	346.40
384.19	351.08
384.39	301.93
384.58	297.25
384.78	416.62
384.97	409.59
385.17	383.85
385.36	334.70
385.56	461.09
385.75	425.98
385.95	365.12
386.14	461.09
386.34	470.45
386.53	407.25
386.72	404.91
386.92	327.68
387.11	395.55
387.31	376.83
387.50	407.25
387.70	376.83
387.89	360.44
388.09	367.46
388.28	351.08
388.48	458.74
388.67	475.13
388.86	472.79
389.06	465.77
389.25	491.51
389.45	463.43
389.64	414.27
389.84	482.15
390.03	393.21
390.22	486.83
390.42	461.09
390.61	543.00
390.81	465.77
391.00	484.49
391.19	524.28
391.39	425.98
391.58	454.06
391.78	554.71
391.97	500.87
392.16	470.45
392.36	566.41
392.55	554.71
392.75	514.92
392.94	554.71
393.13	592.16
393.33	477.47
393.52	578.11
393.71	571.09
393.91	599.18
394.10	561.73
394.29	580.45
394.49	557.05
394.68	543.00
394.88	526.62
395.07	643.65
395.26	641.31
395.46	692.80
395.65	613.22
395.84	627.26
396.04	610.88
396.23	580.45
396.42	622.58
396.62	662.37
396.81	582.79
397.00	674.07
397.19	641.31
397.39	674.07
397.58	638.97
397.77	674.07
397.97	748.97
398.16	653.01
398.35	664.71
398.55	683.44
398.74	641.31
398.93	702.16
399.12	734.93
399.32	648.33
399.51	709.18
399.70	692.80
399.90	781.74
400.09	772.38
400.28	692.80
400.47	786.42
400.67	858.98
400.86	868.34
401.05	765.36
401.24	723.23
401.44	821.53
401.63	786.42
401.82	784.08
402.01	814.51
402.21	819.19
402.40	873.02
402.59	873.02
402.78	812.17
402.97	844.93
403.17	858.98
403.36	863.66
403.55	863.66
403.74	945.58
403.93	891.74
404.13	971.32
404.32	842.59
404.51	861.32
404.70	912.81
404.89	915.15
405.09	828.55
405.28	1006.43
405.47	968.98
405.66	954.94
405.85	1050.90
406.05	1022.81
406.24	1083.67
406.43	1041.54
406.62	933.87
406.81	1006.43
407.00	1043.88
407.20	933.87
407.39	1027.50
407.58	1043.88
407.77	999.41
407.96	1048.56
408.15	1036.86
408.34	1050.90
408.54	1093.03
408.73	1013.45
408.92	1053.24
409.11	1137.50
409.30	1179.63
409.49	1076.65
409.68	1172.61
409.87	1181.97
410.07	1287.29
410.26	1268.57
410.45	1074.31
410.64	1268.57
410.83	1313.04
411.02	1233.46
411.21	1191.33
411.40	1245.16
411.59	1252.19
411.78	1235.80
411.98	1249.85
412.17	1348.15
412.36	1397.30
412.55	1352.83
412.74	1284.95
412.93	1282.61
413.12	1287.29
413.31	1317.72
413.50	1362.19
413.69	1481.56
413.88	1397.30
414.07	1437.09
414.26	1418.36
414.45	1460.49
414.64	1549.43
414.83	1511.99
415.02	1472.20
415.22	1605.61
415.41	1537.73
415.60	1521.35
415.79	1474.54
415.98	1549.43
416.17	1584.54
416.36	1605.61
416.55	1619.65
416.74	1586.88
416.93	1647.74
417.12	1554.12
417.31	1727.32
417.50	1722.63
417.69	1640.72
417.88	1734.34
418.07	1732.00
418.26	1645.40
418.45	1792.85
418.64	1767.10
418.83	1900.52
419.02	1820.94
419.21	1886.47
419.39	1867.75
419.58	1858.39
419.77	1811.57
419.96	1933.28
420.15	1888.81
420.34	1877.11
420.53	1994.14
420.72	1991.80
420.91	1996.48
421.10	1809.23
421.29	1942.64
421.48	1907.54
421.67	1982.43
421.86	2024.56
422.05	1989.46
422.24	1961.37
422.43	1987.11
422.61	1893.49
422.80	1982.43
422.99	2059.67
423.18	2064.35
423.37	2078.40
423.56	2022.22
423.75	2022.22
423.94	1944.99
424.13	1849.02
424.32	1987.11
424.50	2026.90
424.69	2092.44
424.88	2111.16
425.07	1998.82
425.26	1891.15
425.45	2036.27
425.64	1959.03
425.83	2083.08
426.01	2071.37
426.20	2097.12
426.39	2022.22
426.58	2186.06
426.77	2040.95
426.96	1989.46
427.15	2036.27
427.33	2092.44
427.52	2113.50
427.71	2207.13
427.90	2101.80
428.09	2195.42
428.28	2146.27
428.46	2200.10
428.65	2207.13
428.84	2188.40
429.03	2286.70
429.22	2104.14
429.40	2162.66
429.59	2289.04
429.78	2223.51
429.97	2195.42
430.16	2305.43
430.34	2218.83
430.53	2305.43
430.72	2298.41
430.91	2335.85
431.10	2359.26
431.28	2300.75
431.47	2370.96
431.66	2394.37
431.85	2279.68
432.03	2324.15
432.22	2387.35
432.41	2457.56
432.60	2392.03
432.79	2354.58
432.97	2497.35
433.16	2476.29
433.35	2356.92
433.54	2576.93
433.72	2511.39
433.91	2492.67
434.10	2441.18
434.28	2555.86
434.47	2583.95
434.66	2555.86
434.85	2509.05
435.03	2651.83
435.22	2658.85
435.41	2640.12
435.59	2642.46
435.78	2553.52
435.97	2773.53
436.16	2612.04
436.34	2663.53
436.53	2715.02
436.72	2775.88
436.90	2722.04
437.09	2675.23
437.28	2675.23
437.46	2670.55
437.65	2651.83
437.84	2853.11
438.02	2829.71
438.21	2764.17
438.40	2782.90
438.58	2876.52
438.77	2799.28
438.96	2815.66
439.14	2918.65
439.33	2949.08
439.52	3019.29
439.70	2972.48
439.89	3054.40
440.08	3038.02
440.26	3014.61
440.45	3094.19
440.63	3042.70
440.82	3096.53
441.01	3178.45
441.19	3162.06
441.38	3124.62
441.57	3215.90
441.75	3246.32
441.94	3323.56
442.12	3314.20
442.31	3353.99
442.50	3337.60
442.68	3323.56
442.87	3293.13
443.05	3351.65
443.24	3342.28
443.43	3428.88
443.61	3412.50
443.80	3386.76
443.98	3386.76
444.17	3239.30
444.35	3433.57
444.54	3442.93
444.73	3386.76
444.91	3452.29
445.10	3503.78
445.28	3412.50
445.47	3353.99
445.65	3206.53
445.84	3435.91
446.02	3377.39
446.21	3365.69
446.39	3398.46
446.58	3494.42
446.77	3431.23
446.95	3536.55
447.14	3620.81
447.32	3592.72
447.51	3501.44
447.69	3538.89
447.88	3604.42
448.06	3410.16
448.25	3613.79
448.43	3534.21
448.62	3639.53
448.80	3684.00
448.99	3545.91
449.17	3590.38
449.36	3597.40
449.54	3590.38
449.73	3861.88
449.91	3613.79
450.10	3639.53
450.28	3707.41
450.46	3625.49
450.65	3698.05
450.83	3775.28
451.02	3740.18
451.20	3709.75
451.39	3721.45
451.57	3831.46
451.76	3784.65
451.94	3850.18
452.13	3859.54
452.31	3775.28
452.49	3934.44
452.68	3847.84
452.86	3749.54
453.05	3932.10
453.23	3894.65
453.42	3927.42
453.60	3899.33
453.78	3911.04
453.97	3929.76
454.15	3857.20
454.34	3873.59
454.52	4018.70
454.70	3999.98
454.89	3925.08
455.07	3922.74
455.26	3971.89
455.44	4112.32
455.62	4159.13
455.81	4037.42
455.99	4095.94
456.17	4166.15
456.36	4095.94
456.54	4322.97
456.73	4241.05
456.91	4217.65
457.09	4241.05
457.28	4290.20
457.46	4243.39
457.64	4365.10
457.83	4397.87
458.01	4170.83
458.19	4325.31
458.38	4273.82
458.56	4449.36
458.74	4390.84
458.93	4533.62
459.11	4379.14
459.29	4421.27
459.48	4456.38
459.66	4477.44
459.84	4442.34
460.03	4669.37
460.21	4561.70
460.39	4545.32
460.57	4517.23
460.76	4430.63
460.94	4587.45
461.12	4681.07
461.31	4667.03
461.49	4578.09
461.67	4491.49
461.85	4758.31
462.04	4748.95
462.22	4648.30
462.40	4821.50
462.59	4755.97
462.77	4788.74
462.95	4788.74
463.13	4781.71
463.32	4835.55
463.50	4997.04
463.68	4795.76
463.86	4915.12
464.05	4802.78
464.23	4777.03
464.41	4919.81
464.59	4681.07
464.78	4961.94
464.96	4919.81
465.14	4882.36
465.32	5029.81
465.50	5118.75
465.69	5102.37
465.87	4919.81
466.05	4880.02
466.23	4870.65
466.41	5090.67
466.60	5132.79
466.78	5034.49
466.96	5029.81
467.14	5193.65
467.32	5069.60
467.51	5104.71
467.69	4933.85
467.87	5121.09
468.05	5219.39
468.23	5006.41
468.41	5137.48
468.60	5156.20
468.78	5156.20
468.96	5226.42
469.14	5282.59
469.32	5219.39
469.50	4990.02
469.69	5390.25
469.87	5310.68
470.05	5495.58
470.23	5434.72
470.41	5294.29
470.59	5462.81
470.77	5329.40
470.95	5633.67
471.14	5696.86
471.32	5458.13
471.50	5743.67
471.68	5687.50
471.86	5554.09
472.04	5671.12
472.22	5621.97
472.40	5678.14
472.58	5682.82
472.77	5671.12
472.95	5830.27
473.13	5860.70
473.31	5825.59
473.49	5783.46
473.67	6017.52
473.85	5902.83
474.03	5900.49
474.21	5867.72
474.39	6193.06
474.57	6054.97
474.75	6094.76
474.93	6099.44
475.12	6080.71
475.30	6200.08
475.48	6181.35
475.66	6307.74
475.84	6368.60
476.02	6293.70
476.20	6359.24
476.38	6459.88
476.56	6614.35
476.74	6497.33
476.92	6724.36
477.10	6476.26
477.28	6677.55
477.46	6630.74
477.64	6780.53
477.82	6761.81
478.00	7075.44
478.18	7012.24
478.36	7040.33
478.54	6967.77
478.72	6916.28
478.90	7194.81
479.08	6927.99
479.26	7234.60
479.44	7082.46
479.62	7398.43
479.80	7286.09
479.98	7363.33
480.16	7449.93
480.34	7576.31
480.52	7662.91
480.70	7536.52
480.88	7613.76
481.06	7789.30
481.24	7627.81
481.41	7925.05
481.59	7997.61
481.77	7948.46
481.95	7988.25
482.13	8133.36
482.31	8140.38
482.49	8325.29
482.67	8070.17
482.85	8437.63
483.03	8580.40
483.21	8685.73
483.39	8542.96
483.57	8409.54
483.74	8519.55
483.92	8973.61
484.10	8819.14
484.28	8875.31
484.46	9043.83
484.64	9320.01
484.82	8964.25
485.00	9100.00
485.18	9277.88
485.35	9242.78
485.53	9378.53
485.71	9441.72
485.89	9621.94
486.07	9565.77
486.25	9528.32
486.43	9764.72
486.61	9465.13
486.78	9797.48
486.96	9671.09
487.14	10120.48
487.32	10132.18
487.50	10129.84
487.68	10303.04
487.85	10251.55
488.03	10401.34
488.21	10558.16
488.39	10497.30
488.57	10525.39
488.75	10738.38
488.92	10782.85
489.10	10839.02
489.28	11023.92
489.46	11220.53
489.64	11101.16
489.81	11117.54
489.99	11370.32
490.17	11152.65
490.35	11492.03
490.53	11569.27
490.70	11630.12
490.88	11576.29
491.06	11882.90
491.24	11548.20
491.41	12063.12
491.59	12262.07
491.77	11768.21
491.95	12329.94
492.13	12147.38
492.30	12226.96
492.48	12191.85
492.66	12444.63
492.84	12334.62
493.01	12603.78
493.19	12620.17
493.37	12706.77
493.54	12823.80
493.72	12915.08
493.90	12872.95
494.08	13032.10
494.25	13202.96
494.43	13123.38
494.61	13259.13
494.79	13298.92
494.96	13209.98
495.14	13528.30
495.32	13476.80
495.49	13540.00
495.67	13540.00
495.85	13682.77
496.02	13727.24
496.20	13909.80
496.38	13862.99
496.55	13832.57
496.73	14228.12
496.91	14384.93
497.09	14548.77
497.26	14328.76
497.44	14230.46
497.62	14324.08
497.79	14656.43
497.97	14551.11
498.14	14579.20
498.32	14808.57
498.50	14658.78
498.67	14862.40
498.85	14630.69
499.03	15009.86
499.20	15040.28
499.38	15080.07
499.56	15229.87
499.73	15330.51
499.91	15496.69
500.08	15630.10
500.26	15201.78
500.44	15555.20
500.61	15372.64
500.79	15358.60
500.97	15583.29
501.14	15922.66
501.32	15999.90
501.49	15873.51
501.67	15939.05
501.84	15779.89
502.02	15702.65
502.20	15901.60
502.37	16177.78
502.55	16149.70
502.72	16250.34
502.90	16168.42
503.07	16236.30
503.25	16142.67
503.43	16332.26
503.60	16449.28
503.78	16582.70
503.95	16542.91
504.13	16255.02
504.30	16826.11
504.48	16580.36
504.65	16662.27
504.83	16865.90
505.01	17076.55
505.18	16847.18
505.36	17060.16
505.53	16919.73
505.71	17074.21
505.88	17102.29
506.06	17092.93
506.23	17263.79
506.41	17462.74
506.58	17336.35
506.76	17589.13
506.93	17209.96
507.11	17476.78
507.28	17539.97
507.46	17605.51
507.63	17495.50
507.81	17767.01
507.98	17813.82
508.16	17860.63
508.33	17832.54
508.50	17907.44
508.68	18197.67
508.85	18127.45
509.03	18026.81
509.20	18324.05
509.38	18450.44
509.55	18384.91
509.73	18108.72
509.90	18630.66
510.08	18162.56
510.25	18324.05
510.42	18363.84
510.60	18637.69
510.77	18588.53
510.95	18633.00
511.12	18513.64
511.30	18721.95
511.47	18913.87
511.64	18932.59
511.82	18885.78
511.99	19152.60
512.17	19166.65
512.34	19215.80
512.51	19115.16
512.69	19480.28
512.86	19171.33
513.04	19452.19
513.21	19496.66
513.38	19573.90
513.56	19599.65
513.73	19424.11
513.90	19178.35
514.08	19316.44
514.25	19318.78
514.43	19632.41
514.60	19833.70
514.77	19515.39
514.95	19906.26
515.12	19765.82
515.29	19924.98
515.47	20159.03
515.64	20044.35
515.81	20196.48
515.99	20290.10
516.16	20336.91
516.33	20208.19
516.51	20500.75
516.68	20156.69
516.85	20245.63
517.03	20308.83
517.20	20446.92
517.37	20472.67
517.54	20545.22
517.72	20493.73
517.89	20439.90
518.06	20439.90
518.24	20678.63
518.41	20718.42
518.58	20610.76
518.75	20982.90
518.93	20680.97
519.10	20912.69
519.27	21071.84
519.45	20999.29
519.62	21376.11
519.79	20919.71
519.96	21006.31
520.14	21223.98
520.31	21209.93
520.48	21233.34
520.65	21057.80
520.83	21284.83
521.00	21462.71
521.17	21451.01
521.34	21446.33
521.52	21441.65
521.69	21701.45
521.86	21640.59
522.03	21792.73
522.20	21603.14
522.38	21834.86
522.55	21717.83
522.72	21841.88
522.89	21860.60
523.07	22281.90
523.24	22317.01
523.41	22230.41
523.58	22050.19
523.75	22434.03
523.92	22134.45
524.10	22333.39
524.27	21937.84
524.44	22537.02
524.61	22611.92
524.78	22499.57
524.96	22485.53
525.13	22675.11
525.30	22328.71
525.47	22438.72
525.64	22324.03
525.81	22485.53
525.98	22747.67
526.16	22981.72
526.33	22675.11
526.50	22857.67
526.67	23136.20
526.84	23211.09
527.01	22977.04
527.18	23035.55
527.36	22834.27
527.53	23328.12
527.70	23115.13
527.87	23634.73
528.04	23215.77
528.21	23398.34
528.38	23087.04
528.55	23494.30
528.72	23040.23
528.89	23206.41
529.07	23559.83
529.24	23702.61
529.41	23372.59
529.58	23370.25
529.75	23873.46
529.92	23316.42
530.09	23686.22
530.26	23765.80
530.43	23655.79
530.60	23538.77
530.77	23777.50
530.94	23910.91
531.11	23960.06
531.28	23833.68
531.46	23604.30
531.63	23920.28
531.80	24194.12
531.97	24177.73
532.14	24166.03
532.31	24400.08
532.48	24107.52
532.65	24203.48
532.82	24065.39
532.99	24528.81
533.16	24208.16
533.33	24617.75
533.50	24238.59
533.67	24599.03
533.84	24325.19
534.01	24610.73
534.18	24299.44
534.35	24517.11
534.52	24805.00
534.69	24507.75
534.86	24372.00
535.03	24730.10
535.20	24699.67
535.37	24706.70
535.54	24554.56
535.71	24582.65
535.88	24718.40
536.05	24723.08
536.22	24702.01
536.38	25146.72
536.55	24898.62
536.72	25186.50
536.89	24570.94
537.06	25205.23
537.23	25109.27
537.40	25277.79
537.57	25163.10
537.74	25151.40
537.91	25027.35
538.08	25340.98
538.25	25338.64
538.42	25092.88
538.59	25598.44
538.75	25069.48
538.92	25387.79
539.09	25081.18
539.26	25144.38
539.43	25460.35
539.60	25539.93
539.77	25675.68
539.94	25556.31
540.11	25544.61
540.28	25645.25
540.44	25666.31
540.61	25671.00
540.78	25834.83
540.95	25874.62
541.12	25687.38
541.29	25963.56
541.46	25764.62
541.62	25827.81
541.79	25570.35
541.96	25565.67
542.13	25764.62
542.30	25755.26
542.47	25781.00
542.63	25972.92
542.80	26169.53
542.97	26380.18
543.14	26314.64
543.31	26501.89
543.48	26277.19
543.64	26366.13
543.81	26780.41
543.98	26707.85
544.15	26539.33
544.32	26733.60
544.48	26754.66
544.65	26848.29
544.82	26754.66
544.99	26096.97
545.16	26541.68
545.32	26232.72
545.49	26965.31
545.66	26642.32
545.83	27035.53
546.00	26764.03
546.16	26733.60
546.33	26792.11
546.50	26457.42
546.67	26824.88
546.83	26419.97
547.00	26834.24
547.17	26705.51
547.34	26869.35
547.50	27225.11
547.67	27508.32
547.84	26934.88
548.00	27061.27
548.17	27225.11
548.34	26892.76
548.51	27253.20
548.67	27267.24
548.84	27033.19
549.01	27253.20
549.18	27260.22
549.34	27571.51
549.51	27075.32
549.68	26874.03
549.84	27461.51
550.01	27477.89
550.18	27154.90
550.34	27517.68
550.51	27466.19
550.68	27594.92
550.84	27339.80
551.01	27601.94
551.18	27728.33
551.34	27414.69
551.51	27321.07
551.68	27314.05
551.84	27566.83
552.01	27793.86
552.18	27793.86
552.34	27674.49
552.51	27314.05
552.68	27723.65
552.84	27789.18
553.01	27983.44
553.18	27868.76
553.34	28266.65
553.51	28126.22
553.67	28105.15
553.84	27955.36
554.01	28322.82
554.17	28158.99
554.34	28107.49
554.51	27793.86
554.67	28126.22
554.84	28268.99
555.00	28243.24
555.17	28196.43
555.33	28086.43
555.50	28219.84
555.67	28046.64
555.83	28285.37
556.00	28046.64
556.16	28271.33
556.33	28299.42
556.50	28105.15
556.66	28788.59
556.83	28470.28
556.99	28596.67
557.16	28886.89
557.32	28599.01
557.49	28627.09
557.65	28350.91
557.82	28416.44
557.98	28229.20
558.15	28416.44
558.32	28498.36
558.48	28737.10
558.65	28828.38
558.81	28662.20
558.98	28467.94
559.14	28713.69
559.31	28800.29
559.47	28472.62
559.64	28898.59
559.80	28624.75
559.97	28563.90
560.13	28739.44
560.30	28802.63
560.46	28919.66
560.63	28678.58
560.79	28512.41
560.96	29010.94
561.12	28952.43
561.29	28386.02
561.45	28460.91
561.61	28655.18
561.78	28959.45
561.94	28985.19
562.11	29062.43
562.27	28929.02
562.44	29090.52
562.60	29184.14
562.77	28748.80
562.93	28673.90
563.10	28912.64
563.26	28975.83
563.42	29432.24
563.59	28912.64
563.75	29390.11
563.92	29017.96
564.08	29193.50
564.24	29146.69
564.41	28758.16
564.57	29041.37
564.74	29188.82
564.90	29165.42
565.07	28868.17
565.23	29132.65
565.39	28952.43
565.56	29263.72
565.72	29127.97
565.88	29081.16
566.05	29088.18
566.21	29371.38
566.38	29127.97
566.54	29303.51
566.70	29462.66
566.87	29509.47
567.03	29397.13
567.19	29369.04
567.36	29216.91
567.52	29146.69
567.68	29626.50
567.85	29188.82
568.01	29757.57
568.17	29289.46
568.34	29453.30
568.50	29509.47
568.66	29380.74
568.83	29666.29
568.99	29102.22
569.15	29635.86
569.32	29139.67
569.48	29156.05
569.64	29247.33
569.81	29289.46
569.97	29359.68
570.13	29619.48
570.30	29544.58
570.46	29399.47
570.62	29413.51
570.78	29415.85
570.95	29291.80
571.11	29252.02
571.27	29160.73
571.43	29266.06
571.60	29539.90
571.76	29687.36
571.92	29617.14
572.09	29490.75
572.25	29724.80
572.41	29635.86
572.57	29497.77
572.74	29596.07
572.90	29413.51
573.06	29436.92
573.22	29668.63
573.38	29460.32
573.55	29649.91
573.71	29867.58
573.87	29813.74
574.03	29722.46
574.20	29633.52
574.36	29930.77
574.52	29446.28
574.68	29415.85
574.84	29670.97
575.01	29603.10
575.17	29628.84
575.33	29427.56
575.49	29518.84
575.65	29773.95
575.82	29476.71
575.98	29745.87
576.14	29708.42
576.30	29687.36
576.46	29589.05
576.62	29460.32
576.79	29635.86
576.95	29673.31
577.11	29502.45
577.27	29607.78
577.43	29895.66
577.59	29818.42
577.75	29778.64
577.92	29944.81
578.08	29755.23
578.24	29457.98
578.40	29619.48
578.56	29673.31
578.72	30059.50
578.88	30085.25
579.04	30403.56
579.21	30003.33
579.37	30000.99
579.53	30000.99
579.69	30167.16
579.85	29518.84
580.01	29682.67
580.17	29647.57
580.33	29598.41
580.49	29394.79
580.65	29628.84
580.82	29809.06
580.98	29865.24
581.14	30005.67
581.30	30059.50
581.46	29827.79
581.62	29670.97
581.78	29841.83
581.94	29600.76
582.10	29589.05
582.26	29551.60
582.42	30043.12
582.58	29647.57
582.74	29977.58
582.90	30221.00
583.06	29933.11
583.22	29848.85
583.38	29769.27
583.54	29928.43
583.70	29951.84
583.86	29879.28
584.02	30026.73
584.18	29954.18
584.34	30323.98
584.50	29942.47
584.66	29919.07
584.82	29872.26
584.98	30162.48
585.14	29745.87
585.30	29757.57
585.46	29642.88
585.62	30171.85
585.78	29928.43
585.94	29572.67
586.10	30148.44
586.26	29401.81
586.42	30249.08
586.58	29970.56
586.74	29916.73
586.90	29743.53
587.06	29670.97
587.22	30078.22
587.38	29837.15
587.54	30209.29
587.70	30101.63
587.86	30089.93
588.02	30103.97
588.18	30398.88
588.34	30136.74
588.49	30258.45
588.65	29841.83
588.81	30033.75
588.97	29991.62
589.13	29977.58
589.29	29984.60
589.45	30375.47
589.61	30073.54
589.77	30700.81
589.93	29961.20
590.08	30209.29
590.24	30017.37
590.40	30305.26
590.56	30778.04
590.72	30192.91
590.88	30298.23
591.04	30181.21
591.20	30373.13
591.35	30391.86
591.51	30714.85
591.67	30719.53
591.83	30504.20
591.99	30305.26
592.15	30525.27
592.31	30256.11
592.46	30129.72
592.62	30216.32
592.78	30008.01
592.94	30260.79
593.10	30272.49
593.26	30490.16
593.41	30625.91
593.57	30345.05
593.73	30513.56
593.89	30810.81
594.05	30445.69
594.20	30335.68
594.36	30522.93
594.52	30029.07
594.68	30277.17
594.84	30185.89
594.99	30361.43
595.15	30096.95
595.31	30689.10
595.47	30190.57
595.62	30689.10
595.78	30553.35
595.94	30096.95
596.10	30291.21
596.25	30164.82
596.41	29830.13
596.57	30431.65
596.73	30614.21
596.88	30103.97
597.04	30459.73
597.20	30843.58
597.36	30443.35
597.51	30424.62
597.67	30576.76
597.83	30494.84
597.99	30635.27
598.14	30160.14
598.30	30302.92
598.46	30361.43
598.61	30614.21
598.77	30452.71
598.93	30944.22
599.09	30646.97
599.24	30785.07
599.40	30712.51
599.56	30677.40
599.71	30441.01
599.87	30387.18
600.03	30228.02
600.18	30448.03
600.34	30221.00
600.50	30213.98
600.65	30663.36
600.81	30988.69
600.97	30705.49
601.12	30934.86
601.28	30831.88
601.44	30377.81
601.59	30623.57
601.75	30321.64
601.91	30618.89
602.06	30380.15
602.22	30361.43
602.37	30466.75
602.53	30583.78
602.69	30668.04
602.84	30930.18
603.00	30515.90
603.16	30799.11
603.31	30520.59
603.47	30387.18
603.62	30326.32
603.78	30408.24
603.94	30305.26
604.09	30480.80
604.25	30448.03
604.40	30588.46
604.56	30764.00
604.71	31002.74
604.87	30551.01
605.03	30658.68
605.18	30979.33
605.34	30312.28
605.49	30127.38
605.65	30293.55
605.80	30092.27
605.96	30396.54
606.12	30132.06
606.27	30698.47
606.43	30511.22
606.58	30497.18
606.74	30611.87
606.89	30309.94
607.05	30831.88
607.20	30686.76
607.36	30401.22
607.51	30153.12
607.67	30195.25
607.82	30398.88
607.98	29972.90
608.13	30366.11
608.29	30169.51
608.44	30471.43
608.60	30019.71
608.75	30733.57
608.91	30441.01
609.06	30192.91
609.22	30576.76
609.37	30103.97
609.53	30473.78
609.68	30129.72
609.84	30202.27
609.99	30068.86
610.15	30506.54
610.30	30352.07
610.46	30422.28
610.61	30436.33
610.76	30466.75
610.92	30223.34
611.07	29881.62
611.23	29956.52
611.38	30052.48
611.54	29809.06
611.69	29935.45
611.84	30043.12
612.00	29933.11
612.15	30419.94
612.31	29968.22
612.46	30033.75
612.62	30462.07
612.77	30148.44
612.92	29858.21
613.08	30272.49
613.23	30375.47
613.39	29977.58
613.54	29717.78
613.69	29832.47
613.85	29909.71
614.00	29876.94
614.15	29799.70
614.31	29872.26
614.46	30010.35
614.62	29659.27
614.77	30003.33
614.92	30291.21
615.08	29542.24
615.23	29820.77
615.38	29916.73
615.54	29420.53
615.69	29942.47
615.84	29504.79
616.00	29771.61
616.15	29750.55
616.30	29584.37
616.46	29642.88
616.61	29993.97
616.76	29851.19
616.92	29696.72
617.07	29743.53
617.22	29783.32
617.37	29511.81
617.53	29905.02
617.68	29532.88
617.83	29207.55
617.99	29476.71
618.14	29153.71
618.29	29504.79
618.45	29455.64
618.60	29687.36
618.75	29780.98
618.90	29488.41
619.06	29284.78
619.21	29521.18
619.36	29675.65
619.51	29240.31
619.67	29394.79
619.82	28971.15
619.97	29233.29
620.12	29385.43
620.28	29001.58
620.43	29298.83
620.58	29322.23
620.73	29766.93
620.89	29284.78
621.04	29565.65
621.19	29212.23
621.34	29649.91
621.49	29170.10
621.65	29125.63
621.80	29298.83
621.95	28929.02
622.10	29055.41
622.25	29230.95
622.41	28961.79
622.56	29448.62
622.71	29060.09
622.86	29301.17
623.01	28964.13
623.16	29057.75
623.32	29249.67
623.47	28943.06
623.62	29172.44
623.77	28982.85
623.92	28851.78
624.07	28903.28
624.23	28610.71
624.38	29090.52
624.53	29200.52
624.68	29039.03
624.83	29378.40
624.98	29034.35
625.13	28538.15
625.29	28711.35
625.44	29022.64
625.59	28781.57
625.74	28636.45
625.89	28666.88
626.04	28797.95
626.19	28594.32
626.34	28711.35
626.49	28662.20
626.65	28753.48
626.80	28645.82
626.95	28734.76
627.10	28858.81
627.25	28744.12
627.40	28341.55
627.55	28580.28
627.70	28486.66
627.85	28460.91
628.00	28313.46
628.15	28460.91
628.30	28023.23
628.45	28290.06
628.60	28187.07
628.76	28437.51
628.91	28655.18
629.06	28322.82
629.21	28517.09
629.36	28224.52
629.51	28292.40
629.66	28254.95
629.81	27922.59
629.96	28285.37
630.11	28086.43
630.26	28144.94
630.41	27955.36
630.56	27936.63
630.71	28346.23
630.86	27962.38
631.01	28100.47
631.16	28163.67
631.31	28074.73
631.46	28208.14
631.61	27793.86
631.76	28194.09
631.91	28320.48
632.06	28037.28
632.21	27505.98
632.36	27747.05
632.51	27442.78
632.66	27887.48
632.81	27580.87
632.96	27786.84
633.10	27901.53
633.25	28311.12
633.40	27892.16
633.55	27805.56
633.70	27821.95
633.85	27758.75
634.00	27510.66
634.15	28112.17
634.30	27520.02
634.45	27784.50
634.60	27447.46
634.75	27906.21
634.90	27770.46
635.05	27931.95
635.19	27833.65
635.34	27749.39
635.49	27737.69
635.64	27571.51
635.79	27725.99
635.94	27627.68
636.09	27651.09
636.24	27260.22
636.39	27395.97
636.53	27667.47
636.68	27094.04
636.83	27503.64
636.98	27129.15
637.13	27147.87
637.28	27023.83
637.43	27461.51
637.57	27480.23
637.72	27402.99
637.87	27758.75
638.02	27412.35
638.17	27477.89
638.32	27594.92
638.46	26754.66
638.61	26815.52
638.76	26953.61
638.91	26810.84
639.06	27260.22
639.20	27300.01
639.35	27178.30
639.50	27248.52
639.65	27030.85
639.80	27028.51
639.94	27660.45
640.09	26988.72
640.24	27077.66
640.39	26897.44
640.54	27044.89
640.68	27065.96
640.83	26911.48
640.98	26773.39
641.13	26934.88
641.27	26958.29
641.42	27012.12
641.57	26831.90
641.72	26789.77
641.86	26801.47
642.01	26785.09
642.16	26993.40
642.31	26955.95
642.45	26838.92
642.60	26848.29
642.75	26129.74
642.90	26637.64
643.04	26527.63
643.19	26876.37
643.34	26909.14
643.48	26953.61
643.63	26761.69
643.78	26724.24
643.93	26792.11
644.07	26836.58
644.22	26836.58
644.37	26515.93
644.51	26506.57
644.66	26780.41
644.81	26394.22
644.95	26513.59
645.10	26368.48
645.25	26551.04
645.39	26335.71
645.54	26834.24
645.69	26782.75
645.83	26441.03
645.98	26319.32
646.13	26462.10
646.27	26888.07
646.42	26333.37
646.57	26422.31
646.71	26438.69
646.86	26382.52
647.00	26621.25
647.15	26080.59
647.30	26307.62
647.44	26162.51
647.59	26096.97
647.74	26352.09
647.88	26356.77
648.03	26307.62
648.17	26431.67
648.32	26221.02
648.47	26567.42
648.61	26150.81
648.76	26178.89
648.90	26003.35
649.05	26099.31
649.20	26677.43
649.34	26164.85
649.49	26108.68
649.63	25703.76
649.78	25633.55
649.92	25556.31
650.07	26019.74
650.21	25685.04
650.36	25993.99
650.51	25975.27
650.65	26256.13
650.80	26017.40
650.94	25605.46
651.09	25865.26
651.23	25666.31
651.38	25717.81
651.52	25832.49
651.67	25699.08
651.81	25874.62
651.96	25383.11
652.10	25659.29
652.25	25846.54
652.39	26052.50
652.54	25830.15
652.68	26096.97
652.83	25963.56
652.97	26490.18
653.12	25614.82
653.26	25579.71
653.41	25795.04
653.55	25776.32
653.70	25247.36
653.84	25628.87
653.99	25135.01
654.13	25638.23
654.27	25226.29
654.42	25348.00
654.56	25287.15
654.71	25881.64
654.85	25565.67
655.00	25369.07
655.14	25415.88
655.29	25500.14
655.43	25340.98
655.57	25420.56
655.72	24882.24
655.86	25305.87
656.01	25135.01
656.15	25025.01
656.30	25219.27
656.44	25156.08
656.58	25027.35
656.73	25041.39
656.87	25310.55
657.01	25008.62
657.16	25348.00
657.30	25500.14
657.45	25364.39
657.59	25174.80
657.73	25008.62
657.88	24847.13
658.02	24922.02
658.16	24844.79
658.31	24814.36
658.45	25057.78
658.60	24821.38
658.74	24620.10
658.88	24699.67
659.03	24769.89
659.17	24973.52
659.31	24664.57
659.46	24992.24
659.60	24903.30
659.74	24809.68
659.89	24922.02
660.03	24570.94
660.17	24662.22
660.32	24568.60
660.46	24322.85
660.60	24458.60
660.74	24364.98
660.89	24472.64
661.03	24456.26
661.17	24353.27
661.32	24505.41
661.46	24652.86
661.60	24060.71
661.74	24144.97
661.89	24580.31
662.03	24334.55
662.17	24086.45
662.31	24362.64
662.46	24180.07
662.60	24212.84
662.74	24074.75
662.88	24137.94
663.03	24285.40
663.17	23995.17
663.31	23557.49
663.45	23592.60
663.60	23723.67
663.74	23789.20
663.88	23857.08
664.02	23821.97
664.17	24056.03
664.31	23688.56
664.45	23718.99
664.59	23995.17
664.73	23578.56
664.88	24149.65
665.02	23506.00
665.16	23440.47
665.30	23601.96
665.44	23515.36
665.59	23531.75
665.73	22827.24
665.87	23019.17
666.01	23637.07
666.15	23372.59
666.29	23548.13
666.44	23386.63
666.58	22906.82
666.72	23197.05
666.86	23234.50
667.00	23264.92
667.14	23065.98
667.28	23115.13
667.43	22904.48
667.57	23204.07
667.71	22913.84
667.85	23026.19
667.99	22838.95
668.13	22888.10
668.27	23117.47
668.41	23087.04
668.56	22696.17
668.70	22946.61
668.84	23145.56
668.98	22845.97
669.12	23087.04
669.26	22661.07
669.40	22642.34
669.54	22497.23
669.68	22576.81
669.82	22473.82
669.96	22630.64
670.10	22558.08
670.25	22452.76
670.39	22569.79
670.53	22001.04
670.67	22218.71
670.81	22291.26
670.95	22059.55
671.09	22307.65
671.23	22132.11
671.37	22176.58
671.51	22441.06
671.65	22307.65
671.79	22054.87
671.93	22104.02
672.07	22270.20
672.21	21818.47
672.35	22043.17
672.49	21570.38
672.63	21661.66
672.77	21954.22
672.91	21701.45
673.05	21549.31
673.19	21600.80
673.33	21443.99
673.47	21589.10
673.61	21731.87
673.75	21399.52
673.89	21460.37
674.03	21352.71
674.17	21589.10
674.31	21443.99
674.45	21308.24
674.59	21249.72
674.73	21479.10
674.87	20992.26
675.01	21032.05
675.15	21025.03
675.29	20959.50
675.43	20720.76
675.56	20868.22
675.70	20966.52
675.84	20940.77
675.98	20271.38
676.12	20933.75
676.26	20957.16
676.40	20896.30
676.54	20315.85
676.68	20556.93
676.82	20170.74
676.96	20411.81
677.10	20470.33
677.23	20163.72
677.37	20247.97
677.51	20301.81
677.65	20173.08
677.79	19817.32
677.93	19964.77
678.07	19721.35
678.21	19981.15
678.34	19880.51
678.48	19990.52
678.62	19805.61
678.76	19896.89
678.90	19545.81
679.04	19428.79
679.18	19489.64
679.31	19557.52
679.45	19110.47
679.59	19190.05
679.73	19302.40
679.87	19105.79
680.00	19054.30
680.14	18785.14
680.28	19054.30
680.42	18892.80
680.56	19145.58
680.70	18953.66
680.83	19178.35
680.97	18862.38
681.11	18941.96
681.25	18867.06
681.39	18532.36
681.52	18448.10
681.66	18387.25
681.80	18429.38
681.94	18417.68
682.07	18649.39
682.21	18307.67
682.35	18113.41
682.49	17881.69
682.62	17937.87
682.76	18176.60
682.90	17942.55
683.04	17963.61
683.17	18349.80
683.31	18113.41
683.45	17745.94
683.59	17813.82
683.72	17682.75
683.86	17921.48
684.00	17853.61
684.13	17678.07
684.27	17743.60
684.41	17525.93
684.55	17301.24
684.68	17235.70
684.82	17071.87
684.96	17284.86
685.09	17198.26
685.23	17156.13
685.37	17057.82
685.50	17074.21
685.64	17385.50
685.78	17149.11
685.91	16915.05
686.05	16996.97
686.19	16629.51
686.32	16725.47
686.46	16725.47
686.60	16514.82
686.73	16718.45
686.87	16491.41
687.01	16329.92
687.14	16360.34
687.28	16290.13
687.42	16159.06
687.55	16250.34
687.69	16119.27
687.82	16025.65
687.96	16056.08
688.10	16049.05
688.23	16114.59
688.37	15929.69
688.50	15861.81
688.64	16025.65
688.78	15646.48
688.91	15707.34
689.05	15534.14
689.18	15831.38
689.32	15358.60
689.46	15475.62
689.59	15571.58
689.73	15356.25
689.86	15096.46
690.00	15374.98
690.13	15110.50
690.27	15089.43
690.41	15342.21
690.54	14998.15
690.68	15026.24
690.81	15337.53
690.95	15037.94
691.08	15021.56
691.22	14963.04
691.35	14707.93
691.49	15070.71
691.62	14967.73
691.76	14516.00
691.89	14656.43
692.03	14303.01
692.16	14310.04
692.30	14244.50
692.43	14361.53
692.57	14202.37
692.70	13933.21
692.84	14075.98
692.97	14190.67
693.11	13977.68
693.24	14005.77
693.38	14031.51
693.51	13879.38
693.65	13874.70
693.78	13689.79
693.92	13984.70
694.05	13547.02
694.19	13872.36
694.32	13334.03
694.45	13528.30
694.59	13280.20
694.72	13170.19
694.86	13205.30
694.99	13179.56
695.13	13207.64
695.26	13149.13
695.39	13163.17
695.53	13142.11
695.66	13004.02
695.80	12854.22
695.93	13095.30
696.07	13062.53
696.20	13240.41
696.33	13015.72
696.47	12826.14
696.60	12774.64
696.73	12809.75
696.87	12692.73
697.00	12718.47
697.14	12559.31
697.27	12624.85
697.40	12444.63
697.54	12339.30
697.67	12461.01
697.80	12028.01
697.94	12065.46
698.07	11983.54
698.21	11936.73
698.34	12222.28
698.47	11941.41
698.61	12116.95
698.74	12285.47
698.87	11845.45
699.01	11569.27
699.14	11999.93
699.27	11815.02
699.40	11723.74
699.54	11672.25
699.67	11426.50
699.80	11639.48
699.94	11286.06
700.07	11180.74
700.20	11506.07
700.34	11157.33
700.47	11351.60
700.60	11178.40
700.73	11349.26
700.87	11080.10
701.00	11140.95
701.13	11222.87
701.26	11108.18
701.40	11206.48
701.53	11014.56
701.66	11077.76
701.79	10881.15
701.93	10939.66
702.06	10796.89
702.19	10551.14
702.32	10626.03
702.46	10487.94
702.59	10331.12
702.72	10492.62
702.85	10387.30
702.99	10452.83
703.12	10473.90
703.25	10080.69
703.38	10246.87
703.51	10253.89
703.65	10307.72
703.78	10178.99
703.91	10083.03
704.04	10211.76
704.17	10108.77
704.31	10054.94
704.44	9902.81
704.57	9841.95
704.70	9635.99
704.83	9935.57
704.96	9898.13
705.10	9722.59
705.23	9596.20
>>>>>End Processed Spectral Data<<<<<
