SpectraSuite Data File
++++++++++++++++++++++++++++++++++++
Date: Fri Oct 18 13:57:57 GMT-05:00 2013
User: bianchi
Dark Spectrum Present: No
Reference Spectrum Present: No
Number of Sampled Component Spectra: 1
Spectrometers: USB2+H05261
Integration Time (usec): 50000 (USB2+H05261)
Spectra Averaged: 1 (USB2+H05261)
Boxcar Smoothing: 0 (USB2+H05261)
Correct for Electrical Dark: No (USB2+H05261)
Strobe/Lamp Enabled: No (USB2+H05261)
Correct for Detector Non-linearity: No (USB2+H05261)
Correct for Stray Light: No (USB2+H05261)
Number of Pixels in Processed Spectrum: 2048
>>>>>Begin Processed Spectral Data<<<<<
365.73	0.00
365.92	0.00
366.12	0.00
366.32	0.00
366.52	0.00
366.72	0.00
366.91	0.00
367.11	0.00
367.31	0.00
367.51	0.00
367.70	0.00
367.90	0.00
368.10	0.00
368.30	0.00
368.49	0.00
368.69	0.00
368.89	0.00
369.09	0.00
369.28	0.00
369.48	0.00
369.68	0.00
369.87	0.00
370.07	0.00
370.27	0.00
370.47	21.06
370.66	117.03
370.86	74.90
371.06	86.60
371.25	175.54
371.45	86.60
371.65	145.11
371.84	152.13
372.04	110.01
372.24	156.82
372.44	131.07
372.63	196.60
372.83	149.79
373.03	250.44
373.22	217.67
373.42	201.29
373.62	231.71
373.81	252.78
374.01	269.16
374.21	287.89
374.40	266.82
374.60	217.67
374.79	201.29
374.99	287.89
375.19	152.13
375.38	255.12
375.58	264.48
375.78	290.23
375.97	290.23
376.17	278.52
376.37	315.97
376.56	236.39
376.76	238.73
376.95	250.44
377.15	255.12
377.35	311.29
377.54	245.76
377.74	287.89
377.93	301.93
378.13	337.04
378.33	299.59
378.52	269.16
378.72	285.55
378.91	287.89
379.11	292.57
379.31	369.80
379.50	278.52
379.70	322.99
379.89	318.31
380.09	360.44
380.28	376.83
380.48	269.16
380.68	332.36
380.87	313.63
381.07	358.10
381.26	297.25
381.46	351.08
381.65	325.33
381.85	425.98
382.04	327.68
382.24	367.46
382.43	299.59
382.63	353.42
382.83	308.95
383.02	404.91
383.22	400.23
383.41	304.27
383.61	365.12
383.80	393.21
384.00	397.89
384.19	381.51
384.39	411.93
384.58	297.25
384.78	327.68
384.97	386.19
385.17	297.25
385.36	372.15
385.56	351.08
385.75	362.78
385.95	390.87
386.14	425.98
386.34	409.59
386.53	428.32
386.72	435.34
386.92	470.45
387.11	440.02
387.31	400.23
387.50	477.47
387.70	402.57
387.89	547.69
388.09	503.22
388.28	512.58
388.48	423.64
388.67	454.06
388.86	491.51
389.06	475.13
389.25	472.79
389.45	447.04
389.64	489.17
389.84	535.98
390.03	587.47
390.22	442.36
390.42	468.11
390.61	468.11
390.81	526.62
391.00	531.30
391.19	503.22
391.39	503.22
391.58	498.53
391.78	418.96
391.97	531.30
392.16	465.77
392.36	653.01
392.55	596.84
392.75	437.68
392.94	510.24
393.13	521.94
393.33	585.13
393.52	575.77
393.71	622.58
393.91	580.45
394.10	514.92
394.29	613.22
394.49	624.92
394.68	613.22
394.88	699.82
395.07	655.35
395.26	617.90
395.46	592.16
395.65	615.56
395.84	662.37
396.04	685.78
396.23	641.31
396.42	702.16
396.62	634.29
396.81	716.20
397.00	678.76
397.19	681.10
397.39	746.63
397.58	709.18
397.77	716.20
397.97	706.84
398.16	760.67
398.35	655.35
398.55	699.82
398.74	835.57
398.93	727.91
399.12	746.63
399.32	814.51
399.51	683.44
399.70	784.08
399.90	695.14
400.09	732.59
400.28	786.42
400.47	784.08
400.67	802.80
400.86	793.44
401.05	880.04
401.24	772.38
401.44	858.98
401.63	870.68
401.82	835.57
402.01	868.34
402.21	770.04
402.40	866.00
402.59	889.40
402.78	905.79
402.97	884.72
403.17	938.55
403.36	924.51
403.55	966.64
403.74	837.91
403.93	945.58
404.13	854.30
404.32	931.53
404.51	931.53
404.70	957.28
404.89	866.00
405.09	922.17
405.28	889.40
405.47	924.51
405.66	994.73
405.85	1041.54
406.05	966.64
406.24	1060.26
406.43	978.34
406.62	1036.86
406.81	1032.18
407.00	943.24
407.20	1074.31
407.39	1118.78
407.58	1025.15
407.77	1071.97
407.96	1128.14
408.15	1165.59
408.34	1137.50
408.54	1086.01
408.73	1057.92
408.92	1076.65
409.11	1015.79
409.30	1196.01
409.49	1198.35
409.68	1132.82
409.87	1132.82
410.07	1219.42
410.26	1284.95
410.45	1139.84
410.64	1226.44
410.83	1263.89
411.02	1181.97
411.21	1310.70
411.40	1310.70
411.59	1296.66
411.78	1294.32
411.98	1387.94
412.17	1310.70
412.36	1233.46
412.55	1343.47
412.74	1329.42
412.93	1486.24
413.12	1280.27
413.31	1366.87
413.50	1355.17
413.69	1474.54
413.88	1430.07
414.07	1460.49
414.26	1483.90
414.45	1521.35
414.64	1509.65
414.83	1540.07
415.02	1561.14
415.22	1577.52
415.41	1549.43
415.60	1500.28
415.79	1603.27
415.98	1659.44
416.17	1675.82
416.36	1591.56
416.55	1643.06
416.74	1584.54
416.93	1640.72
417.12	1755.40
417.31	1825.62
417.50	1696.89
417.69	1739.02
417.88	1654.76
418.07	1699.23
418.26	1774.13
418.45	1724.97
418.64	1856.04
418.83	1865.41
419.02	1806.89
419.21	1729.66
419.39	1849.02
419.58	1956.69
419.77	1790.51
419.96	1834.98
420.15	1781.15
420.34	1797.53
420.53	1914.56
420.72	2031.58
420.91	1991.80
421.10	1956.69
421.29	2045.63
421.48	2054.99
421.67	1980.09
421.86	1919.24
422.05	2026.90
422.24	1959.03
422.43	2015.20
422.61	2064.35
422.80	2029.24
422.99	2043.29
423.18	2078.40
423.37	2052.65
423.56	1998.82
423.75	2087.76
423.94	1961.37
424.13	1914.56
424.32	1956.69
424.50	2169.68
424.69	2122.87
424.88	2064.35
425.07	2148.61
425.26	2111.16
425.45	2052.65
425.64	2080.74
425.83	2127.55
426.01	2097.12
426.20	2129.89
426.39	2073.71
426.58	2118.18
426.77	2148.61
426.96	2113.50
427.15	2120.53
427.33	2087.76
427.52	2197.76
427.71	2209.47
427.90	2003.50
428.09	2246.91
428.28	2193.08
428.46	2211.81
428.65	2256.28
428.84	2298.41
429.03	2176.70
429.22	2207.13
429.40	2307.77
429.59	2307.77
429.78	2078.40
429.97	2225.85
430.16	2310.11
430.34	2342.88
430.53	2265.64
430.72	2331.17
430.91	2251.60
431.10	2314.79
431.28	2511.39
431.47	2448.20
431.66	2434.16
431.85	2530.12
432.03	2495.01
432.22	2560.55
432.41	2455.22
432.60	2534.80
432.79	2558.21
432.97	2448.20
433.16	2523.10
433.35	2457.56
433.54	2455.22
433.72	2628.42
433.91	2576.93
434.10	2553.52
434.28	2586.29
434.47	2572.25
434.66	2527.78
434.85	2623.74
435.03	2623.74
435.22	2651.83
435.41	2726.72
435.59	2658.85
435.78	2731.41
435.97	2635.44
436.16	2757.15
436.34	2733.75
436.53	2705.66
436.72	2778.22
436.90	2703.32
437.09	2663.53
437.28	2761.83
437.46	2846.09
437.65	2768.85
437.84	2736.09
438.02	2885.88
438.21	2984.18
438.40	2911.63
438.58	2928.01
438.77	2834.39
438.96	2925.67
439.14	2946.73
439.33	3063.76
439.52	2988.86
439.70	2993.55
439.89	3159.72
440.08	2991.20
440.26	3103.55
440.45	3164.40
440.63	3159.72
440.82	3169.09
441.01	3187.81
441.19	3150.36
441.38	3262.71
441.57	3295.47
441.75	3276.75
441.94	3356.33
442.12	3253.34
442.31	3325.90
442.50	3391.44
442.68	3361.01
442.87	3447.61
443.05	3286.11
443.24	3466.33
443.43	3473.36
443.61	3358.67
443.80	3461.65
443.98	3346.97
444.17	3384.41
444.35	3466.33
444.54	3527.19
444.73	3475.70
444.91	3480.38
445.10	3487.40
445.28	3534.21
445.47	3566.98
445.65	3403.14
445.84	3604.42
446.02	3597.40
446.21	3471.01
446.39	3538.89
446.58	3522.51
446.77	3637.19
446.95	3346.97
447.14	3552.93
447.32	3508.46
447.51	3435.91
447.69	3576.34
447.88	3641.87
448.06	3620.81
448.25	3625.49
448.43	3716.77
448.62	3609.11
448.80	3620.81
448.99	3768.26
449.17	3716.77
449.36	3674.64
449.54	3749.54
449.73	3836.14
449.91	3866.56
450.10	3794.01
450.28	3817.41
450.46	3815.07
450.65	3749.54
450.83	3822.09
451.02	3817.41
451.20	3815.07
451.39	3815.07
451.57	3805.71
451.76	3812.73
451.94	3749.54
452.13	3815.07
452.31	3943.80
452.49	3817.41
452.68	3904.01
452.86	3822.09
453.05	4025.72
453.23	4018.70
453.42	4014.02
453.60	3922.74
453.78	4088.92
453.97	4044.45
454.15	4037.42
454.34	4049.13
454.52	4271.48
454.70	4021.04
454.89	4133.39
455.07	4004.66
455.26	4065.51
455.44	4245.73
455.62	4236.37
455.81	4159.13
455.99	4194.24
456.17	4159.13
456.36	4168.49
456.54	4285.52
456.73	4423.61
456.91	4411.91
457.09	4454.04
457.28	4440.00
457.46	4418.93
457.64	4311.27
457.83	4388.50
458.01	4411.91
458.19	4650.64
458.38	4411.91
458.56	4521.92
458.74	4620.22
458.93	4493.83
459.11	4533.62
459.29	4454.04
459.48	4573.41
459.66	4557.02
459.84	4610.86
460.03	4667.03
460.21	4732.56
460.39	4699.80
460.57	4599.15
460.76	4557.02
460.94	4674.05
461.12	4762.99
461.31	4863.63
461.49	4685.75
461.67	4545.32
461.85	4737.24
462.04	4774.69
462.22	5184.29
462.40	4685.75
462.59	4840.23
462.77	4807.46
462.95	4849.59
463.13	4826.18
463.32	5034.49
463.50	5036.83
463.68	4770.01
463.86	4997.04
464.05	5036.83
464.23	4997.04
464.41	4954.91
464.59	5102.37
464.78	5043.85
464.96	4805.12
465.14	4959.60
465.32	4983.00
465.50	5053.22
465.69	5186.63
465.87	5032.15
466.05	5006.41
466.23	5041.51
466.41	5090.67
466.60	5217.05
466.78	5167.90
466.96	5135.14
467.14	5125.77
467.32	5165.56
467.51	5261.52
467.69	5107.05
467.87	5179.61
468.05	5338.76
468.23	5226.42
468.41	5256.84
468.60	5254.50
468.78	5455.79
468.96	5317.70
469.14	5565.79
469.32	5376.21
469.50	5448.77
469.69	5533.03
469.87	5476.85
470.05	5600.90
470.23	5483.88
470.41	5383.23
470.59	5455.79
470.77	5605.58
470.95	5474.51
471.14	5521.32
471.32	5619.63
471.50	5839.64
471.68	5767.08
471.86	5907.51
472.04	5621.97
472.22	5884.11
472.40	5837.30
472.58	5820.91
472.77	5760.06
472.95	6045.60
473.13	5856.02
473.31	5982.41
473.49	6113.48
473.67	5865.38
473.85	5942.62
474.03	6157.95
474.21	6139.23
474.39	6303.06
474.57	6141.57
474.75	6298.38
474.93	6284.34
475.12	6324.13
475.30	6153.27
475.48	6235.19
475.66	6340.51
475.84	6441.15
476.02	6403.71
476.20	6445.84
476.38	6619.04
476.56	6567.54
476.74	6796.92
476.92	6719.68
477.10	6796.92
477.28	6778.19
477.46	6906.92
477.64	6792.23
477.82	6949.05
478.00	6965.43
478.18	7260.34
478.36	7164.38
478.54	7169.06
478.72	7295.45
478.90	7311.83
479.08	7204.17
479.26	7379.71
479.44	7337.58
479.62	7531.84
479.80	7648.87
479.98	7456.95
480.16	7772.92
480.34	7777.60
480.52	7765.90
480.70	7597.38
480.88	7688.66
481.06	7894.63
481.24	7920.37
481.41	8135.70
481.59	8049.10
481.77	8105.28
481.95	8238.69
482.13	8245.71
482.31	8329.97
482.49	8411.89
482.67	8578.06
482.85	8528.91
483.03	8634.24
483.21	8779.35
483.39	8812.12
483.57	8861.27
483.74	8777.01
483.92	8945.53
484.10	8854.25
484.28	9078.94
484.46	9305.97
484.64	9263.84
484.82	9233.41
485.00	9210.01
485.18	9418.32
485.35	9614.92
485.53	9715.56
485.71	9490.87
485.89	9898.13
486.07	9860.68
486.25	9750.67
486.43	9818.55
486.61	9930.89
486.78	10061.96
486.96	10148.56
487.14	10396.66
487.32	10178.99
487.50	10530.07
487.68	10462.19
487.85	10569.86
488.03	10609.65
488.21	10871.79
488.39	10537.09
488.57	10789.87
488.75	10820.30
488.92	11232.23
489.10	11218.19
489.28	11449.90
489.46	11337.56
489.64	11377.34
489.81	11480.33
489.99	11744.81
490.17	11681.61
490.35	11751.83
490.53	11641.82
490.70	11810.34
490.88	11932.05
491.06	11960.14
491.24	12131.00
491.41	11943.75
491.59	12189.51
491.77	12294.83
491.95	12423.56
492.13	12538.25
492.30	12505.48
492.48	12702.09
492.66	12699.75
492.84	12521.87
493.01	12884.65
493.19	12926.78
493.37	12926.78
493.54	13118.70
493.72	13369.14
493.90	13217.01
494.08	13303.60
494.25	13198.28
494.43	13504.89
494.61	13650.00
494.79	13722.56
494.96	13540.00
495.14	13664.05
495.32	13853.63
495.49	13858.31
495.67	13621.92
495.85	13942.57
496.02	14307.69
496.20	14052.58
496.38	13994.06
496.55	14129.81
496.73	14670.48
496.91	14527.71
497.09	14630.69
497.26	14853.04
497.44	14817.93
497.62	14665.80
497.79	14874.10
497.97	14752.40
498.14	15161.99
498.32	14974.75
498.50	15293.06
498.67	15173.69
498.85	15145.61
499.03	15187.74
499.20	15297.74
499.38	15374.98
499.56	15747.12
499.73	15555.20
499.91	15564.56
500.08	15571.58
500.26	15817.34
500.44	15997.56
500.61	15775.21
500.79	15920.32
500.97	15957.77
501.14	16196.51
501.32	16147.36
501.49	16336.94
501.67	16327.58
501.84	16161.40
502.02	16304.17
502.20	16458.65
502.37	16451.63
502.55	16409.50
502.72	16620.14
502.90	16585.04
503.07	16292.47
503.25	16418.86
503.43	16589.72
503.60	17001.65
503.78	17006.33
503.95	17074.21
504.13	16931.44
504.30	17060.16
504.48	16800.37
504.65	17301.24
504.83	17444.01
505.01	17626.57
505.18	17324.65
505.36	17624.23
505.53	17277.83
505.71	17645.30
505.88	17422.95
506.06	17294.22
506.23	17664.02
506.41	17530.61
506.58	17776.37
506.76	17877.01
506.93	17900.42
507.11	17539.97
507.28	17741.26
507.46	18106.38
507.63	18176.60
507.81	18331.08
507.98	18235.11
508.16	17994.04
508.33	18237.45
508.50	18354.48
508.68	18464.49
508.85	18366.18
509.03	18541.72
509.20	18614.28
509.38	18871.74
509.55	18705.56
509.73	18759.39
509.90	18885.78
510.08	18434.06
510.25	18878.76
510.42	19117.50
510.60	19190.05
510.77	19229.84
510.95	19328.14
511.12	19367.93
511.30	18710.24
511.47	19255.59
511.64	19356.23
511.82	19370.27
511.99	19269.63
512.17	19824.34
512.34	19503.68
512.51	19690.93
512.69	19737.74
512.86	19751.78
513.04	19822.00
513.21	19896.89
513.38	19824.34
513.56	19894.55
513.73	20208.19
513.90	19948.39
514.08	19992.86
514.25	20156.69
514.43	20137.97
514.60	20154.35
514.77	20430.54
514.95	20273.72
515.12	19988.18
515.29	20051.37
515.47	20332.23
515.64	20629.48
515.81	20514.80
515.99	20533.52
516.16	20938.43
516.33	20659.91
516.51	21191.21
516.68	20746.51
516.85	20678.63
517.03	21015.67
517.20	20924.39
517.37	21088.23
517.54	20877.58
517.72	21270.79
517.89	21053.12
518.06	20966.52
518.24	21212.28
518.41	21214.62
518.58	21223.98
518.75	21296.53
518.93	21446.33
519.10	21422.92
519.27	21338.66
519.45	21624.21
519.62	21549.31
519.79	21668.68
519.96	21656.98
520.14	21965.93
520.31	21769.32
520.48	21701.45
520.65	21605.49
520.83	21846.56
521.00	21909.75
521.17	21942.52
521.34	22050.19
521.52	22075.93
521.69	22136.79
521.86	22188.28
522.03	22368.50
522.20	22548.72
522.38	22459.78
522.55	22155.51
522.72	22368.50
522.89	22602.55
523.07	22445.74
523.24	22651.70
523.41	22829.59
523.58	22712.56
523.75	22567.45
523.92	22658.73
524.10	22602.55
524.27	22693.83
524.44	23157.26
524.61	22979.38
524.78	23236.84
524.96	23246.20
525.13	23115.13
525.30	23431.10
525.47	23122.15
525.64	23136.20
525.81	23405.36
525.98	23503.66
526.16	23454.51
526.33	23285.99
526.50	23611.32
526.67	23353.87
526.84	23578.56
527.01	23433.44
527.18	23424.08
527.36	23786.86
527.53	23632.39
527.70	23852.40
527.87	23866.44
528.04	23381.95
528.21	24006.87
528.38	23740.05
528.55	24018.58
528.72	23601.96
528.89	24077.09
529.07	23793.89
529.24	23941.34
529.41	24119.22
529.58	24102.84
529.75	23981.13
529.92	23978.79
530.09	24173.05
530.26	24648.18
530.43	24355.61
530.60	23866.44
530.77	24226.89
530.94	24512.43
531.11	24348.59
531.28	24409.45
531.46	24224.54
531.63	24187.10
531.80	24755.85
531.97	24645.84
532.14	25008.62
532.31	24264.33
532.48	24893.94
532.65	24875.21
532.82	24407.11
532.99	24790.95
533.16	24514.77
533.33	24966.49
533.50	24933.73
533.67	25226.29
533.84	24936.07
534.01	24821.38
534.18	25074.16
534.35	25139.69
534.52	25130.33
534.69	25455.67
534.86	25228.63
535.03	25113.95
535.20	25450.99
535.37	25186.50
535.54	25537.59
535.71	25202.89
535.88	25523.54
536.05	25326.94
536.22	25553.97
536.38	25434.60
536.55	25673.34
536.72	25553.97
536.89	25914.41
537.06	25827.81
537.23	25895.69
537.40	25469.71
537.57	25713.13
537.74	25991.65
537.91	25961.22
538.08	25954.20
538.25	25982.29
538.42	26047.82
538.59	25558.65
538.75	25876.96
538.92	26157.83
539.09	26171.87
539.26	26040.80
539.43	26305.28
539.60	26277.19
539.77	26059.52
539.94	26153.15
540.11	26174.21
540.28	25949.52
540.44	26146.12
540.61	26312.30
540.78	26050.16
540.95	26415.29
541.12	26258.47
541.29	26490.18
541.46	26307.62
541.62	26127.40
541.79	26321.66
541.96	26345.07
542.13	26499.55
542.30	26553.38
542.47	26623.59
542.63	26761.69
542.80	26621.25
542.97	26754.66
543.14	27122.13
543.31	27332.78
543.48	26948.93
543.64	26899.78
543.81	27016.80
543.98	27424.06
544.15	27318.73
544.32	27330.44
544.48	27566.83
544.65	27250.86
544.82	27548.11
544.99	27026.17
545.16	27452.14
545.32	27080.00
545.49	27564.49
545.66	27323.41
545.83	27384.27
546.00	27288.31
546.16	27440.44
546.33	27344.48
546.50	27140.85
546.67	27557.47
546.83	27089.36
547.00	27669.81
547.17	27667.47
547.34	27786.84
547.50	27733.01
547.67	27772.80
547.84	27976.42
548.00	27550.45
548.17	28004.51
548.34	27725.99
548.51	28332.18
548.67	28067.70
548.84	28224.52
549.01	27840.67
549.18	27627.68
549.34	27740.03
549.51	28327.50
549.68	27866.42
549.84	27700.24
550.01	28046.64
550.18	27782.16
550.34	28521.77
550.51	28271.33
550.68	28320.48
550.84	28084.09
551.01	28002.17
551.18	28297.08
551.34	28030.26
551.51	28252.61
551.68	28037.28
551.84	28292.40
552.01	28350.91
552.18	28683.27
552.34	28046.64
552.51	28336.87
552.68	28554.54
552.84	28542.83
553.01	28458.57
553.18	28510.07
553.34	28453.89
553.51	28608.37
553.67	28727.74
553.84	28840.08
554.01	29111.58
554.17	28727.74
554.34	28634.11
554.51	28861.15
554.67	28811.99
554.84	28446.87
555.00	28737.10
555.17	28648.16
555.33	29071.79
555.50	28615.39
555.67	28802.63
555.83	29294.14
556.00	29130.31
556.16	29127.97
556.33	28809.65
556.50	28907.96
556.66	29230.95
556.83	29331.59
556.99	29347.98
557.16	29163.08
557.32	29024.98
557.49	29249.67
557.65	28985.19
557.82	28872.85
557.98	29399.47
558.15	29202.86
558.32	29387.77
558.48	28900.94
558.65	29357.34
558.81	29188.82
558.98	29371.38
559.14	29296.49
559.31	29277.76
559.47	29497.77
559.64	29329.25
559.80	29392.45
559.97	29369.04
560.13	29715.44
560.30	29460.32
560.46	29436.92
560.63	29570.33
560.79	29773.95
560.96	29755.23
561.12	29507.13
561.29	29591.39
561.45	29624.16
561.61	29706.08
561.78	29790.34
561.94	29780.98
562.11	29881.62
562.27	29497.77
562.44	29759.91
562.60	29472.03
562.77	29883.96
562.93	29876.94
563.10	29677.99
563.26	29797.36
563.42	29923.75
563.59	29443.94
563.75	29991.62
563.92	29809.06
564.08	29685.01
564.24	29830.13
564.41	29546.92
564.57	29855.87
564.74	29544.58
564.90	29965.88
565.07	29982.26
565.23	29773.95
565.39	30122.69
565.56	29694.38
565.72	29883.96
565.88	30036.09
566.05	30174.19
566.21	29874.60
566.38	29888.64
566.54	29912.05
566.70	29975.24
566.87	30202.27
567.03	30047.80
567.19	30169.51
567.36	30101.63
567.52	29965.88
567.68	30073.54
567.85	30309.94
568.01	30188.23
568.17	30469.09
568.34	30506.54
568.50	30426.96
568.66	30333.34
568.83	30316.96
568.99	30281.85
569.15	30038.44
569.32	29998.65
569.48	29954.18
569.64	30410.58
569.81	30239.72
569.97	30003.33
570.13	30349.73
570.30	30455.05
570.46	30024.39
570.62	30415.26
570.78	30022.05
570.95	30120.35
571.11	30466.75
571.27	30424.62
571.43	30087.59
571.60	30232.70
571.76	30728.89
571.92	30485.48
572.09	30541.65
572.25	30876.35
572.41	30307.60
572.57	30277.17
572.74	30822.51
572.90	29975.24
573.06	30389.52
573.22	30684.42
573.38	30562.72
573.55	30398.88
573.71	30375.47
573.87	30368.45
574.03	30712.51
574.20	30356.75
574.36	30377.81
574.52	30668.04
574.68	30174.19
574.84	30543.99
575.01	30382.49
575.17	30373.13
575.33	30380.15
575.49	30700.81
575.65	30305.26
575.82	30583.78
575.98	30471.43
576.14	30614.21
576.30	30684.42
576.46	30288.87
576.62	30426.96
576.79	30778.04
576.95	30316.96
577.11	30724.21
577.27	30457.39
577.43	30820.17
577.59	30480.80
577.75	30492.50
577.92	30431.65
578.08	30188.23
578.24	30576.76
578.40	30616.55
578.56	30677.40
578.72	30543.99
578.88	30441.01
579.04	30850.60
579.21	30244.40
579.37	31159.55
579.53	30476.12
579.69	30504.20
579.85	30651.66
580.01	30099.29
580.17	30635.27
580.33	30649.32
580.49	30616.55
580.65	31175.94
580.82	31182.96
580.98	30941.88
581.14	31091.68
581.30	30822.51
581.46	30820.17
581.62	30810.81
581.78	30497.18
581.94	30700.81
582.10	30501.86
582.26	30316.96
582.42	30693.79
582.58	30862.30
582.74	30682.08
582.90	31021.46
583.06	30691.44
583.22	30672.72
583.38	30749.96
583.54	30724.21
583.70	30300.58
583.86	30958.27
584.02	30717.19
584.18	30731.23
584.34	30761.66
584.50	30909.11
584.66	30628.25
584.82	30656.34
584.98	30665.70
585.14	30738.26
585.30	30494.84
585.46	30932.52
585.62	31087.00
585.78	30944.22
585.94	30738.26
586.10	30969.97
586.26	30796.77
586.42	31236.79
586.58	30630.59
586.74	31269.56
586.90	30497.18
587.06	30639.95
587.22	30941.88
587.38	30438.67
587.54	31358.50
587.70	31124.44
587.86	30759.32
588.02	31262.54
588.18	31110.40
588.34	30862.30
588.49	31316.37
588.65	30621.23
588.81	30838.90
588.97	31129.12
589.13	30899.75
589.29	31082.31
589.45	30958.27
589.61	31321.05
589.77	31351.48
589.93	31494.25
590.08	31611.28
590.24	31248.49
590.40	31243.81
590.56	31512.97
590.72	30810.81
590.88	31030.82
591.04	30621.23
591.20	31583.19
591.35	31487.23
591.51	31318.71
591.67	31229.77
591.83	31747.03
591.99	31180.62
592.15	31288.28
592.31	31030.82
592.46	30939.54
592.62	31346.79
592.78	30888.05
592.94	31122.10
593.10	31299.98
593.26	31505.95
593.41	31426.37
593.57	31269.56
593.73	31274.24
593.89	31496.59
594.05	30815.49
594.20	31103.38
594.36	31309.35
594.52	31665.11
594.68	31292.96
594.84	30890.39
594.99	31299.98
595.15	31077.63
595.31	31271.90
595.47	31456.80
595.62	31831.29
595.78	31257.85
595.94	31353.82
596.10	31756.39
596.25	31349.14
596.41	31115.08
596.57	31398.29
596.73	31328.07
596.88	31674.47
597.04	31187.64
597.20	31297.64
597.36	31257.85
597.51	31728.30
597.67	31339.77
597.83	31536.38
597.99	31339.77
598.14	31374.88
598.30	31077.63
598.46	31112.74
598.61	31377.22
598.77	31091.68
598.93	31747.03
599.09	31541.06
599.24	32002.14
599.40	31505.95
599.56	30951.24
599.71	31620.64
599.87	31398.29
600.03	31662.77
600.18	31426.37
600.34	31484.89
600.50	31332.75
600.65	31510.63
600.81	31468.50
600.97	31545.74
601.12	31971.72
601.28	31527.02
601.44	31929.59
601.59	32039.59
601.75	31524.68
601.91	31761.07
602.06	31297.64
602.22	31622.98
602.37	31185.30
602.53	31283.60
602.69	31697.88
602.84	31468.50
603.00	31545.74
603.16	31625.32
603.31	31910.86
603.47	31211.04
603.62	31145.51
603.78	31393.61
603.94	31325.73
604.09	31428.71
604.25	31264.88
604.40	31428.71
604.56	31662.77
604.71	32025.55
604.87	31512.97
605.03	31850.01
605.18	31496.59
605.34	31665.11
605.49	31089.34
605.65	31360.84
605.80	30670.38
605.96	31072.95
606.12	31269.56
606.27	31725.96
606.43	30988.69
606.58	31527.02
606.74	31627.66
606.89	31187.64
607.05	31349.14
607.20	31597.23
607.36	31454.46
607.51	31461.48
607.67	31456.80
607.82	31145.51
607.98	31637.02
608.13	31489.57
608.29	31367.86
608.44	31309.35
608.60	31372.54
608.75	31534.04
608.91	31496.59
609.06	31346.79
609.22	31639.36
609.37	31035.50
609.53	31178.28
609.68	31105.72
609.84	31257.85
609.99	31051.89
610.15	30525.27
610.30	31229.77
610.46	31122.10
610.61	31627.66
610.76	31164.23
610.92	31302.32
611.07	31323.39
611.23	31075.29
611.38	31264.88
611.54	31262.54
611.69	30799.11
611.84	30787.41
612.00	30698.47
612.15	30504.20
612.31	31194.66
612.46	31079.97
612.62	31016.78
612.77	30902.09
612.92	30998.06
613.08	31267.22
613.23	31072.95
613.39	30857.62
613.54	30782.73
613.69	31250.83
613.85	30740.60
614.00	31269.56
614.15	31194.66
614.31	30920.82
614.46	30937.20
614.62	31051.89
614.77	31049.55
614.92	31147.85
615.08	30721.87
615.23	30717.19
615.38	30806.13
615.54	30909.11
615.69	30782.73
615.84	30422.28
616.00	31044.87
616.15	30204.61
616.30	30270.15
616.46	31049.55
616.61	30855.28
616.76	30969.97
616.92	30424.62
617.07	30710.17
617.22	30586.12
617.37	30244.40
617.53	30349.73
617.68	30529.95
617.83	30314.62
617.99	30398.88
618.14	30607.19
618.29	30714.85
618.45	30583.78
618.60	30684.42
618.75	30483.14
618.90	30576.76
619.06	30204.61
619.21	30380.15
619.36	30375.47
619.51	30494.84
619.67	30382.49
619.82	30242.06
619.97	30010.35
620.12	30139.08
620.28	30141.42
620.43	30403.56
620.58	30415.26
620.73	30162.48
620.89	30312.28
621.04	30277.17
621.19	30450.37
621.34	30164.82
621.49	29792.68
621.65	29942.47
621.80	30005.67
621.95	29968.22
622.10	30012.69
622.25	29898.00
622.41	30096.95
622.56	30143.76
622.71	30218.66
622.86	29790.34
623.01	30242.06
623.16	29813.74
623.32	29685.01
623.47	29860.55
623.62	30199.93
623.77	29865.24
623.92	30249.08
624.07	30110.99
624.23	30192.91
624.38	30031.41
624.53	29813.74
624.68	30052.48
624.83	30127.38
624.98	30057.16
625.13	29731.83
625.29	29984.60
625.44	29958.86
625.59	29685.01
625.74	29542.24
625.89	29724.80
626.04	30043.12
626.19	29343.30
626.34	29654.59
626.49	29481.39
626.65	29289.46
626.80	29713.10
626.95	29291.80
627.10	29788.00
627.25	29645.23
627.40	29322.23
627.55	29305.85
627.70	29249.67
627.85	29345.64
628.00	29324.57
628.15	29357.34
628.30	28690.29
628.45	29448.62
628.60	29558.63
628.76	29589.05
628.91	29322.23
629.06	29626.50
629.21	29408.83
629.36	29027.32
629.51	29020.30
629.66	28851.78
629.81	29198.18
629.96	29177.12
630.11	28994.56
630.26	29088.18
630.41	28980.51
630.56	28734.76
630.71	29495.43
630.86	29043.71
631.01	28957.11
631.16	29305.85
631.31	29048.39
631.46	28687.95
631.61	29235.63
631.76	28933.70
631.91	28961.79
632.06	28856.46
632.21	28746.46
632.36	28694.97
632.51	28819.02
632.66	28804.97
632.81	28603.69
632.96	29137.33
633.10	28933.70
633.25	28938.38
633.40	28755.82
633.55	28685.61
633.70	28940.72
633.85	29039.03
634.00	28741.78
634.15	28989.88
634.30	28819.02
634.45	28472.62
634.60	28470.28
634.75	28865.83
634.90	28507.72
635.05	28774.55
635.19	28996.90
635.34	28788.59
635.49	28945.41
635.64	28734.76
635.79	28797.95
635.94	28734.76
636.09	28496.02
636.24	28507.72
636.39	28673.90
636.53	28292.40
636.68	28226.86
636.83	28439.85
636.98	28451.55
637.13	28374.31
637.28	28393.04
637.43	28156.64
637.57	28280.69
637.72	28570.92
637.87	28203.46
638.02	28524.11
638.17	28388.36
638.32	28147.28
638.46	28088.77
638.61	28112.17
638.76	27807.90
638.91	27819.61
639.06	28357.93
639.20	27817.27
639.35	28032.60
639.50	28123.88
639.65	28381.34
639.80	27852.38
639.94	27962.38
640.09	27995.15
640.24	27798.54
640.39	28325.16
640.54	27777.48
640.68	27946.00
640.83	28041.96
640.98	27632.36
641.13	27557.47
641.27	28201.11
641.42	27791.52
641.57	28006.85
641.72	27974.08
641.86	27667.47
642.01	27599.60
642.16	27730.67
642.31	27868.76
642.45	27850.03
642.60	27828.97
642.75	27400.65
642.90	27716.62
643.04	27543.42
643.19	27583.21
643.34	27517.68
643.48	27662.79
643.63	27772.80
643.78	27428.74
643.93	27613.64
644.07	27775.14
644.22	27807.90
644.37	27838.33
644.51	27833.65
644.66	27552.79
644.81	27606.62
644.95	27225.11
645.10	27424.06
645.25	27510.66
645.39	27594.92
645.54	27707.26
645.69	27550.45
645.83	27508.32
645.98	27515.34
646.13	27297.67
646.27	27278.94
646.42	27276.60
646.57	27297.67
646.71	27131.49
646.86	27428.74
647.00	26895.10
647.15	27061.27
647.30	27211.07
647.44	26944.25
647.59	27080.00
647.74	27007.44
647.88	27047.23
648.03	26965.31
648.17	27377.25
648.32	27360.86
648.47	27204.05
648.61	27180.64
648.76	27342.14
648.90	27260.22
649.05	27325.75
649.20	26895.10
649.34	26939.57
649.49	26614.23
649.63	26565.08
649.78	26857.65
649.92	26700.83
650.07	27054.25
650.21	27269.58
650.36	26918.50
650.51	26745.30
650.65	26684.45
650.80	26888.07
650.94	26579.12
651.09	26623.59
651.23	26757.00
651.38	26698.49
651.52	26803.82
651.67	26869.35
651.81	26539.33
651.96	26445.71
652.10	26424.65
652.25	26457.42
652.39	26621.25
652.54	26581.46
652.68	26593.17
652.83	26628.27
652.97	26862.33
653.12	26955.95
653.26	26962.97
653.41	26506.57
653.55	26267.83
653.70	26157.83
653.84	26356.77
653.99	26251.45
654.13	26319.32
654.27	26265.49
654.42	26202.30
654.56	26534.65
654.71	26302.94
654.85	26595.51
655.00	25986.97
655.14	26637.64
655.29	26452.73
655.43	26424.65
655.57	25759.94
655.72	26436.35
655.86	26202.30
656.01	26197.62
656.15	25883.98
656.30	25806.75
656.44	26008.03
656.58	26342.73
656.73	26099.31
656.87	25928.45
657.01	25869.94
657.16	26017.40
657.30	26309.96
657.45	25986.97
657.59	26139.10
657.73	25954.20
657.88	26237.41
658.02	26085.27
658.16	25816.11
658.31	25776.32
658.45	25469.71
658.60	25399.49
658.74	25525.88
658.88	25738.87
659.03	25678.02
659.17	26012.71
659.31	25979.95
659.46	25621.84
659.60	25860.58
659.74	25834.83
659.89	25387.79
660.03	25205.23
660.17	25727.17
660.32	25528.22
660.46	25322.26
660.60	25060.12
660.74	25280.13
660.89	25249.70
661.03	25111.61
661.17	25380.77
661.32	25205.23
661.46	25490.77
661.60	25123.31
661.74	25305.87
661.89	25102.25
662.03	24982.88
662.17	25348.00
662.31	25282.47
662.46	25364.39
662.60	25071.82
662.74	25088.20
662.88	24699.67
663.03	24753.51
663.17	24510.09
663.31	24725.42
663.45	24863.51
663.60	24987.56
663.74	24451.58
663.88	24554.56
664.02	24238.59
664.17	24744.14
664.31	24837.76
664.45	24517.11
664.59	24278.38
664.73	24753.51
664.88	24603.71
665.02	24269.01
665.16	24210.50
665.30	24156.67
665.44	24154.33
665.59	24327.53
665.73	24130.92
665.87	23955.38
666.01	23976.45
666.15	24198.80
666.29	24203.48
666.44	24353.27
666.58	23976.45
666.72	24215.18
666.86	23927.30
667.00	24093.47
667.14	23894.53
667.28	24006.87
667.43	23798.57
667.57	23964.75
667.71	23531.75
667.85	23765.80
667.99	23772.82
668.13	23882.83
668.27	23608.98
668.41	23910.91
668.56	23447.49
668.70	23536.43
668.84	24004.53
668.98	23517.70
669.12	23386.63
669.26	23754.10
669.40	23253.22
669.54	23655.79
669.68	23475.57
669.82	23225.14
669.96	23403.02
670.10	23051.94
670.25	23147.90
670.39	22937.25
670.53	23133.86
670.67	23307.05
670.81	22750.01
670.95	22757.03
671.09	23023.85
671.23	22918.53
671.37	22705.54
671.51	22993.42
671.65	22855.33
671.79	23091.73
671.93	22974.70
672.07	23101.09
672.21	22398.93
672.35	22499.57
672.49	21994.01
672.63	22139.13
672.77	22338.07
672.91	22682.13
673.05	22284.24
673.19	22492.55
673.33	22293.60
673.47	22321.69
673.61	22300.62
673.75	22628.30
673.89	22040.82
674.03	22417.65
674.17	22064.23
674.31	22104.02
674.45	22001.04
674.59	22050.19
674.73	21905.07
674.87	21790.39
675.01	21671.02
675.15	21783.37
675.29	21867.63
675.43	21507.18
675.56	21893.37
675.70	21769.32
675.84	21757.62
675.98	21088.23
676.12	21582.08
676.26	21827.84
676.40	21528.25
676.54	21099.93
676.68	21291.85
676.82	21018.01
676.96	21142.06
677.10	21319.94
677.23	21013.33
677.37	20479.69
677.51	20992.26
677.65	20690.34
677.79	20891.62
677.93	20671.61
678.07	20603.74
678.21	20456.28
678.34	20549.90
678.48	20444.58
678.62	20362.66
678.76	20053.71
678.90	20411.81
679.04	20262.02
679.18	20262.02
679.31	20056.05
679.45	19960.09
679.59	19962.43
679.73	19641.78
679.87	19592.62
680.00	19719.01
680.14	19634.75
680.28	19704.97
680.42	19433.47
680.56	19812.63
680.70	19887.53
680.83	19742.42
680.97	19655.82
681.11	19449.85
681.25	19232.18
681.39	19309.42
681.52	19316.44
681.66	19147.92
681.80	19150.26
681.94	18981.74
682.07	19253.25
682.21	18806.20
682.35	18970.04
682.49	18738.33
682.62	18888.12
682.76	18452.78
682.90	18703.22
683.04	18822.59
683.17	18623.64
683.31	18618.96
683.45	18574.49
683.59	18782.80
683.72	18405.97
683.86	18642.37
684.00	18562.79
684.13	18310.01
684.27	18050.21
684.41	17989.36
684.55	18031.49
684.68	18010.42
684.82	17610.19
684.96	17748.28
685.09	17593.81
685.23	17734.24
685.37	17579.76
685.50	17834.88
685.64	17687.43
685.78	17781.05
685.91	17752.96
686.05	17535.29
686.19	17465.08
686.32	17380.82
686.46	17160.81
686.60	16959.52
686.73	17202.94
686.87	16957.18
687.01	17022.72
687.14	16844.84
687.28	16570.99
687.42	16788.66
687.55	16662.27
687.69	16662.27
687.82	16645.89
687.96	16727.81
688.10	16465.67
688.23	16568.65
688.37	16837.81
688.50	16498.44
688.64	16542.91
688.78	16453.97
688.91	16095.86
689.05	16360.34
689.18	16215.23
689.32	16077.14
689.46	15882.88
689.59	15964.79
689.73	16081.82
689.86	15857.13
690.00	15793.94
690.13	15850.11
690.27	15538.82
690.41	15992.88
690.54	15564.56
690.68	15634.78
690.81	15665.21
690.95	15599.67
691.08	15592.65
691.22	15283.70
691.35	15641.80
691.49	15445.20
691.62	15091.77
691.76	15070.71
691.89	15054.33
692.03	14956.02
692.16	14920.92
692.30	14607.28
692.43	14815.59
692.57	14773.46
692.70	14979.43
692.84	14658.78
692.97	14567.49
693.11	14700.90
693.24	14743.03
693.38	14153.22
693.51	14525.36
693.65	14476.21
693.78	14558.13
693.92	14436.42
694.05	14396.64
694.19	14307.69
694.32	14001.08
694.45	14031.51
694.59	13832.57
694.72	13678.09
694.86	13722.56
694.99	13841.93
695.13	13666.39
695.26	13532.98
695.39	13593.83
695.53	13404.25
695.66	13645.32
695.80	13530.64
695.93	13617.24
696.07	13511.91
696.20	13593.83
696.33	13458.08
696.47	13355.10
696.60	13181.90
696.73	13207.64
696.87	13137.43
697.00	12826.14
697.14	12837.84
697.27	12800.39
697.40	12526.55
697.54	12564.00
697.67	12542.93
697.80	12699.75
697.94	12510.16
698.07	12432.93
698.21	12475.06
698.34	12683.36
698.47	12671.66
698.61	12519.53
698.74	12545.27
698.87	12643.57
699.01	12297.17
699.14	12381.43
699.27	12229.30
699.40	12318.24
699.54	12147.38
699.67	12044.40
699.80	11971.84
699.94	11887.58
700.07	11756.51
700.20	11693.32
700.34	11922.69
700.47	11735.45
700.60	11520.12
700.73	11609.06
700.87	11672.25
701.00	11527.14
701.13	11480.33
701.26	11597.35
701.40	11583.31
701.53	11520.12
701.66	11473.31
701.79	11344.58
701.93	11328.19
702.06	11026.26
702.19	11272.02
702.32	10960.73
702.46	10871.79
702.59	10918.60
702.72	10729.02
702.85	10817.96
702.99	10834.34
703.12	10703.27
703.25	10925.62
703.38	10574.54
703.51	10944.34
703.65	10614.33
703.78	10700.93
703.91	10471.56
704.04	10541.77
704.17	10483.26
704.31	10436.45
704.44	10319.42
704.57	10211.76
704.70	10244.52
704.83	9949.62
704.96	9846.63
705.10	9881.74
705.23	9856.00
>>>>>End Processed Spectral Data<<<<<
