SpectraSuite Data File
++++++++++++++++++++++++++++++++++++
Date: Fri Oct 18 13:58:42 GMT-05:00 2013
User: bianchi
Dark Spectrum Present: No
Reference Spectrum Present: No
Number of Sampled Component Spectra: 1
Spectrometers: USB2+H05261
Integration Time (usec): 50000 (USB2+H05261)
Spectra Averaged: 1 (USB2+H05261)
Boxcar Smoothing: 0 (USB2+H05261)
Correct for Electrical Dark: No (USB2+H05261)
Strobe/Lamp Enabled: No (USB2+H05261)
Correct for Detector Non-linearity: No (USB2+H05261)
Correct for Stray Light: No (USB2+H05261)
Number of Pixels in Processed Spectrum: 2048
>>>>>Begin Processed Spectral Data<<<<<
365.73	0.00
365.92	0.00
366.12	0.00
366.32	0.00
366.52	0.00
366.72	0.00
366.91	0.00
367.11	0.00
367.31	0.00
367.51	0.00
367.70	0.00
367.90	0.00
368.10	0.00
368.30	0.00
368.49	0.00
368.69	0.00
368.89	0.00
369.09	0.00
369.28	0.00
369.48	0.00
369.68	0.00
369.87	0.00
370.07	0.00
370.27	0.00
370.47	0.00
370.66	77.24
370.86	121.71
371.06	133.41
371.25	133.41
371.45	196.60
371.65	168.52
371.84	100.64
372.04	159.16
372.24	257.46
372.44	177.88
372.63	189.58
372.83	170.86
373.03	194.26
373.22	184.90
373.42	194.26
373.62	234.05
373.81	215.33
374.01	257.46
374.21	290.23
374.40	264.48
374.60	208.31
374.79	222.35
374.99	201.29
375.19	287.89
375.38	273.84
375.58	215.33
375.78	259.80
375.97	262.14
376.17	327.68
376.37	271.50
376.56	334.70
376.76	266.82
376.95	287.89
377.15	252.78
377.35	273.84
377.54	248.10
377.74	255.12
377.93	241.08
378.13	259.80
378.33	229.37
378.52	276.18
378.72	308.95
378.91	271.50
379.11	278.52
379.31	264.48
379.50	278.52
379.70	346.40
379.89	318.31
380.09	217.67
380.28	304.27
380.48	330.02
380.68	306.61
380.87	285.55
381.07	255.12
381.26	304.27
381.46	365.12
381.65	292.57
381.85	250.44
382.04	318.31
382.24	414.27
382.43	376.83
382.63	304.27
382.83	334.70
383.02	283.20
383.22	390.87
383.41	318.31
383.61	346.40
383.80	386.19
384.00	362.78
384.19	337.04
384.39	374.49
384.58	318.31
384.78	351.08
384.97	339.38
385.17	425.98
385.36	332.36
385.56	351.08
385.75	358.10
385.95	341.72
386.14	404.91
386.34	379.17
386.53	423.64
386.72	320.65
386.92	381.51
387.11	435.34
387.31	411.93
387.50	383.85
387.70	362.78
387.89	435.34
388.09	425.98
388.28	507.90
388.48	447.04
388.67	402.57
388.86	451.72
389.06	400.23
389.25	444.70
389.45	484.49
389.64	449.38
389.84	475.13
390.03	496.19
390.22	470.45
390.42	400.23
390.61	486.83
390.81	444.70
391.00	468.11
391.19	519.60
391.39	437.68
391.58	498.53
391.78	545.34
391.97	510.24
392.16	552.37
392.36	528.96
392.55	594.50
392.75	547.69
392.94	517.26
393.13	603.86
393.33	526.62
393.52	547.69
393.71	545.34
393.91	554.71
394.10	557.05
394.29	550.03
394.49	507.90
394.68	578.11
394.88	617.90
395.07	631.94
395.26	606.20
395.46	617.90
395.65	603.86
395.84	690.46
396.04	629.60
396.23	629.60
396.42	617.90
396.62	641.31
396.81	622.58
397.00	653.01
397.19	653.01
397.39	643.65
397.58	676.41
397.77	648.33
397.97	699.82
398.16	706.84
398.35	704.50
398.55	627.26
398.74	650.67
398.93	716.20
399.12	690.46
399.32	704.50
399.51	664.71
399.70	667.05
399.90	667.05
400.09	786.42
400.28	802.80
400.47	884.72
400.67	819.19
400.86	725.57
401.05	692.80
401.24	882.38
401.44	772.38
401.63	844.93
401.82	812.17
402.01	861.32
402.21	795.78
402.40	805.14
402.59	870.68
402.78	882.38
402.97	912.81
403.17	891.74
403.36	868.34
403.55	788.76
403.74	837.91
403.93	959.62
404.13	826.21
404.32	922.17
404.51	945.58
404.70	903.45
404.89	814.51
405.09	929.19
405.28	835.57
405.47	931.53
405.66	919.83
405.85	1008.77
406.05	896.43
406.24	1020.47
406.43	1088.35
406.62	1004.09
406.81	1086.01
407.00	1046.22
407.20	1032.18
407.39	1090.69
407.58	1020.47
407.77	1146.86
407.96	1102.39
408.15	1107.07
408.34	1130.48
408.54	1111.75
408.73	1074.31
408.92	1125.80
409.11	1090.69
409.30	1284.95
409.49	1149.20
409.68	1050.90
409.87	1116.44
410.07	1146.86
410.26	1198.35
410.45	1200.69
410.64	1203.04
410.83	1102.39
411.02	1268.57
411.21	1228.78
411.40	1245.16
411.59	1282.61
411.78	1233.46
411.98	1235.80
412.17	1299.00
412.36	1282.61
412.55	1308.36
412.74	1188.99
412.93	1366.87
413.12	1394.96
413.31	1446.45
413.50	1371.55
413.69	1497.94
413.88	1451.13
414.07	1413.68
414.26	1474.54
414.45	1411.34
414.64	1401.98
414.83	1519.01
415.02	1483.90
415.22	1472.20
415.41	1554.12
415.60	1650.08
415.79	1504.96
415.98	1526.03
416.17	1582.20
416.36	1589.22
416.55	1528.37
416.74	1614.97
416.93	1633.69
417.12	1629.01
417.31	1746.04
417.50	1753.06
417.69	1834.98
417.88	1687.53
418.07	1626.67
418.26	1710.93
418.45	1778.81
418.64	1760.08
418.83	1844.34
419.02	1839.66
419.21	1820.94
419.39	1795.19
419.58	1720.29
419.77	1771.79
419.96	1937.96
420.15	1853.70
420.34	1771.79
420.53	1839.66
420.72	1926.26
420.91	1996.48
421.10	1837.32
421.29	1809.23
421.48	1872.43
421.67	1970.73
421.86	1921.58
422.05	1916.90
422.24	1867.75
422.43	1956.69
422.61	1947.33
422.80	2008.18
422.99	2012.86
423.18	1977.75
423.37	1982.43
423.56	1961.37
423.75	2017.54
423.94	1930.94
424.13	1888.81
424.32	1968.39
424.50	1982.43
424.69	2066.69
424.88	2073.71
425.07	2017.54
425.26	2101.80
425.45	2092.44
425.64	2026.90
425.83	2099.46
426.01	2008.18
426.20	2038.61
426.39	2092.44
426.58	2050.31
426.77	2069.03
426.96	2104.14
427.15	2122.87
427.33	2122.87
427.52	2015.20
427.71	2169.68
427.90	2033.93
428.09	2157.97
428.28	2162.66
428.46	2127.55
428.65	2150.95
428.84	2223.51
429.03	2202.44
429.22	2097.12
429.40	2235.21
429.59	2249.25
429.78	2160.31
429.97	2214.15
430.16	2237.55
430.34	2347.56
430.53	2293.72
430.72	2303.09
430.91	2249.25
431.10	2333.51
431.28	2459.90
431.47	2429.48
431.66	2312.45
431.85	2347.56
432.03	2443.52
432.22	2420.11
432.41	2462.24
432.60	2429.48
432.79	2363.94
432.97	2443.52
433.16	2452.88
433.35	2520.76
433.54	2476.29
433.72	2537.14
433.91	2527.78
434.10	2457.56
434.28	2651.83
434.47	2574.59
434.66	2726.72
434.85	2544.16
435.03	2614.38
435.22	2609.70
435.41	2633.10
435.59	2452.88
435.78	2752.47
435.97	2647.15
436.16	2731.41
436.34	2532.46
436.53	2712.68
436.72	2733.75
436.90	2509.05
437.09	2597.99
437.28	2616.72
437.46	2640.12
437.65	2782.90
437.84	2771.19
438.02	2850.77
438.21	2787.58
438.40	2782.90
438.58	2850.77
438.77	2960.78
438.96	2857.79
439.14	2888.22
439.33	2928.01
439.52	3000.57
439.70	2874.18
439.89	3021.63
440.08	2944.39
440.26	3141.00
440.45	2944.39
440.63	3007.59
440.82	3157.38
441.01	3110.57
441.19	3197.17
441.38	3276.75
441.57	3197.17
441.75	3152.70
441.94	3173.77
442.12	3386.76
442.31	3274.41
442.50	3353.99
442.68	3283.77
442.87	3335.26
443.05	3194.83
443.24	3307.18
443.43	3412.50
443.61	3337.60
443.80	3368.03
443.98	3368.03
444.17	3218.24
444.35	3337.60
444.54	3534.21
444.73	3473.36
444.91	3459.31
445.10	3449.95
445.28	3349.31
445.47	3356.33
445.65	3461.65
445.84	3389.10
446.02	3506.12
446.21	3452.29
446.39	3461.65
446.58	3517.83
446.77	3571.66
446.95	3419.52
447.14	3482.72
447.32	3531.87
447.51	3459.31
447.69	3400.80
447.88	3410.16
448.06	3559.95
448.25	3513.14
448.43	3538.89
448.62	3494.42
448.80	3534.21
448.99	3651.24
449.17	3506.12
449.36	3604.42
449.54	3627.83
449.73	3733.15
449.91	3613.79
450.10	3740.18
450.28	3576.34
450.46	3786.99
450.65	3733.15
450.83	3836.14
451.02	3723.79
451.20	3728.47
451.39	3681.66
451.57	3747.20
451.76	3775.28
451.94	3815.07
452.13	3882.95
452.31	3894.65
452.49	3772.94
452.68	3843.16
452.86	3791.67
453.05	3817.41
453.23	3925.08
453.42	3756.56
453.60	3882.95
453.78	3794.01
453.97	3707.41
454.15	3798.69
454.34	3939.12
454.52	4002.32
454.70	3999.98
454.89	3960.19
455.07	4002.32
455.26	4173.18
455.44	4028.06
455.62	4070.19
455.81	4102.96
455.99	4161.47
456.17	4161.47
456.36	4212.96
456.54	4269.14
456.73	4318.29
456.91	4329.99
457.09	4198.92
457.28	4264.46
457.46	4245.73
457.64	4280.84
457.83	4203.60
458.01	4301.90
458.19	4458.72
458.38	4360.42
458.56	4353.40
458.74	4395.53
458.93	4362.76
459.11	4329.99
459.29	4376.80
459.48	4531.28
459.66	4454.04
459.84	4559.36
460.03	4510.21
460.21	4470.42
460.39	4461.06
460.57	4461.06
460.76	4589.79
460.94	4671.71
461.12	4596.81
461.31	4599.15
461.49	4568.73
461.67	4657.67
461.85	4709.16
462.04	4779.37
462.22	4758.31
462.40	4655.33
462.59	4840.23
462.77	4746.61
462.95	4793.42
463.13	4802.78
463.32	4891.72
463.50	4793.42
463.68	4891.72
463.86	4798.10
464.05	4615.54
464.23	4833.21
464.41	4961.94
464.59	4758.31
464.78	5109.39
464.96	4887.04
465.14	5050.88
465.32	4959.60
465.50	5060.24
465.69	5008.75
465.87	4901.08
466.05	5029.81
466.23	4945.55
466.41	4987.68
466.60	5128.11
466.78	4971.30
466.96	4987.68
467.14	4945.55
467.32	5015.77
467.51	5149.18
467.69	4861.29
467.87	5109.39
468.05	5064.92
468.23	5137.48
468.41	4978.32
468.60	5097.69
468.78	5165.56
468.96	5198.33
469.14	5327.06
469.32	5371.53
469.50	5067.26
469.69	5200.67
469.87	5434.72
470.05	5305.99
470.23	5385.57
470.41	5434.72
470.59	5427.70
470.77	5544.73
470.95	5572.82
471.14	5551.75
471.32	5493.24
471.50	5530.69
471.68	5453.45
471.86	5530.69
472.04	5764.74
472.22	5830.27
472.40	5643.03
472.58	5708.57
472.77	5795.17
472.95	5769.42
473.13	5930.92
473.31	5893.47
473.49	5781.12
473.67	5860.70
473.85	5942.62
474.03	6043.26
474.21	5987.09
474.39	5895.81
474.57	6164.97
474.75	6157.95
474.93	6328.81
475.12	6164.97
475.30	6078.37
475.48	6249.23
475.66	6179.01
475.84	6242.21
476.02	6457.54
476.20	6274.98
476.38	6347.53
476.56	6579.25
476.74	6455.20
476.92	6321.79
477.10	6335.83
477.28	6502.01
477.46	6628.40
477.64	6658.82
477.82	6661.16
478.00	6773.51
478.18	6951.39
478.36	6892.88
478.54	7136.29
478.72	7080.12
478.90	7019.27
479.08	7140.97
479.26	7016.93
479.44	7222.89
479.62	7304.81
479.80	7414.82
479.98	7321.20
480.16	7480.35
480.34	7330.56
480.52	7536.52
480.70	7775.26
480.88	7613.76
481.06	7627.81
481.24	7777.60
481.41	7613.76
481.59	7995.27
481.77	7960.16
481.95	7950.80
482.13	8025.70
482.31	8100.59
482.49	8100.59
482.67	8229.32
482.85	8454.02
483.03	8425.93
483.21	8329.97
483.39	8713.81
483.57	8561.68
483.74	8624.87
483.92	8615.51
484.10	8524.23
484.28	8784.03
484.46	8982.98
484.64	9067.24
484.82	9090.64
485.00	9303.63
485.18	9263.84
485.35	9432.36
485.53	9462.79
485.71	9404.27
485.89	9605.56
486.07	9535.34
486.25	9593.86
486.43	9706.20
486.61	9603.22
486.78	9926.21
486.96	9870.04
487.14	10108.77
487.32	9837.27
487.50	10141.54
487.68	10005.79
487.85	10333.47
488.03	10509.01
488.21	10525.39
488.39	10387.30
488.57	10415.38
488.75	10736.04
488.92	10787.53
489.10	10738.38
489.28	10967.75
489.46	11059.03
489.64	10986.47
489.81	11199.46
489.99	11150.31
490.17	11110.52
490.35	11435.86
490.53	11517.78
490.70	11463.94
490.88	11606.72
491.06	11693.32
491.24	11585.65
491.41	11796.30
491.59	11983.54
491.77	11852.47
491.95	12355.69
492.13	12025.67
492.30	12018.65
492.48	12222.28
492.66	12142.70
492.84	12297.17
493.01	12362.71
493.19	12603.78
493.37	12631.87
493.54	12662.30
493.72	12800.39
493.90	12807.41
494.08	12814.43
494.25	12919.76
494.43	12959.55
494.61	13004.02
494.79	13324.67
494.96	13434.68
495.14	13221.69
495.32	13668.73
495.49	13486.17
495.67	13617.24
495.85	13743.63
496.02	13788.10
496.20	13652.34
496.38	13668.73
496.55	13778.73
496.73	14111.09
496.91	14277.27
497.09	14106.41
497.26	14368.55
497.44	14190.67
497.62	14279.61
497.79	14710.27
497.97	14420.04
498.14	14567.49
498.32	15007.52
498.50	14743.03
498.67	14810.91
498.85	14890.49
499.03	14979.43
499.20	14878.79
499.38	15005.17
499.56	15208.80
499.73	15309.44
499.91	15124.54
500.08	15550.52
500.26	15269.66
500.44	15349.23
500.61	15176.03
500.79	15508.39
500.97	15669.89
501.14	15716.70
501.32	15653.50
501.49	15742.44
501.67	15836.06
501.84	16018.63
502.02	15934.37
502.20	15793.94
502.37	16006.92
502.55	16446.94
502.72	16180.12
502.90	15992.88
503.07	16056.08
503.25	16037.35
503.43	15967.13
503.60	16500.78
503.78	16692.70
503.95	16264.38
504.13	16444.60
504.30	16629.51
504.48	16812.07
504.65	16858.88
504.83	16961.86
505.01	17069.53
505.18	16882.28
505.36	17266.13
505.53	16847.18
505.71	17069.53
505.88	17146.76
506.06	17006.33
506.23	17444.01
506.41	17315.28
506.58	17298.90
506.76	17366.78
506.93	17448.69
507.11	17081.23
507.28	17371.46
507.46	17507.21
507.63	17544.66
507.81	17951.91
507.98	17731.90
508.16	17717.86
508.33	17685.09
508.50	17898.08
508.68	17909.78
508.85	17839.56
509.03	18008.08
509.20	18005.74
509.38	18190.64
509.55	18155.54
509.73	18291.29
509.90	18202.35
510.08	18143.83
510.25	18115.75
510.42	18380.23
510.60	18712.58
510.77	18551.09
510.95	18862.38
511.12	18728.97
511.30	19002.81
511.47	18899.83
511.64	18691.52
511.82	18525.34
511.99	18860.04
512.17	19253.25
512.34	18991.11
512.51	18813.23
512.69	19225.16
512.86	19477.94
513.04	19098.77
513.21	19428.79
513.38	19199.41
513.56	19360.91
513.73	19360.91
513.90	19447.51
514.08	19468.58
514.25	19704.97
514.43	19524.75
514.60	19627.73
514.77	19941.36
514.95	19892.21
515.12	19641.78
515.29	19707.31
515.47	19873.49
515.64	19901.58
515.81	19606.67
515.99	20056.05
516.16	20166.06
516.33	20011.58
516.51	20163.72
516.68	20346.28
516.85	20533.52
517.03	20395.43
517.20	20819.07
517.37	20704.38
517.54	20615.44
517.72	20479.69
517.89	20250.32
518.06	20699.70
518.24	20425.86
518.41	20585.01
518.58	20751.19
518.75	20596.71
518.93	20669.27
519.10	20662.25
519.27	20744.17
519.45	20617.78
519.62	20891.62
519.79	21221.64
519.96	20795.66
520.14	20865.88
520.31	20922.05
520.48	21256.75
520.65	21619.53
520.83	21448.67
521.00	21413.56
521.17	21092.91
521.34	21085.89
521.52	21696.77
521.69	21462.71
521.86	21441.65
522.03	21504.84
522.20	21661.66
522.38	21774.00
522.55	21874.65
522.72	21607.83
522.89	21940.18
523.07	22001.04
523.24	22047.85
523.41	22368.50
523.58	21846.56
523.75	22099.34
523.92	21818.47
524.10	21958.91
524.27	22424.67
524.44	22555.74
524.61	22157.85
524.78	22199.98
524.96	22202.32
525.13	22520.63
525.30	22572.13
525.47	22450.42
525.64	22345.09
525.81	22539.36
525.98	22600.21
526.16	22799.16
526.33	22525.32
526.50	23012.15
526.67	22860.01
526.84	22937.25
527.01	22438.72
527.18	22897.46
527.36	23005.13
527.53	23014.49
527.70	23246.20
527.87	22902.14
528.04	23260.24
528.21	23119.81
528.38	23150.24
528.55	22941.93
528.72	22831.93
528.89	23183.01
529.07	23503.66
529.24	23250.88
529.41	23639.41
529.58	23318.76
529.75	23335.14
529.92	23491.96
530.09	23513.02
530.26	23648.77
530.43	23573.88
530.60	23548.13
530.77	23864.10
530.94	23796.23
531.11	23381.95
531.28	23381.95
531.46	23946.02
531.63	24027.94
531.80	23910.91
531.97	23978.79
532.14	23859.42
532.31	24297.10
532.48	24063.05
532.65	24212.84
532.82	24212.84
532.99	24215.18
533.16	24051.34
533.33	24369.66
533.50	24432.85
533.67	24386.04
533.84	24154.33
534.01	24147.31
534.18	24149.65
534.35	24678.61
534.52	24285.40
534.69	24425.83
534.86	24180.07
535.03	24671.59
535.20	24575.62
535.37	24533.50
535.54	24994.58
535.71	24561.58
535.88	24758.19
536.05	24641.16
536.22	24950.11
536.38	24615.41
536.55	25025.01
536.72	24716.06
536.89	24891.60
537.06	25001.60
537.23	25158.42
537.40	24746.48
537.57	25036.71
537.74	24915.00
537.91	24915.00
538.08	25411.20
538.25	25062.46
538.42	25422.90
538.59	25120.97
538.75	25146.72
538.92	25017.99
539.09	25228.63
539.26	25472.05
539.43	25413.54
539.60	25036.71
539.77	25745.89
539.94	25523.54
540.11	25273.10
540.28	25209.91
540.44	25465.03
540.61	25450.99
540.78	25308.21
540.95	25474.39
541.12	25802.07
541.29	25378.43
541.46	25766.96
541.62	25516.52
541.79	25736.53
541.96	25575.03
542.13	25848.88
542.30	25638.23
542.47	26190.59
542.63	26122.72
542.80	26111.02
542.97	26295.92
543.14	26356.77
543.31	26136.76
543.48	25944.84
543.64	26476.14
543.81	26494.86
543.98	26389.54
544.15	26506.57
544.32	26218.68
544.48	26822.54
544.65	26324.01
544.82	26579.12
544.99	25947.18
545.16	26459.76
545.32	26361.45
545.49	26778.07
545.66	26628.27
545.83	26728.92
546.00	26714.87
546.16	26597.85
546.33	26366.13
546.50	26501.89
546.67	26448.05
546.83	26150.81
547.00	26977.01
547.17	26827.22
547.34	26551.04
547.50	26925.52
547.67	27051.91
547.84	26801.47
548.00	26920.84
548.17	26946.59
548.34	26787.43
548.51	27342.14
548.67	26899.78
548.84	27480.23
549.01	27075.32
549.18	27300.01
549.34	27040.21
549.51	27152.55
549.68	27316.39
549.84	26916.16
550.01	27082.34
550.18	27374.91
550.34	27428.74
550.51	27222.77
550.68	27562.15
550.84	27351.50
551.01	27419.38
551.18	27295.33
551.34	27264.90
551.51	27248.52
551.68	27484.91
551.84	27754.07
552.01	27491.93
552.18	27889.82
552.34	27557.47
552.51	27667.47
552.68	27356.18
552.84	27627.68
553.01	27585.55
553.18	27552.79
553.34	28175.37
553.51	27941.32
553.67	27976.42
553.84	28215.16
554.01	28329.84
554.17	27988.13
554.34	27850.03
554.51	28002.17
554.67	28144.94
554.84	27960.04
555.00	27927.27
555.17	28205.80
555.33	27924.93
555.50	28107.49
555.67	28105.15
555.83	27899.19
556.00	27798.54
556.16	27894.50
556.33	28011.53
556.50	28128.56
556.66	28526.45
556.83	28084.09
556.99	28514.75
557.16	28755.82
557.32	28563.90
557.49	28486.66
557.65	28425.81
557.82	28528.79
557.98	28552.20
558.15	28170.69
558.32	28741.78
558.48	28622.41
558.65	28603.69
558.81	28528.79
558.98	28236.22
559.14	28535.81
559.31	28240.90
559.47	28336.87
559.64	28748.80
559.80	28659.86
559.97	28299.42
560.13	28772.21
560.30	28444.53
560.46	28720.71
560.63	28467.94
560.79	28627.09
560.96	28835.40
561.12	28533.47
561.29	28655.18
561.45	28826.04
561.61	28849.44
561.78	28587.30
561.94	28790.93
562.11	28685.61
562.27	28842.42
562.44	28779.23
562.60	28687.95
562.77	29132.65
562.93	28769.86
563.10	28914.98
563.26	28680.92
563.42	28971.15
563.59	28687.95
563.75	28886.89
563.92	28690.29
564.08	28980.51
564.24	28905.62
564.41	29078.82
564.57	28945.41
564.74	29242.65
564.90	29062.43
565.07	29125.63
565.23	29347.98
565.39	28755.82
565.56	29291.80
565.72	28730.08
565.88	29039.03
566.05	29118.60
566.21	29233.29
566.38	29113.92
566.54	28912.64
566.70	29029.66
566.87	29635.86
567.03	29212.23
567.19	29502.45
567.36	29418.19
567.52	29219.25
567.68	29429.90
567.85	28870.51
568.01	29259.04
568.17	28950.09
568.34	29252.02
568.50	29324.57
568.66	29422.87
568.83	29420.53
568.99	29525.86
569.15	29144.35
569.32	29390.11
569.48	29219.25
569.64	29624.16
569.81	29434.58
569.97	29649.91
570.13	29280.10
570.30	29053.07
570.46	29153.71
570.62	29399.47
570.78	29717.78
570.95	28985.19
571.11	29577.35
571.27	29139.67
571.43	29202.86
571.60	29205.20
571.76	29575.01
571.92	29322.23
572.09	29504.79
572.25	29329.25
572.41	29427.56
572.57	29633.52
572.74	29467.34
572.90	29415.85
573.06	29607.78
573.22	29692.04
573.38	29486.07
573.55	29411.17
573.71	29558.63
573.87	29493.09
574.03	29724.80
574.20	29436.92
574.36	29355.00
574.52	29439.26
574.68	29694.38
574.84	29184.14
575.01	29680.33
575.17	29582.03
575.33	29308.19
575.49	29312.87
575.65	29757.57
575.82	29535.22
575.98	29514.16
576.14	29565.65
576.30	29530.54
576.46	29668.63
576.62	29659.27
576.79	29502.45
576.95	29099.88
577.11	29457.98
577.27	29677.99
577.43	29694.38
577.59	29930.77
577.75	29600.76
577.92	29549.26
578.08	29706.08
578.24	29589.05
578.40	29589.05
578.56	29589.05
578.72	29839.49
578.88	29869.92
579.04	30036.09
579.21	29706.08
579.37	29755.23
579.53	29467.34
579.69	29738.85
579.85	29310.53
580.01	29687.36
580.17	29642.88
580.33	29771.61
580.49	29694.38
580.65	29748.21
580.82	29773.95
580.98	29699.06
581.14	29809.06
581.30	29752.89
581.46	29968.22
581.62	29357.34
581.78	29692.04
581.94	29523.52
582.10	29551.60
582.26	29511.81
582.42	30008.01
582.58	29832.47
582.74	29755.23
582.90	29689.70
583.06	29762.25
583.22	29839.49
583.38	30242.06
583.54	29788.00
583.70	29883.96
583.86	29579.69
584.02	29539.90
584.18	29799.70
584.34	30047.80
584.50	29993.97
584.66	29720.12
584.82	29696.72
584.98	29738.85
585.14	30101.63
585.30	29701.40
585.46	29605.44
585.62	29493.09
585.78	29881.62
585.94	29448.62
586.10	30120.35
586.26	29755.23
586.42	30068.86
586.58	29900.34
586.74	29797.36
586.90	30052.48
587.06	29624.16
587.22	29923.75
587.38	29621.82
587.54	29937.79
587.70	30082.91
587.86	29898.00
588.02	29645.23
588.18	30293.55
588.34	30125.04
588.49	29591.39
588.65	29692.04
588.81	29937.79
588.97	29916.73
589.13	29586.71
589.29	29869.92
589.45	29869.92
589.61	30293.55
589.77	30300.58
589.93	30338.02
590.08	30167.16
590.24	30356.75
590.40	30127.38
590.56	30038.44
590.72	29795.02
590.88	29902.68
591.04	29956.52
591.20	30143.76
591.35	30305.26
591.51	30452.71
591.67	30197.59
591.83	30422.28
591.99	30045.46
592.15	30464.41
592.31	30384.83
592.46	30181.21
592.62	30099.29
592.78	29715.44
592.94	30078.22
593.10	30022.05
593.26	30155.46
593.41	30319.30
593.57	30480.80
593.73	30307.60
593.89	30101.63
594.05	30422.28
594.20	29954.18
594.36	30199.93
594.52	29890.98
594.68	29675.65
594.84	29804.38
594.99	30274.83
595.15	30293.55
595.31	30307.60
595.47	30174.19
595.62	30426.96
595.78	30213.98
595.94	30277.17
596.10	30387.18
596.25	30281.85
596.41	29888.64
596.57	29975.24
596.73	29694.38
596.88	30256.11
597.04	30916.14
597.20	30340.36
597.36	30089.93
597.51	30656.34
597.67	30218.66
597.83	30520.59
597.99	30176.53
598.14	30223.34
598.30	30237.38
598.46	30536.97
598.61	30148.44
598.77	30108.65
598.93	30567.40
599.09	30361.43
599.24	30969.97
599.40	30274.83
599.56	30321.64
599.71	30340.36
599.87	30668.04
600.03	30204.61
600.18	29942.47
600.34	30707.83
600.50	30525.27
600.65	30181.21
600.81	30822.51
600.97	30930.18
601.12	30866.98
601.28	30525.27
601.44	30787.41
601.59	30553.35
601.75	30323.98
601.91	30595.48
602.06	30110.99
602.22	30071.20
602.37	30087.59
602.53	30239.72
602.69	30558.03
602.84	30740.60
603.00	30321.64
603.16	30328.66
603.31	30352.07
603.47	30349.73
603.62	30380.15
603.78	30483.14
603.94	30148.44
604.09	30298.23
604.25	30579.10
604.40	30127.38
604.56	30529.95
604.71	30431.65
604.87	30431.65
605.03	30506.54
605.18	30242.06
605.34	30202.27
605.49	30438.67
605.65	30654.00
605.80	30099.29
605.96	30019.71
606.12	30192.91
606.27	30485.48
606.43	30209.29
606.58	30452.71
606.74	30455.05
606.89	30335.68
607.05	30553.35
607.20	30621.23
607.36	29872.26
607.51	30080.56
607.67	30614.21
607.82	29900.34
607.98	30118.01
608.13	30298.23
608.29	30129.72
608.44	30064.18
608.60	29855.87
608.75	30637.61
608.91	30471.43
609.06	30277.17
609.22	30742.94
609.37	29757.57
609.53	30272.49
609.68	30202.27
609.84	30314.62
609.99	30293.55
610.15	29940.13
610.30	30150.78
610.46	29921.41
610.61	30232.70
610.76	30412.92
610.92	29876.94
611.07	29956.52
611.23	30019.71
611.38	29778.64
611.54	30118.01
611.69	29895.66
611.84	30078.22
612.00	29539.90
612.15	30033.75
612.31	30061.84
612.46	30272.49
612.62	29846.51
612.77	29968.22
612.92	30113.33
613.08	29685.01
613.23	30225.68
613.39	29780.98
613.54	29689.70
613.69	29937.79
613.85	29724.80
614.00	29893.32
614.15	29584.37
614.31	29502.45
614.46	30045.46
614.62	29785.66
614.77	29591.39
614.92	29928.43
615.08	30188.23
615.23	29640.54
615.38	29970.56
615.54	29385.43
615.69	29483.73
615.84	29799.70
616.00	29668.63
616.15	29640.54
616.30	29467.34
616.46	29252.02
616.61	29734.17
616.76	29769.27
616.92	29493.09
617.07	29656.93
617.22	29240.31
617.37	29216.91
617.53	29692.04
617.68	29336.27
617.83	29184.14
617.99	29504.79
618.14	29156.05
618.29	29490.75
618.45	29661.61
618.60	29404.15
618.75	29556.28
618.90	29256.70
619.06	29298.83
619.21	29310.53
619.36	29614.80
619.51	28910.30
619.67	28849.44
619.82	28643.48
619.97	29179.46
620.12	29298.83
620.28	29151.37
620.43	29352.66
620.58	29120.95
620.73	29591.39
620.89	28973.49
621.04	29223.93
621.19	29181.80
621.34	29298.83
621.49	28811.99
621.65	29027.32
621.80	29481.39
621.95	28854.12
622.10	29139.67
622.25	29076.48
622.41	28943.06
622.56	29364.36
622.71	28919.66
622.86	28751.14
623.01	29123.29
623.16	28978.17
623.32	28601.35
623.47	29366.70
623.62	28701.99
623.77	29235.63
623.92	28931.36
624.07	28992.22
624.23	28823.70
624.38	28549.85
624.53	28978.17
624.68	28851.78
624.83	28975.83
624.98	29099.88
625.13	28687.95
625.29	28826.04
625.44	28648.16
625.59	28615.39
625.74	28474.96
625.89	28538.15
626.04	28622.41
626.19	28465.60
626.34	28587.30
626.49	28371.97
626.65	28547.51
626.80	28758.16
626.95	28332.18
627.10	28479.64
627.25	28400.06
627.40	28091.11
627.55	28109.83
627.70	28315.80
627.85	28453.89
628.00	28304.10
628.15	28402.40
628.30	28215.16
628.45	28063.02
628.60	28158.99
628.76	28212.82
628.91	28423.47
629.06	28620.07
629.21	28180.05
629.36	28554.54
629.51	28215.16
629.66	27758.75
629.81	27964.72
629.96	27948.34
630.11	28121.54
630.26	27924.93
630.41	27843.01
630.56	27845.35
630.71	28077.07
630.86	28046.64
631.01	28170.69
631.16	28397.72
631.31	28130.90
631.46	28023.23
631.61	28212.82
631.76	27955.36
631.91	27658.11
632.06	27702.58
632.21	27920.25
632.36	28016.21
632.51	27370.22
632.66	27889.82
632.81	27901.53
632.96	27807.90
633.10	27646.41
633.25	27812.59
633.40	27426.40
633.55	27683.86
633.70	27864.08
633.85	27281.28
634.00	27339.80
634.15	27714.28
634.30	27487.25
634.45	27412.35
634.60	27330.44
634.75	27644.07
634.90	27309.37
635.05	27527.04
635.19	27793.86
635.34	27995.15
635.49	27681.52
635.64	27681.52
635.79	27487.25
635.94	27587.89
636.09	27431.08
636.24	27295.33
636.39	27501.29
636.53	27335.12
636.68	27133.83
636.83	27101.06
636.98	27311.71
637.13	27292.99
637.28	27611.30
637.43	27562.15
637.57	27424.06
637.72	26831.90
637.87	27377.25
638.02	27498.95
638.17	27131.49
638.32	27276.60
638.46	26822.54
638.61	26890.41
638.76	26733.60
638.91	27042.55
639.06	27080.00
639.20	27108.08
639.35	27381.93
639.50	27094.04
639.65	27318.73
639.80	27129.15
639.94	26930.20
640.09	27239.15
640.24	27182.98
640.39	27061.27
640.54	26843.60
640.68	26417.63
640.83	26771.05
640.98	26501.89
641.13	26548.70
641.27	27005.10
641.42	26857.65
641.57	26801.47
641.72	26691.47
641.86	26595.51
642.01	26733.60
642.16	26499.55
642.31	26529.97
642.45	26441.03
642.60	26398.90
642.75	26164.85
642.90	26478.48
643.04	26218.68
643.19	26354.43
643.34	26574.44
643.48	26354.43
643.63	26476.14
643.78	26649.34
643.93	26529.97
644.07	26588.49
644.22	26441.03
644.37	26450.39
644.51	26574.44
644.66	26441.03
644.81	26169.53
644.95	26501.89
645.10	26382.52
645.25	26443.37
645.39	26845.94
645.54	26415.29
645.69	26466.78
645.83	26305.28
645.98	26101.65
646.13	26204.64
646.27	26363.79
646.42	26019.74
646.57	26235.06
646.71	26345.07
646.86	26230.38
647.00	26300.60
647.15	26214.00
647.30	26080.59
647.44	26029.10
647.59	26087.61
647.74	26029.10
647.88	25886.32
648.03	25909.73
648.17	26403.58
648.32	26206.98
648.47	26078.25
648.61	25841.85
648.76	26295.92
648.90	26127.40
649.05	25986.97
649.20	25961.22
649.34	25467.37
649.49	25891.01
649.63	25956.54
649.78	25914.41
649.92	25802.07
650.07	25891.01
650.21	26024.42
650.36	26082.93
650.51	25671.00
650.65	25942.50
650.80	25813.77
650.94	25951.86
651.09	25696.74
651.23	25560.99
651.38	25392.47
651.52	25666.31
651.67	25544.61
651.81	25785.68
651.96	25668.66
652.10	25715.47
652.25	25663.97
652.39	26263.15
652.54	25600.78
652.68	25605.46
652.83	25841.85
652.97	25872.28
653.12	25621.84
653.26	25546.95
653.41	25603.12
653.55	25462.69
653.70	25570.35
653.84	25652.27
653.99	25186.50
654.13	25446.30
654.27	25252.04
654.42	25345.66
654.56	25249.70
654.71	24929.05
654.85	25170.12
655.00	25345.66
655.14	25329.28
655.29	25434.60
655.43	25516.52
655.57	25097.56
655.72	25116.29
655.86	25184.16
656.01	25490.77
656.15	25226.29
656.30	25036.71
656.44	24900.96
656.58	24596.69
656.73	24964.15
656.87	24959.47
657.01	25184.16
657.16	25221.61
657.30	24879.89
657.45	25102.25
657.59	25153.74
657.73	25071.82
657.88	25106.93
658.02	24910.32
658.16	24741.80
658.31	25172.46
658.45	25144.38
658.60	24596.69
658.74	24821.38
658.88	24678.61
659.03	25064.80
659.17	24566.26
659.31	24673.93
659.46	24849.47
659.60	24690.31
659.74	24760.53
659.89	24297.10
660.03	24594.35
660.17	24079.43
660.32	24299.44
660.46	24484.34
660.60	24254.97
660.74	24081.77
660.89	24170.71
661.03	24095.82
661.17	24416.47
661.32	24634.14
661.46	24444.56
661.60	24360.30
661.74	24056.03
661.89	24315.83
662.03	24025.60
662.17	24201.14
662.31	23674.52
662.46	24133.26
662.60	24119.22
662.74	23922.62
662.88	23962.40
663.03	23798.57
663.17	23644.09
663.31	23283.65
663.45	23627.71
663.60	23751.76
663.74	23807.93
663.88	23981.13
664.02	23613.66
664.17	24098.16
664.31	23410.04
664.45	23676.86
664.59	23627.71
664.73	23943.68
664.88	23718.99
665.02	23480.25
665.16	23309.40
665.30	23098.75
665.44	23381.95
665.59	22904.48
665.73	23194.71
665.87	23005.13
666.01	23536.43
666.15	23346.84
666.29	23239.18
666.44	23166.62
666.58	23370.25
666.72	22852.99
666.86	23000.44
667.00	23358.55
667.14	23054.28
667.28	22871.72
667.43	22637.66
667.57	22923.21
667.71	22768.73
667.85	22867.03
667.99	22782.77
668.13	22845.97
668.27	22537.02
668.41	22719.58
668.56	22808.52
668.70	23295.35
668.84	22904.48
668.98	22574.47
669.12	22775.75
669.26	22490.21
669.40	22672.77
669.54	22530.00
669.68	22455.10
669.82	22277.22
669.96	22209.34
670.10	22396.59
670.25	22216.36
670.39	22204.66
670.53	22068.91
670.67	22171.89
670.81	22171.89
670.95	22415.31
671.09	22022.10
671.23	22263.18
671.37	22314.67
671.51	21947.20
671.65	22356.80
671.79	22031.46
671.93	22239.77
672.07	22115.72
672.21	21865.28
672.35	21357.39
672.49	21521.23
672.63	21448.67
672.77	21373.77
672.91	21603.14
673.05	21757.62
673.19	21687.40
673.33	21500.16
673.47	21163.12
673.61	21736.56
673.75	21755.28
673.89	21495.48
674.03	21331.64
674.17	21326.96
674.31	21214.62
674.45	21380.79
674.59	21163.12
674.73	20978.22
674.87	21172.49
675.01	21165.46
675.15	20641.18
675.29	20870.56
675.43	20837.79
675.56	20641.18
675.70	20915.03
675.84	20636.50
675.98	20477.35
676.12	20748.85
676.26	20814.38
676.40	20779.28
676.54	20491.39
676.68	20475.01
676.82	20446.92
676.96	20386.07
677.10	20182.44
677.23	20208.19
677.37	20182.44
677.51	20191.80
677.65	19924.98
677.79	19857.10
677.93	19782.21
678.07	19976.47
678.21	19786.89
678.34	19810.29
678.48	19866.47
678.62	19719.01
678.76	19601.99
678.90	19499.00
679.04	19349.21
679.18	19442.83
679.31	19208.78
679.45	18981.74
679.59	19126.86
679.73	18855.36
679.87	18890.46
680.00	18958.34
680.14	18838.97
680.28	18827.27
680.42	18885.78
680.56	19150.26
680.70	19047.28
680.83	18909.19
680.97	18700.88
681.11	18647.05
681.25	18436.40
681.39	18384.91
681.52	18546.40
681.66	18246.82
681.80	18314.69
681.94	18183.62
682.07	18345.12
682.21	18356.82
682.35	17958.93
682.49	18064.25
682.62	18029.15
682.76	17994.04
682.90	17886.37
683.04	17767.01
683.17	17958.93
683.31	18005.74
683.45	17994.04
683.59	17872.33
683.72	17771.69
683.86	17682.75
684.00	17666.36
684.13	17469.76
684.27	17413.59
684.41	17277.83
684.55	17039.10
684.68	17114.00
684.82	16908.03
684.96	17263.79
685.09	16961.86
685.23	16844.84
685.37	17153.79
685.50	17099.95
685.64	16828.45
685.78	16992.29
685.91	16936.12
686.05	17064.85
686.19	16582.70
686.32	17165.49
686.46	16486.73
686.60	16554.61
686.73	16664.61
686.87	16196.51
687.01	16299.49
687.14	16547.59
687.28	15934.37
687.42	16198.85
687.55	16318.22
687.69	15932.03
687.82	15864.15
687.96	15845.43
688.10	15791.59
688.23	15761.17
688.37	15735.42
688.50	16020.97
688.64	15960.11
688.78	15964.79
688.91	15510.73
689.05	15452.22
689.18	15377.32
689.32	15367.96
689.46	15344.55
689.59	15286.04
689.73	15356.25
689.86	15346.89
690.00	15171.35
690.13	15005.17
690.27	15098.80
690.41	15119.86
690.54	15330.51
690.68	15061.35
690.81	15021.56
690.95	15051.99
691.08	15037.94
691.22	14876.44
691.35	14960.70
691.49	14897.51
691.62	14813.25
691.76	14630.69
691.89	14347.48
692.03	14272.59
692.16	14120.45
692.30	14160.24
692.43	14230.46
692.57	13912.14
692.70	14185.99
692.84	14223.44
692.97	14080.66
693.11	14073.64
693.24	14190.67
693.38	13982.36
693.51	13973.00
693.65	13895.76
693.78	13724.90
693.92	13752.99
694.05	13596.17
694.19	13703.84
694.32	13603.19
694.45	13235.73
694.59	13259.13
694.72	13301.26
694.86	13303.60
694.99	13425.31
695.13	13364.46
695.26	13069.55
695.39	13132.75
695.53	13156.15
695.66	12940.82
695.80	12814.43
695.93	13099.98
696.07	13242.75
696.20	12875.29
696.33	12800.39
696.47	12868.27
696.60	12793.37
696.73	12594.42
696.87	12578.04
697.00	12498.46
697.14	12418.88
697.27	12292.49
697.40	12327.60
697.54	12512.50
697.67	12091.21
697.80	12088.87
697.94	12149.72
698.07	12102.91
698.21	12123.98
698.34	12056.10
698.47	12159.08
698.61	11934.39
698.74	12020.99
698.87	12287.81
699.01	12044.40
699.14	11733.11
699.27	11646.51
699.40	11793.96
699.54	11712.04
699.67	11410.11
699.80	11454.58
699.94	11398.41
700.07	11363.30
700.20	11365.64
700.34	11356.28
700.47	11211.17
700.60	11236.91
700.73	11215.85
700.87	11220.53
701.00	10883.49
701.13	10960.73
701.26	10974.77
701.40	11035.63
701.53	10988.82
701.66	10991.16
701.79	10839.02
701.93	10848.38
702.06	10745.40
702.19	10609.65
702.32	10485.60
702.46	10672.84
702.59	10333.47
702.72	10494.96
702.85	10347.51
702.99	10188.35
703.12	10120.48
703.25	10328.78
703.38	10394.32
703.51	10331.12
703.65	10307.72
703.78	9991.75
703.91	10071.33
704.04	10057.28
704.17	10061.96
704.31	9987.07
704.44	9799.82
704.57	9975.36
704.70	9727.27
704.83	9568.11
704.96	9530.66
705.10	9551.73
705.23	9570.45
>>>>>End Processed Spectral Data<<<<<
