SpectraSuite Data File
++++++++++++++++++++++++++++++++++++
Date: Fri Oct 18 13:58:37 GMT-05:00 2013
User: bianchi
Dark Spectrum Present: No
Reference Spectrum Present: No
Number of Sampled Component Spectra: 1
Spectrometers: USB2+H05261
Integration Time (usec): 50000 (USB2+H05261)
Spectra Averaged: 1 (USB2+H05261)
Boxcar Smoothing: 0 (USB2+H05261)
Correct for Electrical Dark: No (USB2+H05261)
Strobe/Lamp Enabled: No (USB2+H05261)
Correct for Detector Non-linearity: No (USB2+H05261)
Correct for Stray Light: No (USB2+H05261)
Number of Pixels in Processed Spectrum: 2048
>>>>>Begin Processed Spectral Data<<<<<
365.73	0.00
365.92	0.00
366.12	0.00
366.32	0.00
366.52	0.00
366.72	0.00
366.91	0.00
367.11	0.00
367.31	0.00
367.51	0.00
367.70	0.00
367.90	0.00
368.10	0.00
368.30	0.00
368.49	0.00
368.69	0.00
368.89	0.00
369.09	0.00
369.28	0.00
369.48	0.00
369.68	0.00
369.87	0.00
370.07	0.00
370.27	0.00
370.47	0.00
370.66	95.96
370.86	79.58
371.06	124.05
371.25	196.60
371.45	72.56
371.65	98.30
371.84	140.43
372.04	161.50
372.24	79.58
372.44	173.20
372.63	154.48
372.83	229.37
373.03	224.69
373.22	196.60
373.42	250.44
373.62	215.33
373.81	229.37
374.01	306.61
374.21	234.05
374.40	236.39
374.60	262.14
374.79	266.82
374.99	264.48
375.19	212.99
375.38	301.93
375.58	264.48
375.78	283.20
375.97	245.76
376.17	222.35
376.37	311.29
376.56	330.02
376.76	255.12
376.95	241.08
377.15	341.72
377.35	276.18
377.54	376.83
377.74	245.76
377.93	372.15
378.13	330.02
378.33	353.42
378.52	304.27
378.72	273.84
378.91	351.08
379.11	290.23
379.31	318.31
379.50	330.02
379.70	369.80
379.89	332.36
380.09	248.10
380.28	308.95
380.48	287.89
380.68	315.97
380.87	320.65
381.07	360.44
381.26	355.76
381.46	304.27
381.65	271.50
381.85	294.91
382.04	330.02
382.24	322.99
382.43	428.32
382.63	255.12
382.83	341.72
383.02	367.46
383.22	369.80
383.41	348.74
383.61	341.72
383.80	339.38
384.00	341.72
384.19	276.18
384.39	348.74
384.58	379.17
384.78	388.53
384.97	414.27
385.17	376.83
385.36	369.80
385.56	386.19
385.75	334.70
385.95	442.36
386.14	381.51
386.34	381.51
386.53	454.06
386.72	372.15
386.92	479.81
387.11	465.77
387.31	425.98
387.50	409.59
387.70	365.12
387.89	430.66
388.09	442.36
388.28	498.53
388.48	468.11
388.67	393.21
388.86	510.24
389.06	489.17
389.25	383.85
389.45	503.22
389.64	463.43
389.84	557.05
390.03	477.47
390.22	470.45
390.42	505.56
390.61	430.66
390.81	505.56
391.00	519.60
391.19	472.79
391.39	500.87
391.58	531.30
391.78	440.02
391.97	538.32
392.16	521.94
392.36	594.50
392.55	587.47
392.75	519.60
392.94	526.62
393.13	477.47
393.33	585.13
393.52	550.03
393.71	496.19
393.91	660.03
394.10	559.39
394.29	564.07
394.49	608.54
394.68	519.60
394.88	571.09
395.07	592.16
395.26	643.65
395.46	643.65
395.65	634.29
395.84	608.54
396.04	622.58
396.23	634.29
396.42	667.05
396.62	615.56
396.81	617.90
397.00	653.01
397.19	645.99
397.39	653.01
397.58	718.54
397.77	655.35
397.97	683.44
398.16	770.04
398.35	688.12
398.55	704.50
398.74	657.69
398.93	781.74
399.12	777.06
399.32	732.59
399.51	706.84
399.70	683.44
399.90	746.63
400.09	709.18
400.28	800.46
400.47	800.46
400.67	777.06
400.86	744.29
401.05	868.34
401.24	739.61
401.44	784.08
401.63	777.06
401.82	814.51
402.01	758.33
402.21	784.08
402.40	844.93
402.59	884.72
402.78	795.78
402.97	873.02
403.17	798.12
403.36	901.11
403.55	905.79
403.74	922.17
403.93	919.83
404.13	976.00
404.32	901.11
404.51	823.87
404.70	971.32
404.89	917.49
405.09	952.60
405.28	931.53
405.47	971.32
405.66	912.81
405.85	997.07
406.05	973.66
406.24	1022.81
406.43	1001.75
406.62	1053.24
406.81	1055.58
407.00	1008.77
407.20	1090.69
407.39	1015.79
407.58	1097.71
407.77	1139.84
407.96	1130.48
408.15	971.32
408.34	1151.54
408.54	1071.97
408.73	1174.95
408.92	1107.07
409.11	1053.24
409.30	1221.76
409.49	1109.41
409.68	1125.80
409.87	1139.84
410.07	1156.22
410.26	1224.10
410.45	1203.04
410.64	1217.08
410.83	1233.46
411.02	1226.44
411.21	1205.38
411.40	1268.57
411.59	1387.94
411.78	1294.32
411.98	1247.51
412.17	1277.93
412.36	1296.66
412.55	1345.81
412.74	1385.60
412.93	1371.55
413.12	1294.32
413.31	1439.43
413.50	1357.51
413.69	1394.96
413.88	1437.09
414.07	1458.15
414.26	1462.83
414.45	1472.20
414.64	1383.26
414.83	1497.94
415.02	1469.86
415.22	1451.13
415.41	1586.88
415.60	1537.73
415.79	1596.25
415.98	1586.88
416.17	1605.61
416.36	1533.05
416.55	1551.78
416.74	1750.72
416.93	1593.90
417.12	1612.63
417.31	1729.66
417.50	1666.46
417.69	1647.74
417.88	1804.55
418.07	1739.02
418.26	1757.74
418.45	1802.21
418.64	1916.90
418.83	1727.32
419.02	1792.85
419.21	1867.75
419.39	1816.26
419.58	1739.02
419.77	1806.89
419.96	1750.72
420.15	1867.75
420.34	1874.77
420.53	1792.85
420.72	1895.83
420.91	1877.11
421.10	1856.04
421.29	2005.84
421.48	1928.60
421.67	1928.60
421.86	1879.45
422.05	1919.24
422.24	2024.56
422.43	2005.84
422.61	1954.35
422.80	1928.60
422.99	2029.24
423.18	2036.27
423.37	1977.75
423.56	1959.03
423.75	2083.08
423.94	1991.80
424.13	1975.41
424.32	1844.34
424.50	1966.05
424.69	2026.90
424.88	2038.61
425.07	2001.16
425.26	1942.64
425.45	2029.24
425.64	2033.93
425.83	2012.86
426.01	2059.67
426.20	1926.26
426.39	2066.69
426.58	2033.93
426.77	2155.63
426.96	2120.53
427.15	2083.08
427.33	2043.29
427.52	2207.13
427.71	2073.71
427.90	2111.16
428.09	2165.00
428.28	2150.95
428.46	2186.06
428.65	2307.77
428.84	2239.89
429.03	2265.64
429.22	2272.66
429.40	2312.45
429.59	2214.15
429.78	2113.50
429.97	2279.68
430.16	2275.00
430.34	2195.42
430.53	2363.94
430.72	2338.20
430.91	2300.75
431.10	2389.69
431.28	2424.80
431.47	2497.35
431.66	2502.03
431.85	2335.85
432.03	2485.65
432.22	2469.27
432.41	2464.58
432.60	2408.41
432.79	2499.69
432.97	2483.31
433.16	2359.26
433.35	2333.51
433.54	2516.08
433.72	2483.31
433.91	2497.35
434.10	2513.74
434.28	2523.10
434.47	2572.25
434.66	2679.91
434.85	2565.23
435.03	2492.67
435.22	2719.70
435.41	2710.34
435.59	2600.34
435.78	2612.04
435.97	2698.64
436.16	2705.66
436.34	2691.62
436.53	2696.30
436.72	2708.00
436.90	2626.08
437.09	2808.64
437.28	2715.02
437.46	2761.83
437.65	2738.43
437.84	2696.30
438.02	2729.06
438.21	2808.64
438.40	2691.62
438.58	2878.86
438.77	3002.91
438.96	2897.58
439.14	2951.42
439.33	2972.48
439.52	2904.60
439.70	3056.74
439.89	2972.48
440.08	3080.14
440.26	3091.85
440.45	3087.17
440.63	3145.68
440.82	3166.74
441.01	3129.30
441.19	3117.59
441.38	3225.26
441.57	3243.98
441.75	3211.22
441.94	3262.71
442.12	3321.22
442.31	3281.43
442.50	3377.39
442.68	3286.11
442.87	3267.39
443.05	3440.59
443.24	3346.97
443.43	3382.07
443.61	3332.92
443.80	3433.57
443.98	3290.79
444.17	3166.74
444.35	3358.67
444.54	3410.16
444.73	3447.61
444.91	3445.27
445.10	3410.16
445.28	3428.88
445.47	3424.20
445.65	3424.20
445.84	3508.46
446.02	3499.10
446.21	3531.87
446.39	3506.12
446.58	3686.34
446.77	3372.71
446.95	3524.85
447.14	3421.86
447.32	3627.83
447.51	3583.36
447.69	3630.17
447.88	3569.32
448.06	3442.93
448.25	3440.59
448.43	3630.17
448.62	3559.95
448.80	3421.86
448.99	3536.55
449.17	3595.06
449.36	3557.61
449.54	3557.61
449.73	3749.54
449.91	3681.66
450.10	3648.90
450.28	3761.24
450.46	3700.39
450.65	3707.41
450.83	3684.00
451.02	3597.40
451.20	3702.73
451.39	3889.97
451.57	3765.92
451.76	3569.32
451.94	3831.46
452.13	4004.66
452.31	3782.31
452.49	3817.41
452.68	3969.55
452.86	3737.84
453.05	4002.32
453.23	4084.23
453.42	4009.34
453.60	4009.34
453.78	3794.01
453.97	3925.08
454.15	3992.95
454.34	3784.65
454.52	3957.85
454.70	3950.82
454.89	4039.76
455.07	4060.83
455.26	4037.42
455.44	4100.62
455.62	3920.40
455.81	4011.68
455.99	4128.70
456.17	4133.39
456.36	4145.09
456.54	4168.49
456.73	4308.93
456.91	4283.18
457.09	4379.14
457.28	4320.63
457.46	4241.05
457.64	4365.10
457.83	4353.40
458.01	4327.65
458.19	4521.92
458.38	4500.85
458.56	4390.84
458.74	4437.66
458.93	4477.44
459.11	4409.57
459.29	4468.08
459.48	4638.94
459.66	4571.07
459.84	4699.80
460.03	4589.79
460.21	4610.86
460.39	4561.70
460.57	4601.49
460.76	4615.54
460.94	4599.15
461.12	4503.19
461.31	4601.49
461.49	4479.79
461.67	4547.66
461.85	4793.42
462.04	4545.32
462.22	4748.95
462.40	4748.95
462.59	4716.18
462.77	4699.80
462.95	4961.94
463.13	4678.73
463.32	4915.12
463.50	4903.42
463.68	4791.08
463.86	4805.12
464.05	4814.48
464.23	4875.34
464.41	4889.38
464.59	4800.44
464.78	4891.72
464.96	4863.63
465.14	4875.34
465.32	5078.96
465.50	4856.61
465.69	4968.96
465.87	5001.72
466.05	5008.75
466.23	4959.60
466.41	5046.20
466.60	5179.61
466.78	5088.32
466.96	4975.98
467.14	4997.04
467.32	5060.24
467.51	5195.99
467.69	4997.04
467.87	5102.37
468.05	5048.54
468.23	4896.40
468.41	5245.14
468.60	5252.16
468.78	5151.52
468.96	5163.22
469.14	5242.80
469.32	5329.40
469.50	5191.31
469.69	5558.77
469.87	5460.47
470.05	5528.35
470.23	5399.62
470.41	5336.42
470.59	5582.18
470.77	5514.30
470.95	5380.89
471.14	5542.39
471.32	5603.24
471.50	5556.43
471.68	5614.95
471.86	5579.84
472.04	5706.23
472.22	5631.33
472.40	5827.93
472.58	5659.42
472.77	5717.93
472.95	5867.72
473.13	6064.33
473.31	5783.46
473.49	5874.74
473.67	6069.01
473.85	5940.28
474.03	6012.84
474.21	5966.03
474.39	6005.81
474.57	5973.05
474.75	6345.19
474.93	6176.67
475.12	6246.89
475.30	6190.72
475.48	6307.74
475.66	6249.23
475.84	6361.58
476.02	6370.94
476.20	6312.42
476.38	6445.84
476.56	6614.35
476.74	6600.31
476.92	6644.78
477.10	6544.14
477.28	6448.18
477.46	6633.08
477.64	6689.25
477.82	6787.55
478.00	6930.33
478.18	7148.00
478.36	7091.82
478.54	7204.17
478.72	7000.54
478.90	7162.04
479.08	7234.60
479.26	7194.81
479.44	7480.35
479.62	7384.39
479.80	7442.90
479.98	7468.65
480.16	7555.25
480.34	7555.25
480.52	7606.74
480.70	7655.89
480.88	7508.44
481.06	7672.28
481.24	7761.22
481.41	7791.64
481.59	8018.68
481.77	8070.17
481.95	8013.99
482.13	8124.00
482.31	8065.49
482.49	8386.14
482.67	8217.62
482.85	8159.11
483.03	8552.32
483.21	8437.63
483.39	8725.52
483.57	8620.19
483.74	8535.93
483.92	8648.28
484.10	8943.19
484.28	8891.70
484.46	9217.03
484.64	9118.73
484.82	8922.12
485.00	9235.75
485.18	9273.20
485.35	9523.64
485.53	9568.11
485.71	9406.61
485.89	9577.47
486.07	9446.40
486.25	9404.27
486.43	9476.83
486.61	9783.44
486.78	9872.38
486.96	9989.41
487.14	10228.14
487.32	9951.96
487.50	10279.63
487.68	10090.05
487.85	10293.68
488.03	10595.61
488.21	10640.08
488.39	10619.01
488.57	10677.52
488.75	10567.52
488.92	10839.02
489.10	11073.07
489.28	11206.48
489.46	11049.67
489.64	11370.32
489.81	11248.61
489.99	11414.79
490.17	11489.69
490.35	11487.35
490.53	11690.98
490.70	11557.57
490.88	11793.96
491.06	11793.96
491.24	11789.28
491.41	11964.82
491.59	11988.22
491.77	12039.72
491.95	12217.60
492.13	12283.13
492.30	12444.63
492.48	12341.64
492.66	12397.82
492.84	12538.25
493.01	12652.94
493.19	12514.84
493.37	12671.66
493.54	12702.09
493.72	12767.62
493.90	12992.31
494.08	12938.48
494.25	12908.05
494.43	13085.94
494.61	13298.92
494.79	13701.50
494.96	13315.31
495.14	13174.88
495.32	13584.47
495.49	13820.86
495.67	13928.53
495.85	14024.49
496.02	13912.14
496.20	13958.96
496.38	13921.51
496.55	14022.15
496.73	14209.39
496.91	14214.07
497.09	14115.77
497.26	14342.80
497.44	14527.71
497.62	14380.25
497.79	14483.24
497.97	14651.75
498.14	14707.93
498.32	14937.30
498.50	15126.88
498.67	14871.76
498.85	15066.03
499.03	14981.77
499.20	15096.46
499.38	14953.68
499.56	15321.15
499.73	15267.31
499.91	15527.11
500.08	15669.89
500.26	15138.58
500.44	15309.44
500.61	15805.64
500.79	15557.54
500.97	16035.01
501.14	15817.34
501.32	15838.41
501.49	15800.96
501.67	15555.20
501.84	15796.28
502.02	15974.16
502.20	16278.43
502.37	16212.89
502.55	16123.95
502.72	16156.72
502.90	16266.72
503.07	16212.89
503.25	16589.72
503.43	16390.77
503.60	16608.44
503.78	16496.10
503.95	16545.25
504.13	16531.20
504.30	16657.59
504.48	16510.14
504.65	17130.38
504.83	17060.16
505.01	16978.25
505.18	17254.43
505.36	17172.51
505.53	17088.25
505.71	16919.73
505.88	17238.05
506.06	17202.94
506.23	17439.33
506.41	17125.70
506.58	17474.44
506.76	17617.21
506.93	17303.58
507.11	17214.64
507.28	17687.43
507.46	17696.79
507.63	17614.87
507.81	18068.94
507.98	17963.61
508.16	17951.91
508.33	17841.90
508.50	18185.96
508.68	18106.38
508.85	18422.36
509.03	17846.58
509.20	18279.58
509.38	18621.30
509.55	18389.59
509.73	18464.49
509.90	18274.90
510.08	18253.84
510.25	18302.99
510.42	18483.21
510.60	18593.22
510.77	18712.58
510.95	18867.06
511.12	18675.13
511.30	18743.01
511.47	18799.18
511.64	19021.53
511.82	19000.47
511.99	19066.00
512.17	19150.26
512.34	18930.25
512.51	19365.59
512.69	19435.81
512.86	19510.71
513.04	19480.28
513.21	19365.59
513.38	19690.93
513.56	19740.08
513.73	19496.66
513.90	19630.07
514.08	19452.19
514.25	19669.86
514.43	19693.27
514.60	19882.85
514.77	20037.33
514.95	20030.30
515.12	19894.55
515.29	19814.98
515.47	20280.74
515.64	20011.58
515.81	20144.99
515.99	20332.23
516.16	20273.72
516.33	20531.18
516.51	20137.97
516.68	20177.76
516.85	20456.28
517.03	20622.46
517.20	20713.74
517.37	20512.46
517.54	20449.26
517.72	20636.50
517.89	20435.22
518.06	21085.89
518.24	20872.90
518.41	20718.42
518.58	21020.35
518.75	20959.50
518.93	21113.97
519.10	21010.99
519.27	21081.21
519.45	20856.51
519.62	21188.87
519.79	21076.52
519.96	21343.35
520.14	21191.21
520.31	21380.79
520.48	21392.50
520.65	21394.84
520.83	21591.44
521.00	21656.98
521.17	21362.07
521.34	21488.46
521.52	21432.29
521.69	21551.65
521.86	22033.80
522.03	21692.08
522.20	21884.01
522.38	22038.48
522.55	21795.07
522.72	21956.57
522.89	22361.48
523.07	22185.94
523.24	21979.97
523.41	22087.64
523.58	22251.47
523.75	22370.84
523.92	22260.84
524.10	22567.45
524.27	22277.22
524.44	22647.02
524.61	22682.13
524.78	22427.01
524.96	22658.73
525.13	22436.38
525.30	22658.73
525.47	22595.53
525.64	22609.58
525.81	22412.97
525.98	23094.07
526.16	22925.55
526.33	22375.52
526.50	23105.77
526.67	22913.84
526.84	23049.60
527.01	22874.06
527.18	23061.30
527.36	22934.91
527.53	23346.84
527.70	23445.15
527.87	23606.64
528.04	23421.74
528.21	23232.16
528.38	23498.98
528.55	23468.55
528.72	23365.57
528.89	23683.88
529.07	23487.28
529.24	23271.95
529.41	23683.88
529.58	23396.00
529.75	23674.52
529.92	23740.05
530.09	23674.52
530.26	23393.65
530.43	23576.22
530.60	23854.74
530.77	23686.22
530.94	23660.48
531.11	24011.56
531.28	24166.03
531.46	24175.39
531.63	23833.68
531.80	24159.01
531.97	24156.67
532.14	23941.34
532.31	23779.84
532.48	24388.38
532.65	24278.38
532.82	23894.53
532.99	24393.06
533.16	24161.35
533.33	24322.85
533.50	24805.00
533.67	24744.14
533.84	24327.53
534.01	24308.80
534.18	24114.54
534.35	24587.33
534.52	24383.70
534.69	24673.93
534.86	24641.16
535.03	24629.46
535.20	24439.87
535.37	24767.55
535.54	24816.70
535.71	24369.66
535.88	24882.24
536.05	24854.15
536.22	24931.39
536.38	24945.43
536.55	25025.01
536.72	25242.68
536.89	24676.27
537.06	25362.04
537.23	25149.06
537.40	25095.22
537.57	25348.00
537.74	25507.16
537.91	25563.33
538.08	25729.51
538.25	25380.77
538.42	25160.76
538.59	25336.30
538.75	25219.27
538.92	25355.02
539.09	25647.59
539.26	25563.33
539.43	25741.21
539.60	25600.78
539.77	25350.34
539.94	25687.38
540.11	25563.33
540.28	25853.56
540.44	25635.89
540.61	25720.15
540.78	25813.77
540.95	25560.99
541.12	25692.06
541.29	25963.56
541.46	25958.88
541.62	25923.77
541.79	25947.18
541.96	25804.41
542.13	25905.05
542.30	26160.17
542.47	25881.64
542.63	25902.71
542.80	26216.34
542.97	26382.52
543.14	26590.83
543.31	26590.83
543.48	26078.25
543.64	26651.68
543.81	26375.50
543.98	26583.80
544.15	26757.00
544.32	26689.13
544.48	26485.50
544.65	26698.49
544.82	26665.72
544.99	26892.76
545.16	26829.56
545.32	26487.84
545.49	26827.22
545.66	27058.93
545.83	27136.17
546.00	27178.30
546.16	26911.48
546.33	26665.72
546.50	26504.23
546.67	27051.91
546.83	26637.64
547.00	26993.40
547.17	26909.14
547.34	27222.77
547.50	27056.59
547.67	27550.45
547.84	26995.74
548.00	27697.90
548.17	27587.89
548.34	27239.15
548.51	27042.55
548.67	27307.03
548.84	27138.51
549.01	27061.27
549.18	27094.04
549.34	27377.25
549.51	27623.00
549.68	27321.07
549.84	27555.13
550.01	27358.52
550.18	27524.70
550.34	27850.03
550.51	27625.34
550.68	27845.35
550.84	27342.14
551.01	27641.73
551.18	27861.74
551.34	27386.61
551.51	27758.75
551.68	27283.62
551.84	28041.96
552.01	27594.92
552.18	27962.38
552.34	27740.03
552.51	28013.87
552.68	27562.15
552.84	27929.61
553.01	27880.46
553.18	27885.14
553.34	27964.72
553.51	28002.17
553.67	28095.79
553.84	28166.01
554.01	28217.50
554.17	28030.26
554.34	28004.51
554.51	27971.74
554.67	28400.06
554.84	28011.53
555.00	28498.36
555.17	28128.56
555.33	28149.62
555.50	28201.11
555.67	28304.10
555.83	28414.10
556.00	28414.10
556.16	28795.61
556.33	28659.86
556.50	28484.32
556.66	28414.10
556.83	28430.49
556.99	28608.37
557.16	28877.53
557.32	28369.63
557.49	28601.35
557.65	28362.61
557.82	28355.59
557.98	28187.07
558.15	28659.86
558.32	28727.74
558.48	28556.88
558.65	28456.23
558.81	28877.53
558.98	28744.12
559.14	28512.41
559.31	28374.31
559.47	28835.40
559.64	28865.83
559.80	28514.75
559.97	28943.06
560.13	28982.85
560.30	28788.59
560.46	28823.70
560.63	29163.08
560.79	28645.82
560.96	29106.90
561.12	28870.51
561.29	28933.70
561.45	28987.53
561.61	28737.10
561.78	29090.52
561.94	28940.72
562.11	29443.94
562.27	29282.44
562.44	29034.35
562.60	29053.07
562.77	28877.53
562.93	28716.03
563.10	29380.74
563.26	29244.99
563.42	29455.64
563.59	29324.57
563.75	29039.03
563.92	29263.72
564.08	28737.10
564.24	29113.92
564.41	28716.03
564.57	29469.69
564.74	29329.25
564.90	29015.62
565.07	29544.58
565.23	29315.21
565.39	29039.03
565.56	29670.97
565.72	29352.66
565.88	29277.76
566.05	29200.52
566.21	29415.85
566.38	29174.78
566.54	29170.10
566.70	29340.96
566.87	29420.53
567.03	29549.26
567.19	30008.01
567.36	29373.72
567.52	29418.19
567.68	29364.36
567.85	29184.14
568.01	29612.46
568.17	29474.37
568.34	29603.10
568.50	29685.01
568.66	29635.86
568.83	29799.70
568.99	29315.21
569.15	29567.99
569.32	29603.10
569.48	28926.68
569.64	29565.65
569.81	29701.40
569.97	29226.27
570.13	29858.21
570.30	29465.00
570.46	29872.26
570.62	29663.95
570.78	29345.64
570.95	29102.22
571.11	29780.98
571.27	29270.74
571.43	29235.63
571.60	29841.83
571.76	29713.10
571.92	29750.55
572.09	29577.35
572.25	29479.05
572.41	29614.80
572.57	29708.42
572.74	29771.61
572.90	29865.24
573.06	29296.49
573.22	29322.23
573.38	29668.63
573.55	29570.33
573.71	30221.00
573.87	30038.44
574.03	29333.93
574.20	29940.13
574.36	29315.21
574.52	29539.90
574.68	29858.21
574.84	29727.14
575.01	29771.61
575.17	29495.43
575.33	29759.91
575.49	29886.30
575.65	30160.14
575.82	30127.38
575.98	29937.79
576.14	29956.52
576.30	30008.01
576.46	29539.90
576.62	29364.36
576.79	29710.76
576.95	29860.55
577.11	30078.22
577.27	29900.34
577.43	29928.43
577.59	29888.64
577.75	29982.26
577.92	29926.09
578.08	29582.03
578.24	29996.31
578.40	29958.86
578.56	29862.90
578.72	29928.43
578.88	29539.90
579.04	30532.29
579.21	30118.01
579.37	29804.38
579.53	30094.61
579.69	29666.29
579.85	29661.61
580.01	29926.09
580.17	29649.91
580.33	29839.49
580.49	29596.07
580.65	30185.89
580.82	30082.91
580.98	30036.09
581.14	30003.33
581.30	29984.60
581.46	29703.74
581.62	29998.65
581.78	29804.38
581.94	30391.86
582.10	29865.24
582.26	30071.20
582.42	29769.27
582.58	30110.99
582.74	30281.85
582.90	29603.10
583.06	30230.36
583.22	29818.42
583.38	29982.26
583.54	30178.87
583.70	30113.33
583.86	30075.88
584.02	29816.08
584.18	30059.50
584.34	30307.60
584.50	30181.21
584.66	29862.90
584.82	30075.88
584.98	30082.91
585.14	29776.30
585.30	29984.60
585.46	30010.35
585.62	30125.04
585.78	29898.00
585.94	30298.23
586.10	29996.31
586.26	30195.25
586.42	30218.66
586.58	30338.02
586.74	30080.56
586.90	29844.17
587.06	29979.92
587.22	29706.08
587.38	30195.25
587.54	30579.10
587.70	30347.39
587.86	30192.91
588.02	30382.49
588.18	30223.34
588.34	30443.35
588.49	30382.49
588.65	29912.05
588.81	30045.46
588.97	30363.77
589.13	30169.51
589.29	30195.25
589.45	30197.59
589.61	30689.10
589.77	30780.39
589.93	30415.26
590.08	30277.17
590.24	30487.82
590.40	30658.68
590.56	30218.66
590.72	30316.96
590.88	30101.63
591.04	30583.78
591.20	30597.82
591.35	30356.75
591.51	30735.92
591.67	30361.43
591.83	30951.24
591.99	30515.90
592.15	30703.15
592.31	30845.92
592.46	30335.68
592.62	30213.98
592.78	30298.23
592.94	30590.80
593.10	30373.13
593.26	30448.03
593.41	30522.93
593.57	30295.89
593.73	30326.32
593.89	30494.84
594.05	30359.09
594.20	30536.97
594.36	30253.76
594.52	30518.25
594.68	30375.47
594.84	30532.29
594.99	30614.21
595.15	30864.64
595.31	31220.41
595.47	30403.56
595.62	30277.17
595.78	30593.14
595.94	30543.99
596.10	30487.82
596.25	30604.84
596.41	30230.36
596.57	30436.33
596.73	30796.77
596.88	30754.64
597.04	30925.50
597.20	30602.50
597.36	30682.08
597.51	30677.40
597.67	30764.00
597.83	30263.13
597.99	30396.54
598.14	30534.63
598.30	30855.28
598.46	30735.92
598.61	30621.23
598.77	30607.19
598.93	30972.31
599.09	30986.35
599.24	31075.29
599.40	30703.15
599.56	31016.78
599.71	30600.16
599.87	30696.13
600.03	30338.02
600.18	30710.17
600.34	30618.89
600.50	30822.51
600.65	31143.17
600.81	30693.79
600.97	31058.91
601.12	31026.14
601.28	30661.02
601.44	30698.47
601.59	31082.31
601.75	30457.39
601.91	30885.71
602.06	30543.99
602.22	30899.75
602.37	30808.47
602.53	30810.81
602.69	30342.70
602.84	30611.87
603.00	30904.43
603.16	30930.18
603.31	30803.79
603.47	30665.70
603.62	30714.85
603.78	30375.47
603.94	30703.15
604.09	30656.34
604.25	30520.59
604.40	30569.74
604.56	30520.59
604.71	30747.62
604.87	30859.96
605.03	30728.89
605.18	30487.82
605.34	30752.30
605.49	30628.25
605.65	30817.83
605.80	30522.93
605.96	30384.83
606.12	30576.76
606.27	30927.84
606.43	30476.12
606.58	30539.31
606.74	30450.37
606.89	30658.68
607.05	30663.36
607.20	31124.44
607.36	30843.58
607.51	30864.64
607.67	30476.12
607.82	30464.41
607.98	30946.56
608.13	30682.08
608.29	30593.14
608.44	30785.07
608.60	30649.32
608.75	30775.70
608.91	30485.48
609.06	30522.93
609.22	30733.57
609.37	30281.85
609.53	30171.85
609.68	30352.07
609.84	30574.42
609.99	30464.41
610.15	29949.50
610.30	30462.07
610.46	30499.52
610.61	30213.98
610.76	30639.95
610.92	30429.30
611.07	30572.08
611.23	30368.45
611.38	29841.83
611.54	30199.93
611.69	30331.00
611.84	30047.80
612.00	30118.01
612.15	29888.64
612.31	30305.26
612.46	30188.23
612.62	30209.29
612.77	30139.08
612.92	30525.27
613.08	30209.29
613.23	30040.78
613.39	30000.99
613.54	29500.11
613.69	30228.02
613.85	29736.51
614.00	29797.36
614.15	29900.34
614.31	29813.74
614.46	30000.99
614.62	30209.29
614.77	30120.35
614.92	29958.86
615.08	29923.75
615.23	30183.55
615.38	30354.41
615.54	29710.76
615.69	29729.48
615.84	29792.68
616.00	29926.09
616.15	29706.08
616.30	30033.75
616.46	29886.30
616.61	30143.76
616.76	30005.67
616.92	29783.32
617.07	29759.91
617.22	30094.61
617.37	29570.33
617.53	29954.18
617.68	29443.94
617.83	29762.25
617.99	29996.31
618.14	29837.15
618.29	29837.15
618.45	30206.95
618.60	29804.38
618.75	29724.80
618.90	30033.75
619.06	29528.20
619.21	29076.48
619.36	29652.25
619.51	29490.75
619.67	28905.62
619.82	29064.77
619.97	29252.02
620.12	29347.98
620.28	29654.59
620.43	29666.29
620.58	29472.03
620.73	29553.94
620.89	30064.18
621.04	29841.83
621.19	29434.58
621.34	29291.80
621.49	29685.01
621.65	29472.03
621.80	29509.47
621.95	29106.90
622.10	29378.40
622.25	29013.28
622.41	29408.83
622.56	29153.71
622.71	29722.46
622.86	29230.95
623.01	29656.93
623.16	28959.45
623.32	29237.97
623.47	29083.50
623.62	29355.00
623.77	29235.63
623.92	29228.61
624.07	28987.53
624.23	28804.97
624.38	29027.32
624.53	29385.43
624.68	29340.96
624.83	29029.66
624.98	29116.26
625.13	29029.66
625.29	28996.90
625.44	29254.36
625.59	28926.68
625.74	28732.42
625.89	29032.00
626.04	28645.82
626.19	28891.57
626.34	28474.96
626.49	28629.43
626.65	28517.09
626.80	28985.19
626.95	28900.94
627.10	28479.64
627.25	29036.69
627.40	28622.41
627.55	28669.22
627.70	28716.03
627.85	28748.80
628.00	28542.83
628.15	28332.18
628.30	28421.13
628.45	28477.30
628.60	28371.97
628.76	28643.48
628.91	28751.14
629.06	28685.61
629.21	28978.17
629.36	28545.17
629.51	28395.38
629.66	28285.37
629.81	28322.82
629.96	28320.48
630.11	27971.74
630.26	28259.63
630.41	28151.96
630.56	28285.37
630.71	27957.70
630.86	28133.24
631.01	28222.18
631.16	28701.99
631.31	28086.43
631.46	28453.89
631.61	28081.75
631.76	28524.11
631.91	28266.65
632.06	28254.95
632.21	28151.96
632.36	27990.47
632.51	27513.00
632.66	28268.99
632.81	27906.21
632.96	28189.41
633.10	28479.64
633.25	28070.04
633.40	27988.13
633.55	28044.30
633.70	27613.64
633.85	27798.54
634.00	27903.87
634.15	27606.62
634.30	27702.58
634.45	27632.36
634.60	27997.49
634.75	27779.82
634.90	27679.18
635.05	27843.01
635.19	28006.85
635.34	27962.38
635.49	27985.79
635.64	28095.79
635.79	27917.91
635.94	27515.34
636.09	27559.81
636.24	27555.13
636.39	27365.54
636.53	27288.31
636.68	27358.52
636.83	27913.23
636.98	27894.50
637.13	27597.26
637.28	27234.47
637.43	27288.31
637.57	27639.39
637.72	27618.32
637.87	27065.96
638.02	27433.42
638.17	27740.03
638.32	27250.86
638.46	27627.68
638.61	27496.61
638.76	27232.13
638.91	27370.22
639.06	27021.48
639.20	27468.53
639.35	27541.08
639.50	27325.75
639.65	27683.86
639.80	27351.50
639.94	27197.02
640.09	27419.38
640.24	27222.77
640.39	27051.91
640.54	27026.17
640.68	26909.14
640.83	27028.51
640.98	27023.83
641.13	26749.98
641.27	27147.87
641.42	26890.41
641.57	27168.94
641.72	27454.48
641.86	26925.52
642.01	27098.72
642.16	27026.17
642.31	26733.60
642.45	26876.37
642.60	26871.69
642.75	26700.83
642.90	26642.32
643.04	26639.98
643.19	26843.60
643.34	26728.92
643.48	26794.45
643.63	26871.69
643.78	26602.53
643.93	26721.90
644.07	26930.20
644.22	26939.57
644.37	26911.48
644.51	26740.62
644.66	26560.40
644.81	26632.96
644.95	26529.97
645.10	26333.37
645.25	26595.51
645.39	26651.68
645.54	26684.45
645.69	26485.50
645.83	26721.90
645.98	26658.70
646.13	26740.62
646.27	26511.25
646.42	26876.37
646.57	26663.38
646.71	26426.99
646.86	26654.02
647.00	26787.43
647.15	26349.75
647.30	26270.17
647.44	26141.44
647.59	26380.18
647.74	26033.78
647.88	26253.79
648.03	26057.18
648.17	26782.75
648.32	26305.28
648.47	26307.62
648.61	26295.92
648.76	26525.29
648.90	26689.13
649.05	26609.55
649.20	26103.99
649.34	26288.90
649.49	25933.14
649.63	25977.61
649.78	26064.21
649.92	25773.98
650.07	26216.34
650.21	25806.75
650.36	26157.83
650.51	26125.06
650.65	26122.72
650.80	25937.82
650.94	25755.26
651.09	25785.68
651.23	26115.70
651.38	26075.91
651.52	26157.83
651.67	26015.05
651.81	25860.58
651.96	26066.55
652.10	25912.07
652.25	26071.23
652.39	26160.17
652.54	26080.59
652.68	25977.61
652.83	25727.17
652.97	26127.40
653.12	26181.23
653.26	25900.37
653.41	25837.17
653.55	25633.55
653.70	25528.22
653.84	25560.99
653.99	25483.75
654.13	25523.54
654.27	25413.54
654.42	25818.45
654.56	25591.42
654.71	25638.23
654.85	25858.24
655.00	25809.09
655.14	25448.64
655.29	25589.08
655.43	25694.40
655.57	25490.77
655.72	25287.15
655.86	25565.67
656.01	25483.75
656.15	25003.94
656.30	25649.93
656.44	25223.95
656.58	25523.54
656.73	25256.72
656.87	25156.08
657.01	25460.35
657.16	25329.28
657.30	25216.93
657.45	25369.07
657.59	25095.22
657.73	25041.39
657.88	25329.28
658.02	25397.15
658.16	25106.93
658.31	25067.14
658.45	25003.94
658.60	25064.80
658.74	24865.85
658.88	24732.44
659.03	24779.25
659.17	25123.31
659.31	25064.80
659.46	24865.85
659.60	25071.82
659.74	25322.26
659.89	24907.98
660.03	24858.83
660.17	24751.17
660.32	24540.52
660.46	24592.01
660.60	24687.97
660.74	24587.33
660.89	24563.92
661.03	24535.84
661.17	24809.68
661.32	24685.63
661.46	24697.33
661.60	24306.46
661.74	24636.48
661.89	24524.13
662.03	24507.75
662.17	24362.64
662.31	24163.69
662.46	24428.17
662.60	24610.73
662.74	24020.92
662.88	23866.44
663.03	23784.52
663.17	24070.07
663.31	23445.15
663.45	23992.83
663.60	23775.16
663.74	23894.53
663.88	23819.63
664.02	23686.22
664.17	24257.31
664.31	24093.47
664.45	23555.15
664.59	23957.72
664.73	23529.41
664.88	23637.07
665.02	23400.68
665.16	23721.33
665.30	23623.03
665.44	23901.55
665.59	23709.63
665.73	23592.60
665.87	23215.77
666.01	23651.11
666.15	23831.33
666.29	23456.85
666.44	23833.68
666.58	23005.13
666.72	23089.38
666.86	23489.62
667.00	23604.30
667.14	23194.71
667.28	23400.68
667.43	23126.83
667.57	23267.27
667.71	23225.14
667.85	23236.84
667.99	22885.76
668.13	22902.14
668.27	23033.21
668.41	23185.35
668.56	23157.26
668.70	23117.47
668.84	22876.40
668.98	23035.55
669.12	23260.24
669.26	23190.03
669.40	22757.03
669.54	23056.62
669.68	22607.23
669.82	22560.42
669.96	22387.22
670.10	22419.99
670.25	22661.07
670.39	22689.15
670.53	22448.08
670.67	22637.66
670.81	22576.81
670.95	22604.89
671.09	22401.27
671.23	22391.91
671.37	22328.71
671.51	22326.37
671.65	22405.95
671.79	22005.72
671.93	22192.96
672.07	22256.15
672.21	22181.26
672.35	21783.37
672.49	21790.39
672.63	21579.74
672.77	21642.93
672.91	21788.05
673.05	21687.40
673.19	21986.99
673.33	21759.96
673.47	21621.87
673.61	21699.11
673.75	21759.96
673.89	21619.53
674.03	21500.16
674.17	21572.72
674.31	21488.46
674.45	21385.47
674.59	21553.99
674.73	21422.92
674.87	21111.63
675.01	21097.59
675.15	20968.86
675.29	20877.58
675.43	20938.43
675.56	21088.23
675.70	21242.70
675.84	21144.40
675.98	20521.82
676.12	21167.80
676.26	20898.64
676.40	20765.23
676.54	20922.05
676.68	21027.37
676.82	20367.34
676.96	20636.50
677.10	20299.47
677.23	20407.13
677.37	20294.79
677.51	20269.04
677.65	20432.88
677.79	20049.03
677.93	19957.75
678.07	19906.26
678.21	19988.18
678.34	20088.82
678.48	20114.56
678.62	19833.70
678.76	19784.55
678.90	19566.88
679.04	19559.86
679.18	19777.53
679.31	19178.35
679.45	19494.32
679.59	19475.60
679.73	19536.45
679.87	19206.44
680.00	19232.18
680.14	19140.90
680.28	19002.81
680.42	19185.37
680.56	18916.21
680.70	19178.35
680.83	19157.28
680.97	18848.33
681.11	18984.09
681.25	18637.69
681.39	18871.74
681.52	18752.37
681.66	18796.84
681.80	18501.93
681.94	18663.43
682.07	18867.06
682.21	18356.82
682.35	18097.02
682.49	18120.43
682.62	18148.51
682.76	18370.86
682.90	18143.83
683.04	18176.60
683.17	18099.36
683.31	17860.63
683.45	18506.62
683.59	17987.02
683.72	18090.00
683.86	18019.78
684.00	17776.37
684.13	17694.45
684.27	17561.04
684.41	17530.61
684.55	17427.63
684.68	17303.58
684.82	17291.88
684.96	17083.57
685.09	17191.23
685.23	17205.28
685.37	17298.90
685.50	17034.42
685.64	17163.15
685.78	17060.16
685.91	17294.22
686.05	17003.99
686.19	16943.14
686.32	16877.60
686.46	16676.32
686.60	16444.60
686.73	16547.59
686.87	16741.85
687.01	16456.31
687.14	16475.03
687.28	16133.31
687.42	16404.81
687.55	16032.67
687.69	16460.99
687.82	16276.09
687.96	16563.97
688.10	16248.00
688.23	16159.06
688.37	16168.42
688.50	16283.11
688.64	15840.75
688.78	15922.66
688.91	15749.46
689.05	15726.06
689.18	15651.16
689.32	15651.16
689.46	15452.22
689.59	15566.90
689.73	15541.16
689.86	15417.11
690.00	15358.60
690.13	15304.76
690.27	15405.41
690.41	15325.83
690.54	15192.42
690.68	15154.97
690.81	15440.51
690.95	15342.21
691.08	14930.28
691.22	14923.26
691.35	14988.79
691.49	14911.55
691.62	14965.39
691.76	14672.82
691.89	14644.73
692.03	14581.54
692.16	14497.28
692.30	14682.18
692.43	14326.42
692.57	14431.74
692.70	14471.53
692.84	14427.06
692.97	14157.90
693.11	14122.79
693.24	14200.03
693.38	14188.33
693.51	13933.21
693.65	14083.00
693.78	13818.52
693.92	13987.04
694.05	13802.14
694.19	13717.88
694.32	13743.63
694.45	13476.80
694.59	13760.01
694.72	13312.97
694.86	13359.78
694.99	13004.02
695.13	13242.75
695.26	13324.67
695.39	13427.65
695.53	13240.41
695.66	13214.66
695.80	13270.84
695.93	13331.69
696.07	13071.89
696.20	13343.39
696.33	13011.04
696.47	12929.12
696.60	12950.18
696.73	12767.62
696.87	12872.95
697.00	12833.16
697.14	12559.31
697.27	12519.53
697.40	12444.63
697.54	12500.80
697.67	12528.89
697.80	12280.79
697.94	12397.82
698.07	12287.81
698.21	12030.35
698.34	12187.17
698.47	12205.89
698.61	12072.48
698.74	12046.74
698.87	12133.34
699.01	11988.22
699.14	12049.08
699.27	11712.04
699.40	11864.18
699.54	11808.00
699.67	11602.04
699.80	11840.77
699.94	11597.35
700.07	11461.60
700.20	11323.51
700.34	11234.57
700.47	11487.35
700.60	11370.32
700.73	11398.41
700.87	11164.36
701.00	11274.36
701.13	11363.30
701.26	11077.76
701.40	11403.09
701.53	10977.11
701.66	11154.99
701.79	10995.84
701.93	10717.31
702.06	10663.48
702.19	10707.95
702.32	10635.39
702.46	10661.14
702.59	10644.76
702.72	10459.85
702.85	10619.01
702.99	10450.49
703.12	10562.84
703.25	10307.72
703.38	10480.92
703.51	10314.74
703.65	10588.58
703.78	10296.02
703.91	10256.23
704.04	10361.55
704.17	10317.08
704.31	10232.82
704.44	10202.40
704.57	10003.45
704.70	9792.80
704.83	9919.19
704.96	9818.55
705.10	9731.95
705.23	9628.96
>>>>>End Processed Spectral Data<<<<<
