SpectraSuite Data File
++++++++++++++++++++++++++++++++++++
Date: Fri Oct 18 13:57:59 GMT-05:00 2013
User: bianchi
Dark Spectrum Present: No
Reference Spectrum Present: No
Number of Sampled Component Spectra: 1
Spectrometers: USB2+H05261
Integration Time (usec): 50000 (USB2+H05261)
Spectra Averaged: 1 (USB2+H05261)
Boxcar Smoothing: 0 (USB2+H05261)
Correct for Electrical Dark: No (USB2+H05261)
Strobe/Lamp Enabled: No (USB2+H05261)
Correct for Detector Non-linearity: No (USB2+H05261)
Correct for Stray Light: No (USB2+H05261)
Number of Pixels in Processed Spectrum: 2048
>>>>>Begin Processed Spectral Data<<<<<
365.73	7.02
365.92	7.02
366.12	7.02
366.32	0.00
366.52	0.00
366.72	0.00
366.91	0.00
367.11	0.00
367.31	0.00
367.51	0.00
367.70	0.00
367.90	0.00
368.10	0.00
368.30	0.00
368.49	0.00
368.69	0.00
368.89	0.00
369.09	0.00
369.28	0.00
369.48	0.00
369.68	0.00
369.87	0.00
370.07	0.00
370.27	0.00
370.47	0.00
370.66	28.09
370.86	70.22
371.06	98.30
371.25	182.56
371.45	152.13
371.65	163.84
371.84	224.69
372.04	135.75
372.24	215.33
372.44	124.05
372.63	194.26
372.83	243.42
373.03	177.88
373.22	170.86
373.42	259.80
373.62	238.73
373.81	208.31
374.01	203.63
374.21	238.73
374.40	175.54
374.60	250.44
374.79	262.14
374.99	297.25
375.19	222.35
375.38	210.65
375.58	250.44
375.78	196.60
375.97	238.73
376.17	266.82
376.37	358.10
376.56	252.78
376.76	227.03
376.95	241.08
377.15	241.08
377.35	337.04
377.54	269.16
377.74	315.97
377.93	292.57
378.13	297.25
378.33	339.38
378.52	292.57
378.72	315.97
378.91	386.19
379.11	360.44
379.31	315.97
379.50	341.72
379.70	348.74
379.89	351.08
380.09	315.97
380.28	334.70
380.48	248.10
380.68	217.67
380.87	273.84
381.07	250.44
381.26	304.27
381.46	271.50
381.65	346.40
381.85	383.85
382.04	313.63
382.24	374.49
382.43	390.87
382.63	379.17
382.83	402.57
383.02	383.85
383.22	395.55
383.41	339.38
383.61	334.70
383.80	369.80
384.00	362.78
384.19	381.51
384.39	313.63
384.58	418.96
384.78	433.00
384.97	447.04
385.17	418.96
385.36	411.93
385.56	400.23
385.75	463.43
385.95	425.98
386.14	442.36
386.34	367.46
386.53	397.89
386.72	430.66
386.92	454.06
387.11	477.47
387.31	477.47
387.50	461.09
387.70	433.00
387.89	461.09
388.09	411.93
388.28	477.47
388.48	500.87
388.67	463.43
388.86	470.45
389.06	477.47
389.25	510.24
389.45	482.15
389.64	493.85
389.84	524.28
390.03	514.92
390.22	461.09
390.42	491.51
390.61	414.27
390.81	486.83
391.00	449.38
391.19	557.05
391.39	559.39
391.58	594.50
391.78	475.13
391.97	601.52
392.16	566.41
392.36	561.73
392.55	592.16
392.75	475.13
392.94	582.79
393.13	540.66
393.33	533.64
393.52	507.90
393.71	608.54
393.91	550.03
394.10	538.32
394.29	568.75
394.49	526.62
394.68	622.58
394.88	573.43
395.07	615.56
395.26	636.63
395.46	641.31
395.65	709.18
395.84	636.63
396.04	795.78
396.23	564.07
396.42	622.58
396.62	795.78
396.81	737.27
397.00	653.01
397.19	669.39
397.39	667.05
397.58	627.26
397.77	638.97
397.97	681.10
398.16	697.48
398.35	676.41
398.55	692.80
398.74	664.71
398.93	784.08
399.12	657.69
399.32	697.48
399.51	744.29
399.70	784.08
399.90	699.82
400.09	765.36
400.28	777.06
400.47	784.08
400.67	781.74
400.86	688.12
401.05	748.97
401.24	781.74
401.44	837.91
401.63	842.59
401.82	788.76
402.01	992.39
402.21	805.14
402.40	896.43
402.59	915.15
402.78	889.40
402.97	887.06
403.17	854.30
403.36	868.34
403.55	863.66
403.74	866.00
403.93	933.87
404.13	983.02
404.32	964.30
404.51	950.26
404.70	926.85
404.89	908.13
405.09	964.30
405.28	976.00
405.47	884.72
405.66	971.32
405.85	990.05
406.05	994.73
406.24	1027.50
406.43	971.32
406.62	980.68
406.81	1076.65
407.00	1095.37
407.20	1008.77
407.39	1093.03
407.58	1039.20
407.77	1048.56
407.96	1177.29
408.15	1151.54
408.34	1006.43
408.54	1186.65
408.73	1095.37
408.92	1107.07
409.11	1177.29
409.30	1172.61
409.49	1163.25
409.68	1090.69
409.87	1142.18
410.07	1219.42
410.26	1219.42
410.45	1219.42
410.64	1238.14
410.83	1231.12
411.02	1153.88
411.21	1217.08
411.40	1352.83
411.59	1273.25
411.78	1343.47
411.98	1263.89
412.17	1310.70
412.36	1369.21
412.55	1362.19
412.74	1263.89
412.93	1385.60
413.12	1359.85
413.31	1446.45
413.50	1502.62
413.69	1355.17
413.88	1458.15
414.07	1469.86
414.26	1589.22
414.45	1582.20
414.64	1437.09
414.83	1483.90
415.02	1500.28
415.22	1453.47
415.41	1675.82
415.60	1596.25
415.79	1530.71
415.98	1699.23
416.17	1549.43
416.36	1699.23
416.55	1589.22
416.74	1675.82
416.93	1633.69
417.12	1778.81
417.31	1724.97
417.50	1818.60
417.69	1870.09
417.88	1764.76
418.07	1717.95
418.26	1729.66
418.45	1813.92
418.64	1940.30
418.83	1853.70
419.02	1853.70
419.21	1863.07
419.39	1846.68
419.58	1760.08
419.77	1858.39
419.96	1839.66
420.15	1898.17
420.34	1839.66
420.53	2024.56
420.72	1949.67
420.91	1832.64
421.10	2026.90
421.29	1928.60
421.48	1973.07
421.67	2045.63
421.86	2003.50
422.05	1933.28
422.24	2008.18
422.43	1975.41
422.61	1991.80
422.80	2026.90
422.99	2033.93
423.18	2113.50
423.37	2104.14
423.56	2101.80
423.75	2057.33
423.94	2026.90
424.13	1961.37
424.32	1949.67
424.50	2179.04
424.69	2073.71
424.88	2062.01
425.07	2062.01
425.26	2085.42
425.45	2064.35
425.64	2108.82
425.83	2157.97
426.01	2066.69
426.20	2120.53
426.39	2104.14
426.58	2090.10
426.77	2141.59
426.96	2101.80
427.15	2008.18
427.33	2165.00
427.52	2165.00
427.71	2087.76
427.90	2298.41
428.09	2258.62
428.28	2216.49
428.46	2319.47
428.65	2228.19
428.84	2298.41
429.03	2207.13
429.22	2286.70
429.40	2303.09
429.59	2275.00
429.78	2162.66
429.97	2275.00
430.16	2296.07
430.34	2385.01
430.53	2319.47
430.72	2338.20
430.91	2401.39
431.10	2307.77
431.28	2431.82
431.47	2406.07
431.66	2478.63
431.85	2385.01
432.03	2394.37
432.22	2499.69
432.41	2443.52
432.60	2534.80
432.79	2553.52
432.97	2530.12
433.16	2429.48
433.35	2513.74
433.54	2495.01
433.72	2565.23
433.91	2553.52
434.10	2480.97
434.28	2626.08
434.47	2597.99
434.66	2590.97
434.85	2663.53
435.03	2635.44
435.22	2724.38
435.41	2801.62
435.59	2766.51
435.78	2691.62
435.97	2689.28
436.16	2726.72
436.34	2672.89
436.53	2668.21
436.72	2663.53
436.90	2836.73
437.09	2888.22
437.28	2621.40
437.46	2759.49
437.65	2803.96
437.84	2794.60
438.02	2813.32
438.21	2836.73
438.40	2794.60
438.58	2946.73
438.77	2883.54
438.96	2967.80
439.14	2902.26
439.33	3012.27
439.52	2932.69
439.70	3045.04
439.89	2979.50
440.08	3016.95
440.26	3075.46
440.45	3129.30
440.63	3159.72
440.82	3124.62
441.01	3356.33
441.19	3290.79
441.38	3346.97
441.57	3173.77
441.75	3435.91
441.94	3344.63
442.12	3286.11
442.31	3353.99
442.50	3269.73
442.68	3211.22
442.87	3410.16
443.05	3386.76
443.24	3400.80
443.43	3510.80
443.61	3417.18
443.80	3499.10
443.98	3480.38
444.17	3501.44
444.35	3543.57
444.54	3506.12
444.73	3585.70
444.91	3592.72
445.10	3541.23
445.28	3300.16
445.47	3564.64
445.65	3588.04
445.84	3499.10
446.02	3590.38
446.21	3433.57
446.39	3538.89
446.58	3655.92
446.77	3571.66
446.95	3529.53
447.14	3433.57
447.32	3590.38
447.51	3524.85
447.69	3611.45
447.88	3639.53
448.06	3599.74
448.25	3599.74
448.43	3655.92
448.62	3679.32
448.80	3728.47
448.99	3730.81
449.17	3506.12
449.36	3578.68
449.54	3700.39
449.73	3660.60
449.91	3691.02
450.10	3765.92
450.28	3803.37
450.46	3899.33
450.65	3878.27
450.83	3805.71
451.02	3864.22
451.20	3962.53
451.39	3978.91
451.57	3864.22
451.76	3789.33
451.94	3761.24
452.13	3981.25
452.31	3922.74
452.49	3770.60
452.68	3836.14
452.86	3936.78
453.05	4121.68
453.23	4023.38
453.42	4107.64
453.60	4072.53
453.78	4079.55
453.97	4007.00
454.15	4093.60
454.34	4102.96
454.52	4084.23
454.70	4011.68
454.89	4121.68
455.07	4046.79
455.26	4159.13
455.44	4287.86
455.62	4334.67
455.81	4257.43
455.99	4217.65
456.17	4133.39
456.36	4252.75
456.54	4236.37
456.73	4425.95
456.91	4507.87
457.09	4351.06
457.28	4454.04
457.46	4334.67
457.64	4507.87
457.83	4423.61
458.01	4390.84
458.19	4468.08
458.38	4372.12
458.56	4606.17
458.74	4613.20
458.93	4414.25
459.11	4638.94
459.29	4571.07
459.48	4610.86
459.66	4594.47
459.84	4641.28
460.03	4770.01
460.21	4461.06
460.39	4545.32
460.57	4587.45
460.76	4753.63
460.94	4760.65
461.12	4826.18
461.31	4802.78
461.49	4720.86
461.67	4620.22
461.85	4821.50
462.04	4802.78
462.22	4992.36
462.40	4856.61
462.59	4814.48
462.77	4889.38
462.95	4877.68
463.13	4903.42
463.32	4788.74
463.50	4964.28
463.68	5008.75
463.86	4973.64
464.05	5067.26
464.23	4865.97
464.41	5029.81
464.59	4964.28
464.78	5200.67
464.96	4952.57
465.14	5032.15
465.32	5039.17
465.50	5128.11
465.69	5146.84
465.87	5135.14
466.05	5184.29
466.23	5013.43
466.41	5128.11
466.60	5341.10
466.78	5380.89
466.96	5107.05
467.14	5158.54
467.32	5259.18
467.51	5210.03
467.69	5130.45
467.87	5165.56
468.05	5261.52
468.23	5214.71
468.41	5114.07
468.60	5380.89
468.78	5458.13
468.96	5406.64
469.14	5486.22
469.32	5425.36
469.50	5313.02
469.69	5528.35
469.87	5472.17
470.05	5556.43
470.23	5476.85
470.41	5547.07
470.59	5614.95
470.77	5526.00
470.95	5570.48
471.14	5673.46
471.32	5575.16
471.50	5856.02
471.68	5650.05
471.86	5645.37
472.04	5666.44
472.22	5764.74
472.40	5851.34
472.58	5830.27
472.77	5984.75
472.95	5912.19
473.13	6122.84
473.31	5935.60
473.49	6033.90
473.67	5781.12
473.85	6040.92
474.03	6284.34
474.21	6066.67
474.39	6143.91
474.57	6305.40
474.75	6328.81
474.93	6253.91
475.12	6260.93
475.30	6410.73
475.48	6384.98
475.66	6429.45
475.84	6429.45
476.02	6424.77
476.20	6722.02
476.38	6527.75
476.56	6656.48
476.74	6642.44
476.92	6642.44
477.10	6642.44
477.28	6956.07
477.46	6724.36
477.64	6822.66
477.82	7021.61
478.00	7084.80
478.18	7276.73
478.36	7187.79
478.54	7248.64
478.72	7300.13
478.90	7410.14
479.08	7281.41
479.26	7330.56
479.44	7368.01
479.62	7714.41
479.80	7440.56
479.98	7667.60
480.16	7634.83
480.34	7449.93
480.52	7779.94
480.70	7707.38
480.88	7740.15
481.06	7698.02
481.24	7934.42
481.41	8095.91
481.59	8138.04
481.77	8255.07
481.95	8367.42
482.13	8175.49
482.31	8360.39
482.49	8458.70
482.67	8435.29
482.85	8610.83
483.03	8559.34
483.21	8912.76
483.39	8657.64
483.57	8861.27
483.74	8947.87
483.92	9036.81
484.10	8945.53
484.28	9085.96
484.46	9186.60
484.64	9495.55
484.82	9167.88
485.00	9561.09
485.18	9516.62
485.35	9628.96
485.53	9577.47
485.71	9654.71
485.89	9598.54
486.07	9652.37
486.25	9830.25
486.43	9893.44
486.61	10019.83
486.78	10260.91
486.96	10024.51
487.14	10225.80
487.32	10609.65
487.50	10303.04
487.68	10567.52
487.85	10670.50
488.03	10611.99
488.21	10656.46
488.39	10813.28
488.57	10881.15
488.75	11054.35
488.92	11297.77
489.10	11159.67
489.28	11382.03
489.46	11272.02
489.64	11302.45
489.81	11538.84
489.99	11655.87
490.17	11707.36
490.35	11639.48
490.53	11674.59
490.70	12084.19
490.88	11822.05
491.06	11953.12
491.24	12006.95
491.41	12187.17
491.59	12369.73
491.77	12241.00
491.95	12372.07
492.13	12582.72
492.30	12444.63
492.48	12496.12
492.66	12798.05
492.84	12685.70
493.01	12933.80
493.19	13214.66
493.37	13060.19
493.54	13205.30
493.72	13116.36
493.90	13123.38
494.08	13392.55
494.25	13500.21
494.43	13682.77
494.61	13645.32
494.79	13540.00
494.96	13626.60
495.14	13657.03
495.32	13923.85
495.49	13898.10
495.67	14059.60
495.85	13987.04
496.02	14141.52
496.20	14183.65
496.38	14324.08
496.55	14354.51
496.73	14317.06
496.91	14555.79
497.09	14824.95
497.26	14740.69
497.44	14766.44
497.62	14745.38
497.79	14906.87
497.97	15040.28
498.14	14998.15
498.32	15283.70
498.50	15056.67
498.67	15449.88
498.85	15304.76
499.03	15297.74
499.20	15337.53
499.38	15515.41
499.56	15374.98
499.73	15543.50
499.91	15756.49
500.08	15864.15
500.26	15754.15
500.44	15871.17
500.61	15824.36
500.79	15805.64
500.97	16154.38
501.14	16245.66
501.32	16173.10
501.49	16135.65
501.67	16208.21
501.84	16404.81
502.02	16542.91
502.20	16430.56
502.37	16587.38
502.55	16444.60
502.72	16453.97
502.90	16659.93
503.07	16493.76
503.25	16889.31
503.43	16798.02
503.60	16791.00
503.78	17177.19
503.95	16992.29
504.13	16950.16
504.30	17207.62
504.48	16989.95
504.65	16964.20
504.83	17369.12
505.01	17427.63
505.18	17554.02
505.36	17635.94
505.53	17481.46
505.71	17247.41
505.88	17675.73
506.06	17549.34
506.23	17734.24
506.41	17715.51
506.58	17645.30
506.76	17652.32
506.93	17893.40
507.11	17717.86
507.28	18066.60
507.46	18024.47
507.63	18164.90
507.81	18036.17
507.98	18317.03
508.16	18054.89
508.33	18218.73
508.50	18052.55
508.68	18368.52
508.85	18649.39
509.03	18876.42
509.20	18780.46
509.38	18635.35
509.55	18623.64
509.73	18602.58
509.90	18665.77
510.08	18593.22
510.25	18827.27
510.42	18909.19
510.60	19248.57
510.77	18899.83
510.95	19241.54
511.12	18998.13
511.30	19307.08
511.47	19337.51
511.64	19365.59
511.82	19571.56
511.99	19260.27
512.17	19501.34
512.34	19686.25
512.51	19566.88
512.69	19763.48
512.86	19751.78
513.04	19953.07
513.21	19843.06
513.38	20030.30
513.56	20063.07
513.73	19730.72
513.90	19901.58
514.08	20025.62
514.25	20231.59
514.43	20587.35
514.60	20247.97
514.77	20315.85
514.95	20168.40
515.12	20372.02
515.29	20439.90
515.47	20755.87
515.64	20203.50
515.81	20521.82
515.99	21032.05
516.16	20641.18
516.33	20858.85
516.51	20879.92
516.68	20711.40
516.85	20957.16
517.03	20870.56
517.20	21128.02
517.37	20952.48
517.54	21090.57
517.72	20788.64
517.89	21097.59
518.06	20975.88
518.24	21025.03
518.41	21078.86
518.58	21177.17
518.75	21411.22
518.93	21558.67
519.10	21303.56
519.27	21589.10
519.45	21411.22
519.62	21401.86
519.79	21638.25
519.96	21647.61
520.14	21666.34
520.31	21701.45
520.48	21916.78
520.65	21940.18
520.83	21860.60
521.00	21825.50
521.17	21755.28
521.34	22101.68
521.52	22127.42
521.69	22326.37
521.86	22487.87
522.03	22438.72
522.20	22342.75
522.38	22181.26
522.55	22443.40
522.72	22642.34
522.89	22544.04
523.07	22806.18
523.24	22714.90
523.41	22883.42
523.58	22427.01
523.75	22787.46
523.92	22677.45
524.10	22731.28
524.27	22752.35
524.44	23131.51
524.61	23414.72
524.78	23094.07
524.96	23211.09
525.13	23248.54
525.30	22941.93
525.47	23424.08
525.64	23438.12
525.81	23108.11
525.98	23346.84
526.16	23527.06
526.33	22897.46
526.50	23309.40
526.67	23101.09
526.84	22970.02
527.01	23541.11
527.18	23510.68
527.36	23559.83
527.53	23669.84
527.70	23690.90
527.87	23723.67
528.04	23718.99
528.21	23651.11
528.38	23866.44
528.55	23983.47
528.72	24025.60
528.89	24093.47
529.07	24133.26
529.24	23903.89
529.41	24376.68
529.58	24266.67
529.75	24215.18
529.92	24320.51
530.09	24601.37
530.26	24868.19
530.43	24430.51
530.60	24411.79
530.77	24276.04
530.94	24467.96
531.11	24369.66
531.28	24474.98
531.46	24439.87
531.63	24552.22
531.80	24603.71
531.97	24819.04
532.14	25036.71
532.31	24603.71
532.48	24538.18
532.65	24809.68
532.82	24833.08
532.99	24657.54
533.16	24872.87
533.33	25048.41
533.50	25029.69
533.67	24849.47
533.84	24805.00
534.01	24790.95
534.18	24943.09
534.35	25020.33
534.52	25174.80
534.69	24800.32
534.86	25734.19
535.03	25249.70
535.20	25053.09
535.37	25497.80
535.54	25724.83
535.71	25298.85
535.88	25366.73
536.05	25486.09
536.22	25448.64
536.38	25881.64
536.55	25968.24
536.72	25364.39
536.89	25666.31
537.06	25720.15
537.23	25905.05
537.40	25537.59
537.57	25549.29
537.74	25839.51
537.91	26277.19
538.08	25954.20
538.25	25802.07
538.42	25958.88
538.59	25970.58
538.75	25804.41
538.92	26082.93
539.09	25949.52
539.26	26101.65
539.43	26010.37
539.60	26099.31
539.77	26305.28
539.94	26244.43
540.11	26181.23
540.28	26274.85
540.44	26394.22
540.61	26036.12
540.78	26146.12
540.95	26405.92
541.12	26162.51
541.29	26452.73
541.46	26382.52
541.62	26178.89
541.79	26567.42
541.96	25905.05
542.13	26771.05
542.30	26469.12
542.47	26555.72
542.63	26534.65
542.80	26969.99
542.97	27075.32
543.14	27072.98
543.31	26918.50
543.48	26773.39
543.64	26920.84
543.81	27000.42
543.98	27400.65
544.15	27140.85
544.32	27267.24
544.48	27463.85
544.65	27117.45
544.82	27402.99
544.99	27178.30
545.16	27482.57
545.32	26920.84
545.49	27569.17
545.66	27606.62
545.83	27821.95
546.00	27910.89
546.16	27917.91
546.33	27412.35
546.50	26972.33
546.67	27695.56
546.83	27281.28
547.00	27566.83
547.17	27695.56
547.34	27782.16
547.50	27557.47
547.67	28121.54
547.84	27482.57
548.00	27583.21
548.17	27953.02
548.34	27821.95
548.51	28233.88
548.67	27751.73
548.84	28306.44
549.01	27985.79
549.18	27967.06
549.34	28079.41
549.51	28205.80
549.68	28116.86
549.84	27627.68
550.01	27784.50
550.18	27728.33
550.34	28276.01
550.51	28219.84
550.68	28280.69
550.84	27910.89
551.01	28353.25
551.18	28231.54
551.34	28201.11
551.51	28053.66
551.68	27953.02
551.84	28273.67
552.01	28297.08
552.18	28519.43
552.34	28575.60
552.51	28416.44
552.68	28533.47
552.84	28533.47
553.01	28678.58
553.18	28652.84
553.34	28741.78
553.51	28402.40
553.67	28636.45
553.84	29230.95
554.01	28816.68
554.17	28734.76
554.34	28741.78
554.51	28465.60
554.67	28987.53
554.84	28739.44
555.00	28844.76
555.17	28542.83
555.33	29003.92
555.50	29017.96
555.67	28741.78
555.83	28837.74
556.00	28739.44
556.16	29252.02
556.33	28889.23
556.50	29277.76
556.66	29343.30
556.83	29333.93
556.99	29589.05
557.16	29502.45
557.32	29420.53
557.49	29404.15
557.65	29261.38
557.82	29156.05
557.98	28996.90
558.15	29404.15
558.32	29263.72
558.48	29486.07
558.65	29401.81
558.81	29621.82
558.98	29247.33
559.14	29347.98
559.31	29504.79
559.47	29806.72
559.64	29436.92
559.80	29383.09
559.97	29809.06
560.13	29750.55
560.30	29757.57
560.46	29682.67
560.63	29656.93
560.79	29596.07
560.96	29743.53
561.12	29560.97
561.29	29200.52
561.45	29780.98
561.61	29682.67
561.78	30120.35
561.94	29687.36
562.11	29577.35
562.27	29771.61
562.44	29656.93
562.60	29687.36
562.77	29546.92
562.93	29759.91
563.10	29944.81
563.26	29752.89
563.42	30089.93
563.59	29713.10
563.75	29539.90
563.92	29879.28
564.08	29589.05
564.24	29895.66
564.41	29888.64
564.57	29785.66
564.74	29975.24
564.90	30352.07
565.07	30129.72
565.23	30237.38
565.39	29900.34
565.56	30228.02
565.72	29862.90
565.88	30270.15
566.05	29928.43
566.21	29780.98
566.38	30422.28
566.54	30277.17
566.70	30064.18
566.87	30452.71
567.03	30206.95
567.19	30267.81
567.36	30153.12
567.52	30323.98
567.68	30331.00
567.85	29898.00
568.01	30110.99
568.17	30403.56
568.34	30429.30
568.50	30366.11
568.66	30253.76
568.83	30405.90
568.99	30658.68
569.15	30171.85
569.32	30349.73
569.48	30136.74
569.64	30218.66
569.81	30398.88
569.97	30593.14
570.13	30314.62
570.30	30099.29
570.46	30345.05
570.62	30197.59
570.78	30256.11
570.95	29766.93
571.11	30515.90
571.27	30363.77
571.43	30087.59
571.60	30529.95
571.76	30370.79
571.92	30384.83
572.09	30658.68
572.25	30441.01
572.41	30539.31
572.57	30204.61
572.74	30403.56
572.90	30478.46
573.06	30361.43
573.22	30450.37
573.38	30595.48
573.55	30366.11
573.71	30764.00
573.87	30749.96
574.03	30590.80
574.20	30298.23
574.36	30139.08
574.52	30541.65
574.68	30490.16
574.84	30480.80
575.01	30796.77
575.17	30527.61
575.33	30480.80
575.49	30260.79
575.65	30497.18
575.82	30792.09
575.98	30490.16
576.14	30670.38
576.30	30314.62
576.46	30347.39
576.62	30565.06
576.79	30618.89
576.95	30773.36
577.11	30731.23
577.27	30375.47
577.43	30801.45
577.59	30698.47
577.75	30553.35
577.92	30305.26
578.08	30602.50
578.24	30181.21
578.40	30389.52
578.56	31084.65
578.72	30405.90
578.88	30796.77
579.04	31124.44
579.21	30803.79
579.37	30616.55
579.53	30766.34
579.69	30614.21
579.85	30948.90
580.01	30593.14
580.17	30452.71
580.33	30785.07
580.49	30565.06
580.65	31192.32
580.82	30927.84
580.98	30958.27
581.14	30836.56
581.30	30684.42
581.46	30836.56
581.62	30670.38
581.78	30508.88
581.94	30700.81
582.10	30560.37
582.26	30801.45
582.42	30731.23
582.58	30869.33
582.74	30749.96
582.90	30871.67
583.06	30930.18
583.22	30824.86
583.38	31023.80
583.54	30766.34
583.70	30677.40
583.86	30883.37
584.02	30906.77
584.18	31166.57
584.34	30967.63
584.50	31049.55
584.66	30686.76
584.82	30560.37
584.98	30560.37
585.14	30895.07
585.30	30644.63
585.46	30696.13
585.62	30616.55
585.78	31171.25
585.94	30473.78
586.10	31089.34
586.26	31000.40
586.42	30895.07
586.58	30691.44
586.74	30876.35
586.90	30866.98
587.06	30852.94
587.22	30881.03
587.38	31161.89
587.54	30998.06
587.70	30878.69
587.86	31494.25
588.02	31365.52
588.18	31353.82
588.34	31257.85
588.49	30871.67
588.65	30522.93
588.81	31040.18
588.97	30897.41
589.13	31054.23
589.29	30930.18
589.45	30918.48
589.61	31302.32
589.77	31033.16
589.93	31044.87
590.08	31716.60
590.24	31248.49
590.40	31295.30
590.56	31288.28
590.72	30976.99
590.88	31101.04
591.04	31452.12
591.20	31222.75
591.35	31077.63
591.51	31723.62
591.67	31655.75
591.83	31398.29
591.99	31178.28
592.15	31248.49
592.31	31473.18
592.46	30859.96
592.62	30969.97
592.78	30991.03
592.94	31049.55
593.10	30962.95
593.26	31580.85
593.41	31510.63
593.57	31178.28
593.73	31714.26
593.89	31747.03
594.05	31681.49
594.20	31379.56
594.36	31702.56
594.52	31229.77
594.68	31218.07
594.84	31056.57
594.99	31501.27
595.15	31400.63
595.31	31597.23
595.47	31232.11
595.62	31941.29
595.78	31264.88
595.94	31454.46
596.10	30955.93
596.25	30969.97
596.41	31037.84
596.57	30984.01
596.73	31318.71
596.88	31435.74
597.04	31440.42
597.20	31505.95
597.36	31489.57
597.51	31735.32
597.67	31147.85
597.83	31590.21
597.99	31414.67
598.14	31365.52
598.30	31285.94
598.46	31405.31
598.61	31480.21
598.77	31536.38
598.93	31321.05
599.09	31119.76
599.24	31744.69
599.40	31484.89
599.56	31901.50
599.71	31386.58
599.87	31665.11
600.03	31608.93
600.18	31269.56
600.34	31131.47
600.50	31711.92
600.65	31035.50
600.81	31992.78
600.97	31473.18
601.12	31889.80
601.28	31791.50
601.44	31826.60
601.59	31489.57
601.75	31683.83
601.91	31782.13
602.06	31641.70
602.22	31463.82
602.37	31435.74
602.53	31887.46
602.69	31484.89
602.84	31917.89
603.00	32168.32
603.16	31665.11
603.31	31384.24
603.47	31297.64
603.62	31543.40
603.78	31620.64
603.94	31461.48
604.09	31452.12
604.25	31381.90
604.40	31311.69
604.56	31690.85
604.71	31482.55
604.87	31328.07
605.03	31807.88
605.18	31297.64
605.34	31517.65
605.49	31264.88
605.65	31290.62
605.80	31133.81
605.96	31199.34
606.12	31494.25
606.27	31683.83
606.43	31281.26
606.58	31901.50
606.74	31534.04
606.89	31166.57
607.05	31580.85
607.20	31475.52
607.36	31328.07
607.51	31166.57
607.67	31325.73
607.82	31278.92
607.98	31484.89
608.13	31674.47
608.29	31145.51
608.44	31487.23
608.60	31386.58
608.75	31487.23
608.91	31468.50
609.06	31005.08
609.22	31391.26
609.37	30616.55
609.53	30998.06
609.68	31145.51
609.84	30923.16
609.99	31119.76
610.15	31257.85
610.30	31477.86
610.46	31101.04
610.61	31171.25
610.76	31534.04
610.92	31234.45
611.07	31140.83
611.23	31232.11
611.38	30911.46
611.54	31028.48
611.69	30967.63
611.84	31082.31
612.00	30916.14
612.15	30965.29
612.31	31197.00
612.46	31311.69
612.62	30984.01
612.77	30979.33
612.92	31192.32
613.08	31197.00
613.23	30899.75
613.39	30904.43
613.54	30635.27
613.69	30822.51
613.85	31208.70
614.00	30920.82
614.15	31150.19
614.31	30782.73
614.46	31517.65
614.62	31234.45
614.77	30927.84
614.92	31213.38
615.08	30787.41
615.23	31105.72
615.38	30712.51
615.54	30679.74
615.69	30326.32
615.84	30593.14
616.00	31009.76
616.15	30817.83
616.30	31061.25
616.46	31112.74
616.61	30656.34
616.76	30897.41
616.92	30483.14
617.07	30235.04
617.22	30597.82
617.37	30459.73
617.53	30848.26
617.68	30590.80
617.83	30394.20
617.99	30286.53
618.14	30373.13
618.29	30134.40
618.45	30628.25
618.60	30595.48
618.75	30314.62
618.90	30581.44
619.06	30595.48
619.21	30340.36
619.36	30518.25
619.51	30089.93
619.67	29898.00
619.82	30279.51
619.97	30405.90
620.12	30265.47
620.28	30206.95
620.43	30176.53
620.58	30389.52
620.73	30415.26
620.89	30380.15
621.04	30333.34
621.19	30260.79
621.34	29977.58
621.49	29741.19
621.65	30057.16
621.80	30366.11
621.95	29759.91
622.10	30146.10
622.25	29722.46
622.41	29867.58
622.56	29682.67
622.71	30066.52
622.86	30052.48
623.01	30195.25
623.16	30003.33
623.32	29881.62
623.47	30050.14
623.62	29865.24
623.77	29912.05
623.92	30148.44
624.07	29677.99
624.23	30024.39
624.38	30054.82
624.53	29965.88
624.68	29991.62
624.83	30103.97
624.98	30015.03
625.13	30022.05
625.29	29762.25
625.44	29797.36
625.59	29553.94
625.74	29359.68
625.89	29230.95
626.04	29460.32
626.19	29755.23
626.34	29944.81
626.49	29518.84
626.65	29326.91
626.80	29991.62
626.95	29858.21
627.10	29724.80
627.25	29825.45
627.40	29163.08
627.55	29509.47
627.70	29041.37
627.85	29118.60
628.00	29567.99
628.15	29397.13
628.30	29298.83
628.45	29312.87
628.60	29228.61
628.76	29500.11
628.91	29439.26
629.06	29263.72
629.21	29654.59
629.36	29439.26
629.51	29383.09
629.66	29163.08
629.81	29610.12
629.96	29776.30
630.11	29455.64
630.26	29219.25
630.41	29116.26
630.56	29081.16
630.71	29219.25
630.86	29230.95
631.01	28996.90
631.16	29207.55
631.31	29024.98
631.46	29067.11
631.61	29090.52
631.76	28968.81
631.91	29071.79
632.06	28751.14
632.21	28704.33
632.36	28945.41
632.51	28783.91
632.66	29050.73
632.81	28732.42
632.96	28875.19
633.10	29010.94
633.25	28978.17
633.40	28900.94
633.55	28699.65
633.70	28610.71
633.85	28353.25
634.00	28533.47
634.15	28774.55
634.30	28608.37
634.45	28538.15
634.60	28439.85
634.75	28582.62
634.90	28797.95
635.05	28968.81
635.19	28357.93
635.34	28671.56
635.49	28793.27
635.64	28276.01
635.79	28444.53
635.94	28685.61
636.09	28521.77
636.24	28294.74
636.39	28641.14
636.53	28355.59
636.68	28156.64
636.83	28460.91
636.98	28589.64
637.13	28320.48
637.28	28545.17
637.43	28683.27
637.57	28278.35
637.72	28039.62
637.87	28208.14
638.02	28676.24
638.17	28446.87
638.32	28100.47
638.46	28240.90
638.61	27885.14
638.76	28180.05
638.91	27594.92
639.06	28067.70
639.20	28100.47
639.35	28205.80
639.50	27988.13
639.65	28599.01
639.80	28259.63
639.94	28250.27
640.09	28163.67
640.24	27868.76
640.39	27985.79
640.54	27688.54
640.68	27651.09
640.83	27826.63
640.98	27716.62
641.13	27985.79
641.27	28194.09
641.42	27583.21
641.57	27562.15
641.72	27826.63
641.86	27594.92
642.01	27377.25
642.16	27594.92
642.31	27566.83
642.45	27723.65
642.60	27428.74
642.75	27566.83
642.90	27487.25
643.04	27346.82
643.19	27711.94
643.34	27702.58
643.48	27615.98
643.63	27772.80
643.78	27374.91
643.93	27377.25
644.07	27243.84
644.22	27864.08
644.37	27831.31
644.51	27508.32
644.66	27379.59
644.81	27461.51
644.95	27262.56
645.10	27428.74
645.25	27122.13
645.39	27358.52
645.54	27332.78
645.69	27316.39
645.83	27391.29
645.98	27618.32
646.13	27721.30
646.27	27749.39
646.42	27709.60
646.57	27445.12
646.71	27447.46
646.86	27112.77
647.00	27248.52
647.15	27381.93
647.30	27014.46
647.44	26993.40
647.59	26752.32
647.74	27278.94
647.88	27145.53
648.03	27129.15
648.17	27168.94
648.32	27084.68
648.47	27197.02
648.61	27346.82
648.76	27332.78
648.90	27412.35
649.05	27185.32
649.20	27105.74
649.34	26878.71
649.49	26911.48
649.63	26822.54
649.78	26869.35
649.92	26820.20
650.07	27222.77
650.21	27283.62
650.36	26836.58
650.51	26698.49
650.65	26937.23
650.80	26897.44
650.94	27126.81
651.09	26824.88
651.23	26235.06
651.38	26712.53
651.52	26635.30
651.67	26941.91
651.81	26782.75
651.96	26445.71
652.10	26799.13
652.25	26473.80
652.39	26597.85
652.54	26665.72
652.68	26661.04
652.83	26742.96
652.97	26705.51
653.12	26984.04
653.26	26635.30
653.41	26501.89
653.55	26434.01
653.70	26288.90
653.84	26932.54
653.99	26721.90
654.13	26473.80
654.27	26331.03
654.42	26277.19
654.56	26349.75
654.71	26515.93
654.85	26448.05
655.00	26192.94
655.14	26204.64
655.29	26040.80
655.43	26616.57
655.57	26087.61
655.72	26459.76
655.86	26050.16
656.01	26050.16
656.15	26078.25
656.30	25874.62
656.44	25692.06
656.58	26108.68
656.73	25958.88
656.87	26277.19
657.01	25869.94
657.16	26192.94
657.30	26415.29
657.45	26120.38
657.59	25965.90
657.73	26087.61
657.88	25818.45
658.02	26160.17
658.16	25692.06
658.31	25827.81
658.45	25788.02
658.60	25788.02
658.74	25591.42
658.88	25661.63
659.03	25626.53
659.17	25521.20
659.31	25741.21
659.46	26026.76
659.60	25680.36
659.74	25535.24
659.89	25848.88
660.03	25331.62
660.17	26001.01
660.32	25490.77
660.46	25350.34
660.60	25193.53
660.74	25275.45
660.89	25481.41
661.03	25284.81
661.17	25137.35
661.32	25191.19
661.46	25408.86
661.60	25036.71
661.74	25266.08
661.89	25256.72
662.03	25008.62
662.17	25303.53
662.31	25221.61
662.46	25310.55
662.60	25095.22
662.74	24746.48
662.88	24505.41
663.03	24556.90
663.17	24900.96
663.31	24423.49
663.45	24781.59
663.60	24741.80
663.74	24549.88
663.88	24769.89
664.02	24414.13
664.17	25046.07
664.31	24800.32
664.45	24589.67
664.59	24676.27
664.73	24414.13
664.88	24435.19
665.02	24135.60
665.16	24453.92
665.30	24493.71
665.44	24264.33
665.59	24058.37
665.73	24107.52
665.87	24175.39
666.01	24149.65
666.15	24334.55
666.29	24353.27
666.44	24273.70
666.58	24056.03
666.72	24088.79
666.86	23939.00
667.00	24552.22
667.14	23728.35
667.28	23974.11
667.43	23889.85
667.57	24102.84
667.71	23831.33
667.85	23871.12
667.99	23564.51
668.13	23683.88
668.27	23761.12
668.41	23917.93
668.56	23761.12
668.70	23784.52
668.84	23618.35
668.98	23527.06
669.12	23330.46
669.26	23351.52
669.40	23585.58
669.54	23545.79
669.68	23388.97
669.82	23056.62
669.96	23278.97
670.10	23063.64
670.25	23358.55
670.39	22768.73
670.53	22955.97
670.67	22843.63
670.81	22932.57
670.95	23054.28
671.09	23035.55
671.23	22948.95
671.37	22766.39
671.51	22930.23
671.65	23054.28
671.79	22986.40
671.93	22874.06
672.07	22902.14
672.21	22801.50
672.35	22801.50
672.49	22359.14
672.63	22621.28
672.77	22387.22
672.91	22389.56
673.05	22775.75
673.19	22455.10
673.33	22534.68
673.47	22174.24
673.61	22499.57
673.75	22120.40
673.89	22270.20
674.03	22012.74
674.17	22441.06
674.31	22136.79
674.45	22141.47
674.59	21802.09
674.73	22176.58
674.87	21991.67
675.01	21628.89
675.15	21841.88
675.29	21701.45
675.43	21666.34
675.56	21818.47
675.70	21654.64
675.84	21500.16
675.98	21120.99
676.12	21804.43
676.26	21813.79
676.40	21479.10
676.54	21628.89
676.68	21263.77
676.82	21142.06
676.96	20947.79
677.10	21003.97
677.23	20776.94
677.37	20802.68
677.51	21200.57
677.65	20992.26
677.79	20706.72
677.93	20739.49
678.07	20348.62
678.21	20594.37
678.34	20540.54
678.48	20556.93
678.62	20496.07
678.76	20360.32
678.90	20299.47
679.04	20175.42
679.18	20217.55
679.31	19999.88
679.45	20072.43
679.59	19751.78
679.73	20166.06
679.87	19686.25
680.00	19499.00
680.14	19974.13
680.28	19747.10
680.42	19646.46
680.56	19983.49
680.70	19513.05
680.83	19789.23
680.97	19920.30
681.11	19697.95
681.25	19475.60
681.39	19180.69
681.52	19393.68
681.66	19061.32
681.80	19297.72
681.94	18918.55
682.07	19103.45
682.21	19058.98
682.35	18642.37
682.49	18813.23
682.62	18651.73
682.76	18630.66
682.90	18759.39
683.04	18932.59
683.17	18415.34
683.31	18525.34
683.45	18382.57
683.59	18328.74
683.72	18558.11
683.86	18422.36
684.00	18469.17
684.13	17928.50
684.27	18338.10
684.41	18012.76
684.55	17771.69
684.68	17923.82
684.82	17771.69
684.96	17881.69
685.09	17858.29
685.23	17734.24
685.37	17743.60
685.50	17989.36
685.64	17577.42
685.78	17518.91
685.91	17612.53
686.05	17582.10
686.19	17603.17
686.32	17479.12
686.46	16975.91
686.60	16891.65
686.73	17036.76
686.87	17022.72
687.01	16856.54
687.14	17029.74
687.28	16915.05
687.42	16812.07
687.55	16779.30
687.69	16840.15
687.82	16826.11
687.96	16807.39
688.10	16379.07
688.23	16863.56
688.37	16617.80
688.50	16594.40
688.64	16496.10
688.78	16332.26
688.91	16063.10
689.05	16032.67
689.18	16196.51
689.32	15859.47
689.46	15899.26
689.59	16353.32
689.73	15971.82
689.86	15831.38
690.00	15702.65
690.13	15749.46
690.27	15716.70
690.41	15967.13
690.54	15894.58
690.68	15751.81
690.81	15676.91
690.95	15564.56
691.08	15585.63
691.22	15330.51
691.35	15257.95
691.49	15178.37
691.62	15363.28
691.76	15152.63
691.89	15318.81
692.03	14981.77
692.16	14759.42
692.30	14939.64
692.43	14960.70
692.57	14560.47
692.70	14560.47
692.84	14820.27
692.97	14635.37
693.11	14569.83
693.24	14696.22
693.38	14562.81
693.51	14508.98
693.65	14384.93
693.78	14303.01
693.92	14398.98
694.05	14558.13
694.19	14295.99
694.32	14136.84
694.45	13977.68
694.59	13954.27
694.72	13851.29
694.86	13692.13
694.99	13586.81
695.13	13741.29
695.26	13689.79
695.39	13865.33
695.53	13462.76
695.66	13706.18
695.80	13650.00
695.93	13462.76
696.07	13603.19
696.20	13481.49
696.33	13135.09
696.47	13305.95
696.60	13195.94
696.73	13315.31
696.87	13289.56
697.00	12751.24
697.14	12929.12
697.27	12933.80
697.40	12938.48
697.54	12676.34
697.67	12769.96
697.80	12580.38
697.94	12430.59
698.07	12788.69
698.21	12390.80
698.34	12666.98
698.47	12713.79
698.61	12432.93
698.74	12521.87
698.87	12397.82
699.01	12470.37
699.14	12196.53
699.27	12348.67
699.40	12245.68
699.54	12091.21
699.67	12159.08
699.80	12126.32
699.94	11873.54
700.07	12145.04
700.20	11817.36
700.34	11683.95
700.47	11903.96
700.60	11754.17
700.73	11880.56
700.87	11815.02
701.00	11538.84
701.13	11398.41
701.26	11583.31
701.40	11602.04
701.53	11349.26
701.66	11262.66
701.79	11185.42
701.93	11199.46
702.06	11314.15
702.19	11026.26
702.32	11140.95
702.46	10904.56
702.59	10977.11
702.72	10909.24
702.85	10855.40
702.99	10600.29
703.12	10705.61
703.25	10623.69
703.38	10525.39
703.51	10651.78
703.65	10560.50
703.78	10611.99
703.91	10581.56
704.04	10574.54
704.17	10469.22
704.31	10382.62
704.44	10595.61
704.57	10293.68
704.70	10181.33
704.83	10127.50
704.96	9921.53
705.10	10214.10
705.23	9902.81
>>>>>End Processed Spectral Data<<<<<
