SpectraSuite Data File
++++++++++++++++++++++++++++++++++++
Date: Fri Oct 18 13:57:58 GMT-05:00 2013
User: bianchi
Dark Spectrum Present: No
Reference Spectrum Present: No
Number of Sampled Component Spectra: 1
Spectrometers: USB2+H05261
Integration Time (usec): 50000 (USB2+H05261)
Spectra Averaged: 1 (USB2+H05261)
Boxcar Smoothing: 0 (USB2+H05261)
Correct for Electrical Dark: No (USB2+H05261)
Strobe/Lamp Enabled: No (USB2+H05261)
Correct for Detector Non-linearity: No (USB2+H05261)
Correct for Stray Light: No (USB2+H05261)
Number of Pixels in Processed Spectrum: 2048
>>>>>Begin Processed Spectral Data<<<<<
365.73	28.09
365.92	28.09
366.12	28.09
366.32	0.00
366.52	0.00
366.72	0.00
366.91	0.00
367.11	0.00
367.31	0.00
367.51	0.00
367.70	0.00
367.90	0.00
368.10	0.00
368.30	0.00
368.49	0.00
368.69	0.00
368.89	0.00
369.09	0.00
369.28	0.00
369.48	0.00
369.68	0.00
369.87	0.00
370.07	0.00
370.27	0.00
370.47	0.00
370.66	16.38
370.86	149.79
371.06	163.84
371.25	105.32
371.45	163.84
371.65	166.18
371.84	142.77
372.04	110.01
372.24	128.73
372.44	166.18
372.63	194.26
372.83	236.39
373.03	220.01
373.22	238.73
373.42	194.26
373.62	283.20
373.81	161.50
374.01	269.16
374.21	262.14
374.40	238.73
374.60	297.25
374.79	142.77
374.99	231.71
375.19	313.63
375.38	294.91
375.58	198.95
375.78	325.33
375.97	215.33
376.17	241.08
376.37	348.74
376.56	255.12
376.76	177.88
376.95	257.46
377.15	280.86
377.35	241.08
377.54	306.61
377.74	264.48
377.93	262.14
378.13	337.04
378.33	304.27
378.52	301.93
378.72	297.25
378.91	262.14
379.11	304.27
379.31	301.93
379.50	306.61
379.70	337.04
379.89	320.65
380.09	372.15
380.28	365.12
380.48	334.70
380.68	292.57
380.87	304.27
381.07	266.82
381.26	318.31
381.46	367.46
381.65	315.97
381.85	381.51
382.04	285.55
382.24	383.85
382.43	264.48
382.63	322.99
382.83	407.25
383.02	353.42
383.22	407.25
383.41	374.49
383.61	388.53
383.80	360.44
384.00	421.30
384.19	344.06
384.39	346.40
384.58	369.80
384.78	414.27
384.97	355.76
385.17	346.40
385.36	400.23
385.56	294.91
385.75	360.44
385.95	374.49
386.14	444.70
386.34	477.47
386.53	358.10
386.72	330.02
386.92	461.09
387.11	461.09
387.31	386.19
387.50	411.93
387.70	409.59
387.89	400.23
388.09	423.64
388.28	465.77
388.48	442.36
388.67	458.74
388.86	484.49
389.06	430.66
389.25	458.74
389.45	423.64
389.64	496.19
389.84	533.64
390.03	458.74
390.22	454.06
390.42	470.45
390.61	447.04
390.81	510.24
391.00	479.81
391.19	573.43
391.39	423.64
391.58	540.66
391.78	521.94
391.97	535.98
392.16	545.34
392.36	596.84
392.55	552.37
392.75	564.07
392.94	580.45
393.13	524.28
393.33	524.28
393.52	573.43
393.71	620.24
393.91	615.56
394.10	655.35
394.29	557.05
394.49	540.66
394.68	627.26
394.88	629.60
395.07	589.82
395.26	624.92
395.46	664.71
395.65	594.50
395.84	589.82
396.04	589.82
396.23	683.44
396.42	559.39
396.62	676.41
396.81	716.20
397.00	669.39
397.19	702.16
397.39	770.04
397.58	699.82
397.77	716.20
397.97	765.36
398.16	657.69
398.35	702.16
398.55	657.69
398.74	765.36
398.93	777.06
399.12	699.82
399.32	669.39
399.51	734.93
399.70	739.61
399.90	755.99
400.09	758.33
400.28	753.65
400.47	880.04
400.67	751.31
400.86	891.74
401.05	755.99
401.24	821.53
401.44	840.25
401.63	842.59
401.82	854.30
402.01	770.04
402.21	779.40
402.40	814.51
402.59	800.46
402.78	889.40
402.97	835.57
403.17	868.34
403.36	889.40
403.55	884.72
403.74	894.08
403.93	901.11
404.13	851.96
404.32	933.87
404.51	875.36
404.70	964.30
404.89	908.13
405.09	961.96
405.28	976.00
405.47	1004.09
405.66	980.68
405.85	1118.78
406.05	976.00
406.24	1011.11
406.43	1039.20
406.62	1027.50
406.81	1062.60
407.00	983.02
407.20	1004.09
407.39	999.41
407.58	1067.28
407.77	1071.97
407.96	1114.10
408.15	1102.39
408.34	1186.65
408.54	1071.97
408.73	1123.46
408.92	1100.05
409.11	1179.63
409.30	1217.08
409.49	1137.50
409.68	1144.52
409.87	1156.22
410.07	1224.10
410.26	1188.99
410.45	1160.91
410.64	1184.31
410.83	1291.98
411.02	1207.72
411.21	1275.59
411.40	1217.08
411.59	1355.17
411.78	1193.67
411.98	1341.13
412.17	1399.64
412.36	1287.29
412.55	1315.38
412.74	1378.58
412.93	1418.36
413.12	1268.57
413.31	1416.02
413.50	1383.26
413.69	1411.34
413.88	1420.71
414.07	1327.08
414.26	1556.46
414.45	1479.22
414.64	1483.90
414.83	1535.39
415.02	1460.49
415.22	1481.56
415.41	1591.56
415.60	1537.73
415.79	1579.86
415.98	1724.97
416.17	1694.55
416.36	1652.42
416.55	1671.14
416.74	1565.82
416.93	1708.59
417.12	1750.72
417.31	1804.55
417.50	1631.35
417.69	1825.62
417.88	1818.60
418.07	1832.64
418.26	1870.09
418.45	1818.60
418.64	1844.34
418.83	1944.99
419.02	1830.30
419.21	1912.22
419.39	1856.04
419.58	1942.64
419.77	1973.07
419.96	1867.75
420.15	1923.92
420.34	2038.61
420.53	1867.75
420.72	2010.52
420.91	1933.28
421.10	1947.33
421.29	1977.75
421.48	1916.90
421.67	2040.95
421.86	1952.01
422.05	2033.93
422.24	1998.82
422.43	1968.39
422.61	2015.20
422.80	1942.64
422.99	2003.50
423.18	2113.50
423.37	1961.37
423.56	2054.99
423.75	2080.74
423.94	2036.27
424.13	2010.52
424.32	2012.86
424.50	2047.97
424.69	2127.55
424.88	2139.25
425.07	2087.76
425.26	2036.27
425.45	2076.06
425.64	1975.41
425.83	2062.01
426.01	2073.71
426.20	2162.66
426.39	2003.50
426.58	2090.10
426.77	2179.04
426.96	2153.29
427.15	2122.87
427.33	2188.40
427.52	2251.60
427.71	2265.64
427.90	2064.35
428.09	2146.27
428.28	2244.57
428.46	2324.15
428.65	2279.68
428.84	2331.17
429.03	2349.90
429.22	2155.63
429.40	2228.19
429.59	2317.13
429.78	2237.55
429.97	2134.57
430.16	2232.87
430.34	2342.88
430.53	2408.41
430.72	2265.64
430.91	2279.68
431.10	2406.07
431.28	2480.97
431.47	2406.07
431.66	2497.35
431.85	2331.17
432.03	2476.29
432.22	2518.42
432.41	2471.61
432.60	2443.52
432.79	2455.22
432.97	2541.82
433.16	2450.54
433.35	2539.48
433.54	2513.74
433.72	2483.31
433.91	2597.99
434.10	2586.29
434.28	2574.59
434.47	2558.21
434.66	2698.64
434.85	2703.32
435.03	2693.96
435.22	2693.96
435.41	2799.28
435.59	2780.56
435.78	2640.12
435.97	2708.00
436.16	2724.38
436.34	2733.75
436.53	2745.45
436.72	2867.16
436.90	2633.10
437.09	2871.84
437.28	2827.37
437.46	2818.00
437.65	2916.31
437.84	2869.50
438.02	2796.94
438.21	2827.37
438.40	2825.03
438.58	2977.16
438.77	2895.24
438.96	2965.46
439.14	3080.14
439.33	2946.73
439.52	3129.30
439.70	3089.51
439.89	3089.51
440.08	3103.55
440.26	3035.67
440.45	3211.22
440.63	3164.40
440.82	2979.50
441.01	3183.13
441.19	3164.40
441.38	3311.86
441.57	3253.34
441.75	3417.18
441.94	3307.18
442.12	3370.37
442.31	3445.27
442.50	3403.14
442.68	3442.93
442.87	3424.20
443.05	3386.76
443.24	3492.08
443.43	3407.82
443.61	3454.63
443.80	3520.17
443.98	3379.73
444.17	3452.29
444.35	3543.57
444.54	3658.26
444.73	3562.30
444.91	3559.95
445.10	3581.02
445.28	3632.51
445.47	3445.27
445.65	3602.08
445.84	3482.72
446.02	3562.30
446.21	3445.27
446.39	3581.02
446.58	3492.08
446.77	3754.22
446.95	3562.30
447.14	3499.10
447.32	3662.94
447.51	3506.12
447.69	3623.15
447.88	3775.28
448.06	3496.76
448.25	3695.71
448.43	3630.17
448.62	3747.20
448.80	3599.74
448.99	3709.75
449.17	3733.15
449.36	3609.11
449.54	3721.45
449.73	3824.44
449.91	3796.35
450.10	3829.12
450.28	3829.12
450.46	3887.63
450.65	3754.22
450.83	3852.52
451.02	3801.03
451.20	3922.74
451.39	3831.46
451.57	3868.91
451.76	3719.11
451.94	3962.53
452.13	3913.38
452.31	3866.56
452.49	3889.97
452.68	3955.51
452.86	3934.44
453.05	3960.19
453.23	4121.68
453.42	4014.02
453.60	4058.49
453.78	4042.11
453.97	3840.82
454.15	4049.13
454.34	4109.98
454.52	4030.40
454.70	4093.60
454.89	4248.07
455.07	4290.20
455.26	4227.01
455.44	4320.63
455.62	4095.94
455.81	4222.33
455.99	4196.58
456.17	4257.43
456.36	4269.14
456.54	4297.22
456.73	4194.24
456.91	4400.21
457.09	4379.14
457.28	4442.34
457.46	4475.10
457.64	4402.55
457.83	4489.15
458.01	4390.84
458.19	4521.92
458.38	4554.68
458.56	4606.17
458.74	4542.98
458.93	4374.46
459.11	4610.86
459.29	4418.93
459.48	4512.55
459.66	4737.24
459.84	4592.13
460.03	4727.88
460.21	4681.07
460.39	4758.31
460.57	4608.51
460.76	4660.01
460.94	4812.14
461.12	4638.94
461.31	4550.00
461.49	4727.88
461.67	4613.20
461.85	5001.72
462.04	4716.18
462.22	5238.12
462.40	4753.63
462.59	4889.38
462.77	5020.45
462.95	4926.83
463.13	4884.70
463.32	4823.84
463.50	4863.63
463.68	5015.77
463.86	5085.98
464.05	5060.24
464.23	5053.22
464.41	4999.38
464.59	5062.58
464.78	5174.92
464.96	4997.04
465.14	5043.85
465.32	5074.28
465.50	5095.35
465.69	5130.45
465.87	4997.04
466.05	5195.99
466.23	5118.75
466.41	5142.16
466.60	5324.72
466.78	5195.99
466.96	5160.88
467.14	5413.66
467.32	5305.99
467.51	5427.70
467.69	5317.70
467.87	5268.55
468.05	5373.87
468.23	5357.49
468.41	5219.39
468.60	5380.89
468.78	5453.45
468.96	5439.40
469.14	5317.70
469.32	5397.28
469.50	5373.87
469.69	5509.62
469.87	5687.50
470.05	5596.22
470.23	5638.35
470.41	5657.07
470.59	5579.84
470.77	5547.07
470.95	5563.45
471.14	5846.66
471.32	5582.18
471.50	5778.78
471.68	5783.46
471.86	5755.38
472.04	5827.93
472.22	5902.83
472.40	5631.33
472.58	5783.46
472.77	5954.32
472.95	5930.92
473.13	6108.80
473.31	6017.52
473.49	5720.27
473.67	5865.38
473.85	6064.33
474.03	6085.39
474.21	6246.89
474.39	6188.38
474.57	6221.14
474.75	6321.79
474.93	6274.98
475.12	6204.76
475.30	6270.30
475.48	6326.47
475.66	6452.86
475.84	6300.72
476.02	6597.97
476.20	6349.87
476.38	6745.42
476.56	6796.92
476.74	6794.58
476.92	6754.79
477.10	6616.69
477.28	6829.68
477.46	6614.35
477.64	6738.40
477.82	6764.15
478.00	7337.58
478.18	7126.93
478.36	7316.51
478.54	7246.30
478.72	7250.98
478.90	7349.28
479.08	7344.60
479.26	7307.15
479.44	7566.95
479.62	7655.89
479.80	7716.75
479.98	7662.91
480.16	7784.62
480.34	7669.94
480.52	7911.01
480.70	7847.82
480.88	7744.83
481.06	7852.50
481.24	7971.86
481.41	8194.22
481.59	8231.66
481.77	8231.66
481.95	8126.34
482.13	8407.20
482.31	8121.66
482.49	8559.34
482.67	8561.68
482.85	8500.83
483.03	8697.43
483.21	8788.71
483.39	8865.95
483.57	8791.05
483.74	8856.59
483.92	8767.65
484.10	9132.77
484.28	9170.22
484.46	9144.47
484.64	9427.68
484.82	9217.03
485.00	9467.47
485.18	9430.02
485.35	9703.86
485.53	9713.22
485.71	9720.24
485.89	10087.71
486.07	9940.26
486.25	9958.98
486.43	9881.74
486.61	10001.11
486.78	10045.58
486.96	10408.36
487.14	10387.30
487.32	10436.45
487.50	10303.04
487.68	10551.14
487.85	10670.50
488.03	10803.91
488.21	11145.63
488.39	10993.50
488.57	10855.40
488.75	10913.92
488.92	11154.99
489.10	11239.25
489.28	11199.46
489.46	11459.26
489.64	11239.25
489.81	11625.44
489.99	11637.14
490.17	11609.06
490.35	11974.18
490.53	11756.51
490.70	11868.86
490.88	11866.52
491.06	12077.16
491.24	12152.06
491.41	12037.38
491.59	12325.26
491.77	12217.60
491.95	12388.46
492.13	12416.54
492.30	12484.42
492.48	12688.04
492.66	12561.66
492.84	12755.92
493.01	13095.30
493.19	12905.71
493.37	12952.52
493.54	13090.62
493.72	13277.86
493.90	12943.16
494.08	13114.02
494.25	13530.64
494.43	13713.20
494.61	13771.71
494.79	13551.70
494.96	13762.35
495.14	13715.54
495.32	14005.77
495.49	14029.17
495.67	14120.45
495.85	14469.19
496.02	14356.85
496.20	14150.88
496.38	14246.84
496.55	14160.24
496.73	14794.53
496.91	14707.93
497.09	14707.93
497.26	14562.81
497.44	14710.27
497.62	14937.30
497.79	15059.01
497.97	14993.47
498.14	15136.24
498.32	15405.41
498.50	15339.87
498.67	15421.79
498.85	15391.36
499.03	15513.07
499.20	15566.90
499.38	15445.20
499.56	15428.81
499.73	15974.16
499.91	16030.33
500.08	16145.02
500.26	15653.50
500.44	15728.40
500.61	16240.98
500.79	16070.12
500.97	16198.85
501.14	16872.92
501.32	16187.14
501.49	16086.50
501.67	16140.33
501.84	16372.05
502.02	16409.50
502.20	16430.56
502.37	16662.27
502.55	16479.71
502.72	16830.79
502.90	16805.05
503.07	16685.68
503.25	16545.25
503.43	16893.99
503.60	17085.91
503.78	17205.28
503.95	17224.00
504.13	17039.10
504.30	17336.35
504.48	17160.81
504.65	17350.39
504.83	17479.12
505.01	17743.60
505.18	17177.19
505.36	17572.74
505.53	17397.20
505.71	17509.55
505.88	17902.76
506.06	17476.78
506.23	17649.98
506.41	18115.75
506.58	17879.35
506.76	17944.89
506.93	18022.12
507.11	17926.16
507.28	18087.66
507.46	17736.58
507.63	18099.36
507.81	18572.15
507.98	18394.27
508.16	18293.63
508.33	18459.81
508.50	18679.82
508.68	18438.74
508.85	18885.78
509.03	18794.50
509.20	18838.97
509.38	18801.52
509.55	18747.69
509.73	18974.72
509.90	18890.46
510.08	18724.29
510.25	18834.29
510.42	19157.28
510.60	19058.98
510.77	19243.88
510.95	19157.28
511.12	19208.78
511.30	19136.22
511.47	19398.36
511.64	19365.59
511.82	19667.52
511.99	19756.46
512.17	19604.33
512.34	19634.75
512.51	19669.86
512.69	20126.27
512.86	19793.91
513.04	19866.47
513.21	20294.79
513.38	20065.41
513.56	20063.07
513.73	20147.33
513.90	20070.09
514.08	20311.17
514.25	20423.51
514.43	20491.39
514.60	20334.57
514.77	20329.89
514.95	20341.60
515.12	20250.32
515.29	20081.80
515.47	20442.24
515.64	20968.86
515.81	20695.02
515.99	20826.09
516.16	20943.11
516.33	20915.03
516.51	20840.13
516.68	20662.25
516.85	20805.02
517.03	20865.88
517.20	21130.36
517.37	21198.23
517.54	21027.37
517.72	21282.49
517.89	21242.70
518.06	21135.04
518.24	21369.09
518.41	21415.90
518.58	21766.98
518.75	21645.27
518.93	21514.20
519.10	21710.81
519.27	21640.59
519.45	21706.13
519.62	21713.15
519.79	21788.05
519.96	21703.79
520.14	21893.37
520.31	21811.45
520.48	22043.17
520.65	21860.60
520.83	22012.74
521.00	21790.39
521.17	22167.21
521.34	21972.95
521.52	22174.24
521.69	22253.81
521.86	22398.93
522.03	22562.76
522.20	22618.94
522.38	22581.49
522.55	22742.99
522.72	22256.15
522.89	22640.00
523.07	23016.83
523.24	22691.49
523.41	22977.04
523.58	22616.60
523.75	22780.43
523.92	22789.80
524.10	22993.42
524.27	22951.29
524.44	23087.04
524.61	23192.37
524.78	23208.75
524.96	23335.14
525.13	23175.98
525.30	23154.92
525.47	23253.22
525.64	23070.66
525.81	23541.11
525.98	23817.29
526.16	23508.34
526.33	23407.70
526.50	23613.66
526.67	23426.42
526.84	23285.99
527.01	23419.40
527.18	23941.34
527.36	23957.72
527.53	23850.06
527.70	24219.86
527.87	24187.10
528.04	24002.19
528.21	24056.03
528.38	24166.03
528.55	23850.06
528.72	24250.29
528.89	24215.18
529.07	24170.71
529.24	23985.81
529.41	24137.94
529.58	24217.52
529.75	24006.87
529.92	24357.96
530.09	24283.06
530.26	24343.91
530.43	24751.17
530.60	24257.31
530.77	24538.18
530.94	24631.80
531.11	24233.91
531.28	24322.85
531.46	24559.24
531.63	24325.19
531.80	24680.95
531.97	24711.38
532.14	25020.33
532.31	25142.03
532.48	24755.85
532.65	25041.39
532.82	24915.00
532.99	25097.56
533.16	24922.02
533.33	25081.18
533.50	25439.28
533.67	25268.42
533.84	25125.65
534.01	25357.36
534.18	25160.76
534.35	25369.07
534.52	25137.35
534.69	25638.23
534.86	25668.66
535.03	25345.66
535.20	25628.87
535.37	25317.57
535.54	25544.61
535.71	25240.34
535.88	25563.33
536.05	25317.57
536.22	25720.15
536.38	25467.37
536.55	25832.49
536.72	25755.26
536.89	25659.29
537.06	26031.44
537.23	26040.80
537.40	25839.51
537.57	25977.61
537.74	26153.15
537.91	26094.63
538.08	26504.23
538.25	25986.97
538.42	25766.96
538.59	25846.54
538.75	25820.79
538.92	25778.66
539.09	26328.69
539.26	26333.37
539.43	26192.94
539.60	26199.96
539.77	26478.48
539.94	26728.92
540.11	26593.17
540.28	26335.71
540.44	26359.11
540.61	26576.78
540.78	26314.64
540.95	26515.93
541.12	26508.91
541.29	26710.19
541.46	26717.22
541.62	26595.51
541.79	26586.15
541.96	26195.28
542.13	26696.15
542.30	26902.12
542.47	26623.59
542.63	27070.64
542.80	26871.69
542.97	27087.02
543.14	27204.05
543.31	26984.04
543.48	27122.13
543.64	27274.26
543.81	27520.02
543.98	27402.99
544.15	27536.40
544.32	27489.59
544.48	27669.81
544.65	27550.45
544.82	27374.91
544.99	27112.77
545.16	27417.04
545.32	27517.68
545.49	27431.08
545.66	27585.55
545.83	27452.14
546.00	27793.86
546.16	27498.95
546.33	27620.66
546.50	27281.28
546.67	27814.93
546.83	27505.98
547.00	27386.61
547.17	27845.35
547.34	27908.55
547.50	28006.85
547.67	28107.49
547.84	28128.56
548.00	28123.88
548.17	28163.67
548.34	27758.75
548.51	28170.69
548.67	28224.52
548.84	28126.22
549.01	27955.36
549.18	28135.58
549.34	28018.55
549.51	28442.19
549.68	28236.22
549.84	28018.55
550.01	28226.86
550.18	27618.32
550.34	28297.08
550.51	28910.30
550.68	28397.72
550.84	27983.44
551.01	28416.44
551.18	27990.47
551.34	28512.41
551.51	28538.15
551.68	28811.99
551.84	28519.43
552.01	28641.14
552.18	28804.97
552.34	28622.41
552.51	28713.69
552.68	28552.20
552.84	28760.50
553.01	28875.19
553.18	28507.72
553.34	28804.97
553.51	28804.97
553.67	28762.84
553.84	29198.18
554.01	29193.50
554.17	29160.73
554.34	28961.79
554.51	28819.02
554.67	29008.60
554.84	29029.66
555.00	29212.23
555.17	28982.85
555.33	29069.45
555.50	29057.75
555.67	29106.90
555.83	28952.43
556.00	29125.63
556.16	29350.32
556.33	29244.99
556.50	29549.26
556.66	29326.91
556.83	28905.62
556.99	29418.19
557.16	29296.49
557.32	29401.81
557.49	29453.30
557.65	29003.92
557.82	29254.36
557.98	29081.16
558.15	29418.19
558.32	29591.39
558.48	29617.14
558.65	29511.81
558.81	29556.28
558.98	29523.52
559.14	29308.19
559.31	29607.78
559.47	29362.02
559.64	29668.63
559.80	29619.48
559.97	29818.42
560.13	29493.09
560.30	29607.78
560.46	30087.59
560.63	29675.65
560.79	30174.19
560.96	29898.00
561.12	29928.43
561.29	29612.46
561.45	29907.37
561.61	29858.21
561.78	30281.85
561.94	29827.79
562.11	29663.95
562.27	29876.94
562.44	29680.33
562.60	29741.19
562.77	29748.21
562.93	29589.05
563.10	30033.75
563.26	29682.67
563.42	30347.39
563.59	29940.13
563.75	30237.38
563.92	30012.69
564.08	29804.38
564.24	29855.87
564.41	30228.02
564.57	30298.23
564.74	30075.88
564.90	30249.08
565.07	29872.26
565.23	29977.58
565.39	30331.00
565.56	30244.40
565.72	30174.19
565.88	29956.52
566.05	30183.55
566.21	29565.65
566.38	30237.38
566.54	30089.93
566.70	30366.11
566.87	30579.10
567.03	30609.53
567.19	30536.97
567.36	30368.45
567.52	30513.56
567.68	30433.99
567.85	30068.86
568.01	30569.74
568.17	30277.17
568.34	30490.16
568.50	31171.25
568.66	30632.93
568.83	30815.49
568.99	30403.56
569.15	30455.05
569.32	30328.66
569.48	30054.82
569.64	30696.13
569.81	30267.81
569.97	30565.06
570.13	30265.47
570.30	30515.90
570.46	30651.66
570.62	30616.55
570.78	30087.59
570.95	30368.45
571.11	30588.46
571.27	30305.26
571.43	30309.94
571.60	30305.26
571.76	30621.23
571.92	30651.66
572.09	30808.47
572.25	30698.47
572.41	30389.52
572.57	30742.94
572.74	30567.40
572.90	30340.36
573.06	30466.75
573.22	30511.22
573.38	30939.54
573.55	30499.52
573.71	30686.76
573.87	30906.77
574.03	30569.74
574.20	30558.03
574.36	30567.40
574.52	30478.46
574.68	30778.04
574.84	30764.00
575.01	30595.48
575.17	30815.49
575.33	30733.57
575.49	30424.62
575.65	30981.67
575.82	30707.83
575.98	30749.96
576.14	31199.34
576.30	30478.46
576.46	30836.56
576.62	30747.62
576.79	30923.16
576.95	30572.08
577.11	30628.25
577.27	31274.24
577.43	30841.24
577.59	30728.89
577.75	30799.11
577.92	30548.67
578.08	30529.95
578.24	30607.19
578.40	31000.40
578.56	30834.22
578.72	30939.54
578.88	31044.87
579.04	31417.01
579.21	30630.59
579.37	30878.69
579.53	30918.48
579.69	30651.66
579.85	30815.49
580.01	30787.41
580.17	30974.65
580.33	31049.55
580.49	31075.29
580.65	31007.42
580.82	30888.05
580.98	30946.56
581.14	31243.81
581.30	30878.69
581.46	30941.88
581.62	30824.86
581.78	30806.13
581.94	30829.54
582.10	30649.32
582.26	30813.15
582.42	30913.80
582.58	30878.69
582.74	30794.43
582.90	31143.17
583.06	30998.06
583.22	30888.05
583.38	30567.40
583.54	30785.07
583.70	30869.33
583.86	30738.26
584.02	30937.20
584.18	31204.02
584.34	31014.44
584.50	31070.61
584.66	30913.80
584.82	30944.22
584.98	30843.58
585.14	31452.12
585.30	30356.75
585.46	30852.94
585.62	31063.59
585.78	30958.27
585.94	30766.34
586.10	31243.81
586.26	31178.28
586.42	31559.78
586.58	30955.93
586.74	31255.51
586.90	30843.58
587.06	31044.87
587.22	31388.92
587.38	30890.39
587.54	31281.26
587.70	31204.02
587.86	30991.03
588.02	31122.10
588.18	31353.82
588.34	31456.80
588.49	30998.06
588.65	30885.71
588.81	31065.93
588.97	30813.15
589.13	31140.83
589.29	31091.68
589.45	31435.74
589.61	30991.03
589.77	31704.90
589.93	31842.99
590.08	31225.09
590.24	31630.00
590.40	31604.25
590.56	31351.48
590.72	31145.51
590.88	31131.47
591.04	31274.24
591.20	31512.97
591.35	31398.29
591.51	31569.15
591.67	31630.00
591.83	31695.53
591.99	31931.93
592.15	31372.54
592.31	31583.19
592.46	31295.30
592.62	31304.67
592.78	31386.58
592.94	31374.88
593.10	31512.97
593.26	31519.99
593.41	31622.98
593.57	31470.84
593.73	31381.90
593.89	31335.09
594.05	31548.08
594.20	31227.43
594.36	31412.33
594.52	31496.59
594.68	30944.22
594.84	31417.01
594.99	31775.11
595.15	31534.04
595.31	31550.42
595.47	31587.87
595.62	31826.60
595.78	31206.36
595.94	31770.43
596.10	31498.93
596.25	31363.18
596.41	31391.26
596.57	31122.10
596.73	31723.62
596.88	31150.19
597.04	31622.98
597.20	31845.33
597.36	31789.16
597.51	32046.62
597.67	31564.46
597.83	31527.02
597.99	31206.36
598.14	31922.57
598.30	31386.58
598.46	31346.79
598.61	31445.10
598.77	31606.59
598.93	31861.71
599.09	31620.64
599.24	32072.36
599.40	31763.41
599.56	31690.85
599.71	31674.47
599.87	31704.90
600.03	31557.44
600.18	31824.26
600.34	31239.13
600.50	31611.28
600.65	31632.34
600.81	31470.84
600.97	31702.56
601.12	31971.72
601.28	31850.01
601.44	32210.45
601.59	32004.49
601.75	31742.35
601.91	31555.10
602.06	31667.45
602.22	31512.97
602.37	31384.24
602.53	31742.35
602.69	31969.38
602.84	31725.96
603.00	32245.56
603.16	31985.76
603.31	31384.24
603.47	31667.45
603.62	31552.76
603.78	31615.96
603.94	31201.68
604.09	31421.69
604.25	31117.42
604.40	31747.03
604.56	31487.23
604.71	32252.58
604.87	31674.47
605.03	31828.95
605.18	31824.26
605.34	31573.83
605.49	31648.72
605.65	31461.48
605.80	31536.38
605.96	31559.78
606.12	31421.69
606.27	31512.97
606.43	31131.47
606.58	31821.92
606.74	31683.83
606.89	31620.64
607.05	31576.17
607.20	31784.48
607.36	31655.75
607.51	31578.51
607.67	31337.43
607.82	31206.36
607.98	31749.37
608.13	31599.57
608.29	31447.44
608.44	31730.64
608.60	31491.91
608.75	32037.25
608.91	31505.95
609.06	31433.39
609.22	32102.79
609.37	30888.05
609.53	31564.46
609.68	31503.61
609.84	31271.90
609.99	31402.97
610.15	31370.20
610.30	31084.65
610.46	31281.26
610.61	31409.99
610.76	31438.08
610.92	31274.24
611.07	31454.46
611.23	30939.54
611.38	31105.72
611.54	31288.28
611.69	31311.69
611.84	31442.76
612.00	30897.41
612.15	31182.96
612.31	31707.24
612.46	31138.49
612.62	31143.17
612.77	31049.55
612.92	31498.93
613.08	30986.35
613.23	31070.61
613.39	30651.66
613.54	30792.09
613.69	31030.82
613.85	31351.48
614.00	31108.06
614.15	31035.50
614.31	30881.03
614.46	31449.78
614.62	30927.84
614.77	30902.09
614.92	31199.34
615.08	30972.31
615.23	30665.70
615.38	31182.96
615.54	30459.73
615.69	31019.12
615.84	30974.65
616.00	31365.52
616.15	31145.51
616.30	30932.52
616.46	30895.07
616.61	30869.33
616.76	31424.03
616.92	30993.37
617.07	30801.45
617.22	30878.69
617.37	30541.65
617.53	30710.17
617.68	30630.59
617.83	30726.55
617.99	30597.82
618.14	30410.58
618.29	30637.61
618.45	30834.22
618.60	30862.30
618.75	30719.53
618.90	31026.14
619.06	30707.83
619.21	30883.37
619.36	30857.62
619.51	30466.75
619.67	30302.92
619.82	30721.87
619.97	30693.79
620.12	30623.57
620.28	30213.98
620.43	30256.11
620.58	30735.92
620.73	30478.46
620.89	30728.89
621.04	30855.28
621.19	30047.80
621.34	30831.88
621.49	30469.09
621.65	30572.08
621.80	30415.26
621.95	29982.26
622.10	30300.58
622.25	30127.38
622.41	30305.26
622.56	30199.93
622.71	30436.33
622.86	30441.01
623.01	30213.98
623.16	30284.19
623.32	29935.45
623.47	30129.72
623.62	30452.71
623.77	30085.25
623.92	30148.44
624.07	30384.83
624.23	29759.91
624.38	30263.13
624.53	30164.82
624.68	30139.08
624.83	30443.35
624.98	30380.15
625.13	29888.64
625.29	30096.95
625.44	30057.16
625.59	29977.58
625.74	29788.00
625.89	29788.00
626.04	29919.07
626.19	29729.48
626.34	29806.72
626.49	29200.52
626.65	29652.25
626.80	29607.78
626.95	29912.05
627.10	29692.04
627.25	29605.44
627.40	29734.17
627.55	29542.24
627.70	29296.49
627.85	29612.46
628.00	29567.99
628.15	29511.81
628.30	29521.18
628.45	29420.53
628.60	29670.97
628.76	29614.80
628.91	29685.01
629.06	29347.98
629.21	29930.77
629.36	29930.77
629.51	29474.37
629.66	29350.32
629.81	29532.88
629.96	29170.10
630.11	29170.10
630.26	29537.56
630.41	29048.39
630.56	29003.92
630.71	29406.49
630.86	29439.26
631.01	29144.35
631.16	29345.64
631.31	29486.07
631.46	29006.26
631.61	29411.17
631.76	28821.36
631.91	29556.28
632.06	29008.60
632.21	28816.68
632.36	29046.05
632.51	28779.23
632.66	28938.38
632.81	28561.56
632.96	29261.38
633.10	29235.63
633.25	29383.09
633.40	29193.50
633.55	29448.62
633.70	29041.37
633.85	28507.72
634.00	28336.87
634.15	28709.01
634.30	28561.56
634.45	28655.18
634.60	28535.81
634.75	28844.76
634.90	28865.83
635.05	28772.21
635.19	28762.84
635.34	29013.28
635.49	29032.00
635.64	28980.51
635.79	28655.18
635.94	28591.98
636.09	28414.10
636.24	29001.58
636.39	28664.54
636.53	28559.22
636.68	28388.36
636.83	28400.06
636.98	28690.29
637.13	28636.45
637.28	29139.67
637.43	28786.25
637.57	28477.30
637.72	28360.27
637.87	28243.24
638.02	28519.43
638.17	28362.61
638.32	28414.10
638.46	28341.55
638.61	27971.74
638.76	28032.60
638.91	27847.69
639.06	28383.68
639.20	28201.11
639.35	28128.56
639.50	28348.57
639.65	28105.15
639.80	28474.96
639.94	28191.75
640.09	28135.58
640.24	27868.76
640.39	28091.11
640.54	27908.55
640.68	27807.90
640.83	27983.44
640.98	28060.68
641.13	28154.30
641.27	28266.65
641.42	27871.10
641.57	27950.68
641.72	28116.86
641.86	28250.27
642.01	27826.63
642.16	27882.80
642.31	27840.67
642.45	28168.35
642.60	27243.84
642.75	27735.35
642.90	27655.77
643.04	27541.08
643.19	28098.13
643.34	27751.73
643.48	27714.28
643.63	27847.69
643.78	27562.15
643.93	27971.74
644.07	28051.32
644.22	27807.90
644.37	27559.81
644.51	27807.90
644.66	27934.29
644.81	27648.75
644.95	27452.14
645.10	27316.39
645.25	27335.12
645.39	27351.50
645.54	27182.98
645.69	27531.72
645.83	27292.99
645.98	27501.29
646.13	27412.35
646.27	27505.98
646.42	27550.45
646.57	27321.07
646.71	27391.29
646.86	27337.46
647.00	27381.93
647.15	27192.34
647.30	27503.64
647.44	27370.22
647.59	27615.98
647.74	27105.74
647.88	26815.52
648.03	27094.04
648.17	27274.26
648.32	27318.73
648.47	26881.05
648.61	27110.43
648.76	27463.85
648.90	27288.31
649.05	27026.17
649.20	26904.46
649.34	27087.02
649.49	27063.61
649.63	26689.13
649.78	26764.03
649.92	26700.83
650.07	27204.05
650.21	26857.65
650.36	27475.55
650.51	26918.50
650.65	26958.29
650.80	27164.26
650.94	26932.54
651.09	26981.70
651.23	26352.09
651.38	26937.23
651.52	26764.03
651.67	26649.34
651.81	26974.67
651.96	26829.56
652.10	26845.94
652.25	27054.25
652.39	26972.33
652.54	27112.77
652.68	26703.17
652.83	27002.76
652.97	27080.00
653.12	26904.46
653.26	26768.71
653.41	26466.78
653.55	26845.94
653.70	26429.33
653.84	26857.65
653.99	26476.14
654.13	26487.84
654.27	26415.29
654.42	26747.64
654.56	26448.05
654.71	26555.72
654.85	26265.49
655.00	26862.33
655.14	26604.87
655.29	26583.80
655.43	26590.83
655.57	26359.11
655.72	26494.86
655.86	26632.96
656.01	26586.15
656.15	26174.21
656.30	26497.20
656.44	26410.60
656.58	26415.29
656.73	26267.83
656.87	26431.67
657.01	26340.39
657.16	26150.81
657.30	26405.92
657.45	26111.02
657.59	26096.97
657.73	26349.75
657.88	26305.28
658.02	26052.50
658.16	26366.13
658.31	25862.92
658.45	25750.57
658.60	26274.85
658.74	26036.12
658.88	26059.52
659.03	25998.67
659.17	26022.08
659.31	25666.31
659.46	25752.91
659.60	25790.36
659.74	25738.87
659.89	25778.66
660.03	25568.01
660.17	25778.66
660.32	25462.69
660.46	25521.20
660.60	25221.61
660.74	25568.01
660.89	25439.28
661.03	25083.52
661.17	25202.89
661.32	25612.48
661.46	25867.60
661.60	25188.85
661.74	25696.74
661.89	25577.37
662.03	25188.85
662.17	25322.26
662.31	25041.39
662.46	25085.86
662.60	25413.54
662.74	24940.75
662.88	24999.26
663.03	24800.32
663.17	24952.45
663.31	24833.08
663.45	24680.95
663.60	24758.19
663.74	24669.25
663.88	25027.35
664.02	24697.33
664.17	24886.92
664.31	24896.28
664.45	24891.60
664.59	24978.20
664.73	24830.74
664.88	24699.67
665.02	24561.58
665.16	24442.21
665.30	24428.17
665.44	24711.38
665.59	24034.96
665.73	24299.44
665.87	24362.64
666.01	24460.94
666.15	24435.19
666.29	24449.24
666.44	24411.79
666.58	24016.24
666.72	24067.73
666.86	24205.82
667.00	24297.10
667.14	23864.10
667.28	24147.31
667.43	23857.08
667.57	24247.95
667.71	23683.88
667.85	23934.32
667.99	23910.91
668.13	23969.43
668.27	24156.67
668.41	23852.40
668.56	23611.32
668.70	23810.27
668.84	23676.86
668.98	23850.06
669.12	23836.02
669.26	23653.45
669.40	23716.65
669.54	23623.03
669.68	23730.69
669.82	23255.56
669.96	23601.96
670.10	23016.83
670.25	23421.74
670.39	23248.54
670.53	23206.41
670.67	23321.10
670.81	23204.07
670.95	23101.09
671.09	23145.56
671.23	23253.22
671.37	23304.71
671.51	23014.49
671.65	23278.97
671.79	23339.82
671.93	23037.89
672.07	23129.17
672.21	22803.84
672.35	22691.49
672.49	22696.17
672.63	22850.65
672.77	22551.06
672.91	22632.98
673.05	22764.05
673.19	22724.26
673.33	22380.20
673.47	22270.20
673.61	22574.47
673.75	22309.99
673.89	22417.65
674.03	22469.14
674.17	22553.40
674.31	22497.23
674.45	22097.00
674.59	22302.96
674.73	22235.09
674.87	22092.32
675.01	21827.84
675.15	22015.08
675.29	21811.45
675.43	21472.07
675.56	21813.79
675.70	21757.62
675.84	21762.30
675.98	21280.15
676.12	21795.07
676.26	21816.13
676.40	21884.01
676.54	21642.93
676.68	21472.07
676.82	21041.42
676.96	21350.37
677.10	21429.94
677.23	20996.95
677.37	20821.41
677.51	20879.92
677.65	21095.25
677.79	20762.89
677.93	20823.75
678.07	20526.50
678.21	20297.13
678.34	20673.95
678.48	20383.73
678.62	20442.24
678.76	20582.67
678.90	20409.47
679.04	20353.30
679.18	20343.94
679.31	19817.32
679.45	20264.36
679.59	20285.42
679.73	20056.05
679.87	19920.30
680.00	19719.01
680.14	19711.99
680.28	20070.09
680.42	20053.71
680.56	19873.49
680.70	19674.54
680.83	19934.34
680.97	19658.16
681.11	19513.05
681.25	19276.65
681.39	19323.46
681.52	19314.10
681.66	19344.53
681.80	19087.07
681.94	19159.63
682.07	19211.12
682.21	19152.60
682.35	19080.05
682.49	18822.59
682.62	19009.83
682.76	18822.59
682.90	18787.48
683.04	19051.96
683.17	18923.23
683.31	18850.67
683.45	18848.33
683.59	18520.66
683.72	18602.58
683.86	18640.03
684.00	18352.14
684.13	18464.49
684.27	18101.70
684.41	18317.03
684.55	18022.12
684.68	17862.97
684.82	17806.80
684.96	18094.68
685.09	17694.45
685.23	17654.66
685.37	17675.73
685.50	18010.42
685.64	17872.33
685.78	17907.44
685.91	17982.34
686.05	17525.93
686.19	17577.42
686.32	17947.23
686.46	17413.59
686.60	17053.14
686.73	17139.74
686.87	17128.04
687.01	17350.39
687.14	16999.31
687.28	16954.84
687.42	16919.73
687.55	16720.79
687.69	16975.91
687.82	16767.60
687.96	16884.62
688.10	16765.26
688.23	16358.00
688.37	16875.26
688.50	17006.33
688.64	16809.73
688.78	16503.12
688.91	16109.91
689.05	16177.78
689.18	16290.13
689.32	16004.58
689.46	15822.02
689.59	15964.79
689.73	16095.86
689.86	16226.93
690.00	15819.68
690.13	15868.83
690.27	15896.92
690.41	15892.24
690.54	15995.22
690.68	15667.55
690.81	15728.40
690.95	15754.15
691.08	15573.92
691.22	15391.36
691.35	15513.07
691.49	15515.41
691.62	15241.57
691.76	15066.03
691.89	15377.32
692.03	14953.68
692.16	14972.41
692.30	14986.45
692.43	14881.13
692.57	14862.40
692.70	14675.16
692.84	14796.87
692.97	14761.76
693.11	14923.26
693.24	14520.68
693.38	14719.63
693.51	14576.86
693.65	14637.71
693.78	14647.07
693.92	14546.43
694.05	14438.76
694.19	14061.94
694.32	14317.06
694.45	14033.85
694.59	13816.18
694.72	13982.36
694.86	13839.59
694.99	13675.75
695.13	13724.90
695.26	13996.40
695.39	13633.62
695.53	13991.72
695.66	13680.43
695.80	13540.00
695.93	13518.93
696.07	13439.36
696.20	13607.87
696.33	13465.10
696.47	13301.26
696.60	13359.78
696.73	13055.51
696.87	13238.07
697.00	13085.94
697.14	12929.12
697.27	13104.66
697.40	12975.93
697.54	12805.07
697.67	12847.20
697.80	12802.73
697.94	12856.56
698.07	12552.29
698.21	12830.82
698.34	12713.79
698.47	12809.75
698.61	12451.65
698.74	12461.01
698.87	12624.85
699.01	12257.39
699.14	12182.49
699.27	12138.02
699.40	12217.60
699.54	12428.24
699.67	12156.74
699.80	11978.86
699.94	11868.86
700.07	11887.58
700.20	11641.82
700.34	11662.89
700.47	11463.94
700.60	11695.66
700.73	11899.28
700.87	11756.51
701.00	11843.11
701.13	11852.47
701.26	11501.39
701.40	11370.32
701.53	11257.98
701.66	11304.79
701.79	11391.39
701.93	11286.06
702.06	11218.19
702.19	11054.35
702.32	11014.56
702.46	10876.47
702.59	10806.25
702.72	10846.04
702.85	10829.66
702.99	10841.36
703.12	10792.21
703.25	10602.63
703.38	10630.71
703.51	10731.36
703.65	10593.26
703.78	10693.91
703.91	10523.05
704.04	10499.64
704.17	10576.88
704.31	10565.18
704.44	10408.36
704.57	10546.45
704.70	10118.14
704.83	10153.24
704.96	10113.45
705.10	10228.14
705.23	10225.80
>>>>>End Processed Spectral Data<<<<<
