SpectraSuite Data File
++++++++++++++++++++++++++++++++++++
Date: Fri Oct 18 13:58:12 GMT-05:00 2013
User: bianchi
Dark Spectrum Present: No
Reference Spectrum Present: No
Number of Sampled Component Spectra: 1
Spectrometers: USB2+H05261
Integration Time (usec): 50000 (USB2+H05261)
Spectra Averaged: 1 (USB2+H05261)
Boxcar Smoothing: 0 (USB2+H05261)
Correct for Electrical Dark: No (USB2+H05261)
Strobe/Lamp Enabled: No (USB2+H05261)
Correct for Detector Non-linearity: No (USB2+H05261)
Correct for Stray Light: No (USB2+H05261)
Number of Pixels in Processed Spectrum: 2048
>>>>>Begin Processed Spectral Data<<<<<
365.73	0.00
365.92	0.00
366.12	0.00
366.32	0.00
366.52	0.00
366.72	0.00
366.91	0.00
367.11	0.00
367.31	0.00
367.51	0.00
367.70	0.00
367.90	0.00
368.10	0.00
368.30	0.00
368.49	0.00
368.69	0.00
368.89	0.00
369.09	0.00
369.28	0.00
369.48	0.00
369.68	0.00
369.87	0.00
370.07	0.00
370.27	0.00
370.47	0.00
370.66	119.37
370.86	119.37
371.06	135.75
371.25	145.11
371.45	107.66
371.65	163.84
371.84	100.64
372.04	168.52
372.24	271.50
372.44	163.84
372.63	187.24
372.83	128.73
373.03	203.63
373.22	283.20
373.42	170.86
373.62	173.20
373.81	220.01
374.01	238.73
374.21	236.39
374.40	259.80
374.60	327.68
374.79	255.12
374.99	222.35
375.19	163.84
375.38	257.46
375.58	208.31
375.78	231.71
375.97	276.18
376.17	269.16
376.37	299.59
376.56	243.42
376.76	250.44
376.95	308.95
377.15	287.89
377.35	252.78
377.54	212.99
377.74	210.65
377.93	287.89
378.13	287.89
378.33	292.57
378.52	355.76
378.72	332.36
378.91	351.08
379.11	271.50
379.31	292.57
379.50	241.08
379.70	283.20
379.89	292.57
380.09	372.15
380.28	362.78
380.48	280.86
380.68	290.23
380.87	308.95
381.07	313.63
381.26	379.17
381.46	313.63
381.65	301.93
381.85	334.70
382.04	252.78
382.24	383.85
382.43	311.29
382.63	334.70
382.83	425.98
383.02	388.53
383.22	360.44
383.41	381.51
383.61	383.85
383.80	315.97
384.00	355.76
384.19	341.72
384.39	367.46
384.58	367.46
384.78	320.65
384.97	381.51
385.17	456.40
385.36	390.87
385.56	395.55
385.75	332.36
385.95	327.68
386.14	334.70
386.34	397.89
386.53	475.13
386.72	400.23
386.92	484.49
387.11	416.62
387.31	322.99
387.50	388.53
387.70	444.70
387.89	472.79
388.09	428.32
388.28	411.93
388.48	435.34
388.67	510.24
388.86	414.27
389.06	395.55
389.25	477.47
389.45	479.81
389.64	440.02
389.84	526.62
390.03	535.98
390.22	519.60
390.42	547.69
390.61	421.30
390.81	365.12
391.00	479.81
391.19	489.17
391.39	538.32
391.58	559.39
391.78	559.39
391.97	517.26
392.16	524.28
392.36	629.60
392.55	512.58
392.75	514.92
392.94	589.82
393.13	543.00
393.33	580.45
393.52	582.79
393.71	589.82
393.91	554.71
394.10	601.52
394.29	561.73
394.49	629.60
394.68	587.47
394.88	617.90
395.07	582.79
395.26	613.22
395.46	585.13
395.65	643.65
395.84	685.78
396.04	667.05
396.23	596.84
396.42	622.58
396.62	676.41
396.81	582.79
397.00	683.44
397.19	585.13
397.39	685.78
397.58	662.37
397.77	702.16
397.97	753.65
398.16	667.05
398.35	739.61
398.55	755.99
398.74	732.59
398.93	798.12
399.12	770.04
399.32	795.78
399.51	720.88
399.70	739.61
399.90	702.16
400.09	748.97
400.28	730.25
400.47	805.14
400.67	777.06
400.86	795.78
401.05	737.27
401.24	915.15
401.44	863.66
401.63	840.25
401.82	793.44
402.01	755.99
402.21	842.59
402.40	894.08
402.59	854.30
402.78	940.90
402.97	931.53
403.17	957.28
403.36	910.47
403.55	856.64
403.74	844.93
403.93	915.15
404.13	901.11
404.32	908.13
404.51	938.55
404.70	917.49
404.89	917.49
405.09	943.24
405.28	992.39
405.47	938.55
405.66	1093.03
405.85	954.94
406.05	1034.52
406.24	898.77
406.43	1015.79
406.62	1004.09
406.81	1086.01
407.00	1013.45
407.20	1025.15
407.39	1004.09
407.58	1064.94
407.77	1055.58
407.96	1060.26
408.15	1158.57
408.34	1034.52
408.54	1050.90
408.73	1097.71
408.92	1020.47
409.11	1144.52
409.30	1139.84
409.49	1177.29
409.68	1149.20
409.87	1125.80
410.07	1263.89
410.26	1184.31
410.45	1172.61
410.64	1179.63
410.83	1266.23
411.02	1233.46
411.21	1228.78
411.40	1170.27
411.59	1287.29
411.78	1254.53
411.98	1235.80
412.17	1294.32
412.36	1238.14
412.55	1273.25
412.74	1378.58
412.93	1366.87
413.12	1331.76
413.31	1432.41
413.50	1427.73
413.69	1420.71
413.88	1401.98
414.07	1500.28
414.26	1507.30
414.45	1490.92
414.64	1486.24
414.83	1528.37
415.02	1453.47
415.22	1579.86
415.41	1614.97
415.60	1409.00
415.79	1586.88
415.98	1565.82
416.17	1647.74
416.36	1614.97
416.55	1577.52
416.74	1570.50
416.93	1652.42
417.12	1657.10
417.31	1764.76
417.50	1757.74
417.69	1806.89
417.88	1781.15
418.07	1774.13
418.26	1736.68
418.45	1879.45
418.64	1853.70
418.83	1739.02
419.02	1769.44
419.21	1895.83
419.39	1809.23
419.58	1743.70
419.77	1781.15
419.96	1895.83
420.15	1923.92
420.34	1839.66
420.53	1851.36
420.72	1921.58
420.91	1891.15
421.10	1870.09
421.29	2019.88
421.48	2005.84
421.67	1977.75
421.86	2038.61
422.05	1952.01
422.24	2040.95
422.43	1940.30
422.61	2057.33
422.80	2181.38
422.99	2052.65
423.18	2101.80
423.37	2031.58
423.56	2054.99
423.75	2043.29
423.94	2005.84
424.13	1813.92
424.32	1930.94
424.50	2078.40
424.69	2092.44
424.88	2069.03
425.07	2099.46
425.26	2143.93
425.45	2031.58
425.64	2038.61
425.83	2005.84
426.01	2026.90
426.20	2059.67
426.39	1982.43
426.58	2146.27
426.77	2047.97
426.96	2099.46
427.15	2059.67
427.33	2118.18
427.52	2242.23
427.71	2047.97
427.90	2214.15
428.09	2183.72
428.28	2104.14
428.46	2275.00
428.65	2230.53
428.84	2239.89
429.03	2253.94
429.22	2331.17
429.40	2307.77
429.59	2392.03
429.78	2157.97
429.97	2172.02
430.16	2188.40
430.34	2310.11
430.53	2385.01
430.72	2312.45
430.91	2282.02
431.10	2307.77
431.28	2232.87
431.47	2338.20
431.66	2480.97
431.85	2354.58
432.03	2377.98
432.22	2551.18
432.41	2490.33
432.60	2471.61
432.79	2394.37
432.97	2569.91
433.16	2541.82
433.35	2509.05
433.54	2562.89
433.72	2548.84
433.91	2546.50
434.10	2583.95
434.28	2579.27
434.47	2485.65
434.66	2541.82
434.85	2583.95
435.03	2696.30
435.22	2635.44
435.41	2719.70
435.59	2583.95
435.78	2651.83
435.97	2672.89
436.16	2651.83
436.34	2710.34
436.53	2740.77
436.72	2743.11
436.90	2595.65
437.09	2710.34
437.28	2677.57
437.46	2740.77
437.65	2696.30
437.84	2696.30
438.02	2757.15
438.21	2881.20
438.40	2874.18
438.58	2799.28
438.77	2862.48
438.96	2876.52
439.14	2960.78
439.33	2993.55
439.52	2949.08
439.70	3103.55
439.89	3098.87
440.08	3101.21
440.26	3180.79
440.45	2951.42
440.63	3204.19
440.82	3274.41
441.01	3150.36
441.19	3246.32
441.38	3183.13
441.57	3265.05
441.75	3246.32
441.94	3243.98
442.12	3274.41
442.31	3325.90
442.50	3330.58
442.68	3321.22
442.87	3456.97
443.05	3405.48
443.24	3440.59
443.43	3485.06
443.61	3410.16
443.80	3489.74
443.98	3456.97
444.17	3365.69
444.35	3400.80
444.54	3522.51
444.73	3471.01
444.91	3517.83
445.10	3475.70
445.28	3440.59
445.47	3480.38
445.65	3583.36
445.84	3566.98
446.02	3669.96
446.21	3552.93
446.39	3475.70
446.58	3599.74
446.77	3515.48
446.95	3419.52
447.14	3478.04
447.32	3545.91
447.51	3522.51
447.69	3700.39
447.88	3693.37
448.06	3595.06
448.25	3634.85
448.43	3541.23
448.62	3524.85
448.80	3571.66
448.99	3669.96
449.17	3641.87
449.36	3702.73
449.54	3693.37
449.73	3637.19
449.91	3803.37
450.10	3655.92
450.28	3875.93
450.46	3829.12
450.65	3822.09
450.83	3899.33
451.02	3836.14
451.20	3847.84
451.39	3838.48
451.57	3878.27
451.76	3885.29
451.94	3864.22
452.13	3934.44
452.31	3960.19
452.49	3810.39
452.68	3756.56
452.86	3796.35
453.05	4021.04
453.23	3990.61
453.42	3920.40
453.60	3843.16
453.78	4032.74
453.97	3974.23
454.15	3990.61
454.34	3955.51
454.52	4175.52
454.70	4053.81
454.89	4112.32
455.07	4156.79
455.26	4147.43
455.44	4222.33
455.62	4180.20
455.81	4077.21
455.99	4170.83
456.17	4198.92
456.36	4131.05
456.54	4154.45
456.73	4236.37
456.91	4365.10
457.09	4414.25
457.28	4395.53
457.46	4322.97
457.64	4367.44
457.83	4550.00
458.01	4512.55
458.19	4344.03
458.38	4383.82
458.56	4554.68
458.74	4580.43
458.93	4470.42
459.11	4491.49
459.29	4542.98
459.48	4418.93
459.66	4561.70
459.84	4624.90
460.03	4830.87
460.21	4521.92
460.39	4552.34
460.57	4634.26
460.76	4601.49
460.94	4732.56
461.12	4777.03
461.31	4765.33
461.49	4734.90
461.67	4557.02
461.85	4858.95
462.04	4671.71
462.22	5034.49
462.40	4826.18
462.59	4755.97
462.77	4767.67
462.95	4938.53
463.13	4847.25
463.32	4910.44
463.50	4950.23
463.68	4823.84
463.86	4954.91
464.05	4858.95
464.23	4997.04
464.41	4968.96
464.59	4940.87
464.78	5053.22
464.96	4997.04
465.14	4999.38
465.32	4887.04
465.50	5184.29
465.69	5191.31
465.87	5034.49
466.05	4903.42
466.23	5088.32
466.41	5102.37
466.60	5275.57
466.78	5177.26
466.96	5078.96
467.14	5156.20
467.32	5048.54
467.51	5273.23
467.69	4971.30
467.87	5376.21
468.05	5486.22
468.23	5233.44
468.41	5088.32
468.60	5315.36
468.78	5341.10
468.96	5296.63
469.14	5441.75
469.32	5572.82
469.50	5296.63
469.69	5523.66
469.87	5322.38
470.05	5607.92
470.23	5460.47
470.41	5462.81
470.59	5533.03
470.77	5411.32
470.95	5453.45
471.14	5666.44
471.32	5486.22
471.50	5701.54
471.68	5727.29
471.86	5804.53
472.04	5731.97
472.22	5631.33
472.40	5654.73
472.58	5767.08
472.77	5788.14
472.95	6045.60
473.13	6214.12
473.31	5816.23
473.49	5867.72
473.67	5849.00
473.85	5968.37
474.03	6047.94
474.21	5996.45
474.39	6076.03
474.57	6361.58
474.75	6129.86
474.93	6356.90
475.12	6071.35
475.30	6366.26
475.48	6272.64
475.66	6424.77
475.84	6441.15
476.02	6686.91
476.20	6270.30
476.38	6675.21
476.56	6602.65
476.74	6724.36
476.92	6654.14
477.10	6537.12
477.28	6719.68
477.46	6649.46
477.64	6733.72
477.82	6754.79
478.00	7180.76
478.18	6698.61
478.36	7131.61
478.54	7077.78
478.72	7152.68
478.90	7283.75
479.08	7248.64
479.26	7307.15
479.44	7452.27
479.62	7660.57
479.80	7597.38
479.98	7637.17
480.16	7665.25
480.34	7735.47
480.52	7791.64
480.70	7939.10
480.88	7569.29
481.06	7777.60
481.24	7728.45
481.41	7983.57
481.59	8236.35
481.77	8320.60
481.95	8264.43
482.13	8198.90
482.31	8238.69
482.49	8566.36
482.67	8351.03
482.85	8484.44
483.03	8528.91
483.21	8678.71
483.39	8781.69
483.57	8608.49
483.74	8884.67
483.92	8943.19
484.10	8781.69
484.28	9146.81
484.46	9118.73
484.64	9217.03
484.82	9165.54
485.00	9247.46
485.18	9441.72
485.35	9586.83
485.53	9551.73
485.71	9694.50
485.89	9671.09
486.07	9687.48
486.25	9797.48
486.43	9851.31
486.61	9891.10
486.78	9975.36
486.96	10132.18
487.14	10246.87
487.32	10076.01
487.50	10375.59
487.68	10349.85
487.85	10359.21
488.03	10604.97
488.21	10621.35
488.39	10745.40
488.57	10729.02
488.75	10792.21
488.92	10977.11
489.10	10902.22
489.28	11103.50
489.46	11288.40
489.64	11330.53
489.81	11431.18
489.99	11548.20
490.17	11630.12
490.35	11634.80
490.53	11646.51
490.70	11971.84
490.88	11665.23
491.06	11875.88
491.24	12035.03
491.41	11995.25
491.59	12203.55
491.77	12163.76
491.95	12252.70
492.13	12421.22
492.30	12573.36
492.48	12379.09
492.66	12449.31
492.84	12585.06
493.01	12725.49
493.19	12898.69
493.37	13057.85
493.54	13001.68
493.72	13050.83
493.90	12978.27
494.08	13385.52
494.25	13523.62
494.43	13247.43
494.61	13406.59
494.79	13628.94
494.96	13500.21
495.14	13694.47
495.32	13710.86
495.49	13914.48
495.67	14043.21
495.85	13865.33
496.02	13977.68
496.20	13944.91
496.38	14061.94
496.55	14328.76
496.73	14501.96
496.91	14633.03
497.09	14370.89
497.26	14576.86
497.44	14611.96
497.62	14754.74
497.79	14923.26
497.97	14801.55
498.14	14941.98
498.32	15016.88
498.50	15222.84
498.67	15080.07
498.85	15185.40
499.03	15248.59
499.20	15241.57
499.38	15424.13
499.56	15517.75
499.73	15712.02
499.91	15482.64
500.08	15604.35
500.26	15477.96
500.44	15634.78
500.61	15901.60
500.79	15894.58
500.97	15836.06
501.14	15915.64
501.32	15995.22
501.49	16294.81
501.67	16065.44
501.84	16152.04
502.02	16166.08
502.20	16390.77
502.37	16638.87
502.55	16442.26
502.72	16334.60
502.90	16472.69
503.07	16554.61
503.25	16603.76
503.43	16472.69
503.60	16781.64
503.78	16798.02
503.95	16781.64
504.13	16767.60
504.30	16889.31
504.48	16856.54
504.65	16896.33
504.83	17518.91
505.01	17549.34
505.18	17373.80
505.36	17591.47
505.53	17266.13
505.71	17200.60
505.88	17411.25
506.06	17401.88
506.23	17745.94
506.41	17689.77
506.58	17680.41
506.76	17717.86
506.93	17671.04
507.11	17434.65
507.28	17877.01
507.46	18113.41
507.63	17825.52
507.81	18167.24
507.98	17692.11
508.16	18167.24
508.33	17926.16
508.50	18387.25
508.68	18181.28
508.85	18513.64
509.03	18445.76
509.20	18251.50
509.38	18523.00
509.55	18864.72
509.73	18506.62
509.90	18815.57
510.08	18850.67
510.25	18733.65
510.42	18953.66
510.60	18930.25
510.77	19433.47
510.95	18965.36
511.12	19063.66
511.30	18948.98
511.47	18970.04
511.64	19405.38
511.82	19580.92
511.99	19314.10
512.17	19587.94
512.34	19136.22
512.51	19683.91
512.69	19555.18
512.86	19381.98
513.04	19857.10
513.21	19754.12
513.38	19775.19
513.56	19882.85
513.73	19271.97
513.90	19922.64
514.08	19920.30
514.25	19882.85
514.43	20126.27
514.60	20046.69
514.77	19971.79
514.95	20327.55
515.12	19936.68
515.29	20278.40
515.47	20135.63
515.64	20615.44
515.81	20388.41
515.99	20519.48
516.16	20865.88
516.33	20638.84
516.51	20552.24
516.68	20470.33
516.85	20606.08
517.03	20732.47
517.20	20751.19
517.37	20753.53
517.54	20891.62
517.72	20999.29
517.89	20929.07
518.06	20954.82
518.24	20917.37
518.41	21212.28
518.58	21273.13
518.75	20903.32
518.93	21259.09
519.10	21247.38
519.27	21238.02
519.45	21516.54
519.62	21408.88
519.79	21413.56
519.96	21568.04
520.14	21624.21
520.31	21635.91
520.48	21921.46
520.65	21640.59
520.83	21956.57
521.00	21912.10
521.17	21752.94
521.34	21769.32
521.52	21916.78
521.69	22003.38
521.86	21921.46
522.03	22003.38
522.20	21984.65
522.38	22305.31
522.55	22188.28
522.72	22382.54
522.89	22183.60
523.07	22403.61
523.24	22382.54
523.41	22530.00
523.58	22366.16
523.75	22562.76
523.92	22270.20
524.10	22541.70
524.27	22466.80
524.44	22565.10
524.61	22897.46
524.78	22871.72
524.96	23012.15
525.13	22658.73
525.30	23033.21
525.47	23073.00
525.64	23077.68
525.81	23180.67
525.98	23566.85
526.16	23063.64
526.33	23089.38
526.50	23260.24
526.67	23070.66
526.84	23211.09
527.01	23337.48
527.18	23548.13
527.36	23332.80
527.53	23667.50
527.70	23559.83
527.87	23489.62
528.04	23388.97
528.21	23964.75
528.38	23538.77
528.55	23955.38
528.72	23557.49
528.89	23948.36
529.07	23800.91
529.24	23850.06
529.41	23833.68
529.58	23779.84
529.75	23939.00
529.92	24243.27
530.09	23995.17
530.26	24027.94
530.43	24437.53
530.60	24072.41
530.77	24009.22
530.94	24353.27
531.11	24114.54
531.28	24023.26
531.46	24383.70
531.63	24489.03
531.80	24460.94
531.97	24458.60
532.14	24959.47
532.31	24589.67
532.48	24500.73
532.65	24552.22
532.82	24379.02
532.99	24545.20
533.16	24285.40
533.33	24533.50
533.50	25118.63
533.67	25111.61
533.84	24779.25
534.01	24893.94
534.18	24741.80
534.35	25123.31
534.52	24718.40
534.69	25301.19
534.86	25415.88
535.03	24957.13
535.20	25125.65
535.37	25333.96
535.54	25310.55
535.71	25029.69
535.88	24973.52
536.05	25507.16
536.22	25247.36
536.38	25284.81
536.55	25483.75
536.72	25429.92
536.89	25495.46
537.06	25252.04
537.23	25612.48
537.40	25458.01
537.57	25277.79
537.74	25551.63
537.91	25998.67
538.08	25544.61
538.25	25706.10
538.42	25773.98
538.59	25685.04
538.75	25872.28
538.92	25823.13
539.09	25876.96
539.26	25717.81
539.43	26015.05
539.60	26139.10
539.77	25984.63
539.94	26033.78
540.11	25970.58
540.28	26108.68
540.44	26143.78
540.61	26029.10
540.78	25827.81
540.95	26162.51
541.12	26363.79
541.29	26560.40
541.46	26106.34
541.62	26319.32
541.79	26424.65
541.96	26040.80
542.13	25968.24
542.30	26567.42
542.47	26345.07
542.63	26841.26
542.80	26689.13
542.97	26888.07
543.14	27161.92
543.31	26661.04
543.48	26918.50
543.64	26988.72
543.81	26974.67
543.98	27131.49
544.15	26731.26
544.32	27143.19
544.48	27140.85
544.65	27044.89
544.82	26899.78
544.99	26902.12
545.16	27016.80
545.32	26881.05
545.49	27606.62
545.66	27351.50
545.83	27625.34
546.00	27414.69
546.16	27372.57
546.33	27108.08
546.50	26843.60
546.67	27255.54
546.83	26766.37
547.00	27143.19
547.17	27234.47
547.34	27225.11
547.50	27667.47
547.67	27356.18
547.84	27929.61
548.00	27599.60
548.17	27892.16
548.34	27756.41
548.51	27733.01
548.67	28070.04
548.84	27936.63
549.01	27915.57
549.18	27484.91
549.34	27704.92
549.51	27938.97
549.68	27599.60
549.84	27864.08
550.01	28180.05
550.18	27927.27
550.34	28037.28
550.51	28259.63
550.68	27892.16
550.84	28154.30
551.01	28095.79
551.18	27835.99
551.34	28084.09
551.51	27861.74
551.68	28119.20
551.84	28238.56
552.01	28215.16
552.18	28086.43
552.34	28140.26
552.51	28243.24
552.68	28383.68
552.84	28318.14
553.01	28203.46
553.18	28545.17
553.34	28545.17
553.51	28603.69
553.67	28596.67
553.84	28610.71
554.01	28929.02
554.17	28617.73
554.34	28608.37
554.51	29048.39
554.67	28694.97
554.84	28926.68
555.00	28772.21
555.17	28727.74
555.33	28730.08
555.50	28694.97
555.67	29139.67
555.83	28615.39
556.00	28570.92
556.16	28741.78
556.33	28580.28
556.50	28692.63
556.66	29167.76
556.83	28961.79
556.99	29111.58
557.16	29223.93
557.32	28989.88
557.49	29137.33
557.65	28975.83
557.82	28634.11
557.98	29261.38
558.15	28982.85
558.32	29504.79
558.48	28999.24
558.65	29172.44
558.81	29383.09
558.98	29261.38
559.14	29338.62
559.31	29050.73
559.47	29261.38
559.64	29172.44
559.80	29591.39
559.97	29443.94
560.13	29069.45
560.30	29296.49
560.46	29350.32
560.63	29282.44
560.79	29600.76
560.96	29689.70
561.12	29355.00
561.29	29516.50
561.45	29355.00
561.61	29228.61
561.78	29266.06
561.94	29408.83
562.11	29764.59
562.27	29542.24
562.44	29303.51
562.60	29404.15
562.77	29443.94
562.93	29074.13
563.10	29729.48
563.26	29340.96
563.42	29467.34
563.59	29633.52
563.75	29504.79
563.92	29727.14
564.08	29591.39
564.24	29252.02
564.41	29275.42
564.57	29481.39
564.74	29589.05
564.90	29766.93
565.07	29909.71
565.23	29968.22
565.39	29853.53
565.56	29895.66
565.72	29399.47
565.88	29811.40
566.05	29867.58
566.21	29759.91
566.38	29809.06
566.54	29982.26
566.70	30178.87
566.87	30260.79
567.03	29663.95
567.19	30190.57
567.36	29584.37
567.52	29848.85
567.68	30321.64
567.85	29844.17
568.01	30082.91
568.17	29860.55
568.34	30024.39
568.50	29961.20
568.66	29947.15
568.83	30387.18
568.99	29977.58
569.15	30148.44
569.32	30113.33
569.48	29909.71
569.64	29979.92
569.81	30331.00
569.97	29989.28
570.13	30221.00
570.30	30239.72
570.46	29919.07
570.62	29869.92
570.78	30235.04
570.95	30162.48
571.11	29986.94
571.27	29893.32
571.43	30108.65
571.60	30089.93
571.76	30057.16
571.92	30476.12
572.09	30181.21
572.25	30618.89
572.41	30354.41
572.57	30197.59
572.74	29982.26
572.90	30096.95
573.06	30047.80
573.22	30600.16
573.38	30443.35
573.55	30272.49
573.71	30813.15
573.87	30515.90
574.03	30022.05
574.20	30209.29
574.36	29879.28
574.52	30288.87
574.68	30380.15
574.84	30382.49
575.01	30284.19
575.17	30349.73
575.33	30354.41
575.49	30457.39
575.65	30188.23
575.82	30646.97
575.98	30623.57
576.14	30202.27
576.30	30499.52
576.46	30242.06
576.62	30426.96
576.79	30618.89
576.95	29944.81
577.11	30689.10
577.27	30511.22
577.43	30433.99
577.59	30714.85
577.75	30473.78
577.92	29991.62
578.08	30164.82
578.24	30595.48
578.40	30396.54
578.56	30529.95
578.72	30141.42
578.88	30871.67
579.04	30513.56
579.21	30574.42
579.37	30820.17
579.53	30651.66
579.69	30192.91
579.85	30448.03
580.01	29940.13
580.17	30373.13
580.33	30267.81
580.49	30185.89
580.65	30756.98
580.82	30602.50
580.98	30476.12
581.14	30529.95
581.30	30672.72
581.46	30384.83
581.62	30408.24
581.78	30305.26
581.94	30462.07
582.10	30384.83
582.26	30558.03
582.42	30412.92
582.58	30710.17
582.74	30661.02
582.90	30422.28
583.06	30857.62
583.22	30529.95
583.38	30403.56
583.54	30473.78
583.70	30646.97
583.86	30246.74
584.02	30307.60
584.18	30927.84
584.34	30897.41
584.50	31033.16
584.66	30419.94
584.82	30361.43
584.98	30801.45
585.14	30345.05
585.30	30476.12
585.46	30614.21
585.62	30253.76
585.78	30354.41
585.94	30543.99
586.10	30630.59
586.26	30703.15
586.42	31019.12
586.58	30792.09
586.74	30649.32
586.90	30501.86
587.06	30141.42
587.22	30682.08
587.38	30630.59
587.54	30668.04
587.70	30808.47
587.86	30742.94
588.02	30890.39
588.18	30630.59
588.34	30689.10
588.49	30766.34
588.65	30541.65
588.81	31002.74
588.97	30820.17
589.13	30607.19
589.29	30948.90
589.45	30515.90
589.61	30813.15
589.77	30827.20
589.93	31131.47
590.08	31037.84
590.24	30906.77
590.40	30899.75
590.56	30955.93
590.72	30834.22
590.88	31105.72
591.04	30822.51
591.20	30855.28
591.35	31318.71
591.51	31124.44
591.67	31314.03
591.83	31267.22
591.99	31136.15
592.15	30932.52
592.31	31131.47
592.46	31108.06
592.62	30892.73
592.78	30710.17
592.94	31201.68
593.10	30850.60
593.26	31269.56
593.41	31285.94
593.57	30600.16
593.73	31131.47
593.89	30925.50
594.05	30869.33
594.20	31094.02
594.36	30749.96
594.52	30998.06
594.68	31140.83
594.84	30691.44
594.99	31185.30
595.15	31103.38
595.31	31515.31
595.47	31065.93
595.62	31178.28
595.78	30934.86
595.94	30953.58
596.10	31068.27
596.25	31047.21
596.41	30789.75
596.57	30822.51
596.73	31374.88
596.88	31012.10
597.04	31391.26
597.20	31152.53
597.36	31257.85
597.51	31164.23
597.67	31391.26
597.83	30937.20
597.99	31138.49
598.14	31459.14
598.30	30703.15
598.46	31246.15
598.61	31211.04
598.77	30967.63
598.93	31278.92
599.09	31096.36
599.24	31824.26
599.40	31632.34
599.56	31585.53
599.71	31171.25
599.87	31400.63
600.03	31023.80
600.18	31035.50
600.34	30764.00
600.50	31180.62
600.65	31339.77
600.81	31679.15
600.97	31604.25
601.12	31496.59
601.28	31117.42
601.44	31431.05
601.59	31281.26
601.75	31372.54
601.91	31473.18
602.06	31498.93
602.22	31084.65
602.37	30998.06
602.53	31398.29
602.69	31716.60
602.84	31407.65
603.00	31316.37
603.16	31391.26
603.31	31243.81
603.47	31599.57
603.62	31297.64
603.78	31028.48
603.94	31072.95
604.09	31297.64
604.25	31157.21
604.40	31075.29
604.56	31531.70
604.71	31768.09
604.87	31555.10
605.03	31564.46
605.18	31285.94
605.34	31197.00
605.49	30754.64
605.65	31094.02
605.80	30866.98
605.96	31147.85
606.12	31192.32
606.27	31440.42
606.43	31061.25
606.58	31365.52
606.74	31040.18
606.89	31243.81
607.05	30965.29
607.20	31164.23
607.36	31173.60
607.51	31580.85
607.67	31077.63
607.82	30815.49
607.98	31227.43
608.13	31091.68
608.29	31049.55
608.44	31215.72
608.60	31145.51
608.75	31129.12
608.91	31091.68
609.06	31269.56
609.22	31356.16
609.37	30670.38
609.53	31028.48
609.68	30663.36
609.84	30579.10
609.99	30965.29
610.15	31087.00
610.30	30848.26
610.46	31084.65
610.61	30756.98
610.76	30749.96
610.92	30899.75
611.07	30939.54
611.23	31019.12
611.38	30747.62
611.54	30796.77
611.69	30487.82
611.84	30562.72
612.00	30600.16
612.15	30857.62
612.31	30822.51
612.46	30623.57
612.62	31044.87
612.77	30684.42
612.92	30806.13
613.08	30895.07
613.23	30958.27
613.39	30745.28
613.54	30689.10
613.69	30749.96
613.85	30492.50
614.00	30551.01
614.15	30752.30
614.31	30433.99
614.46	31108.06
614.62	30576.76
614.77	30689.10
614.92	30635.27
615.08	30335.68
615.23	30572.08
615.38	30714.85
615.54	30380.15
615.69	30412.92
615.84	30422.28
616.00	30691.44
616.15	30586.12
616.30	30485.48
616.46	30052.48
616.61	30436.33
616.76	31047.21
616.92	30459.73
617.07	30384.83
617.22	30455.05
617.37	30490.16
617.53	30555.69
617.68	30242.06
617.83	29954.18
617.99	30103.97
618.14	30211.64
618.29	30771.02
618.45	30476.12
618.60	30213.98
618.75	30277.17
618.90	30302.92
619.06	30333.34
619.21	30096.95
619.36	30211.64
619.51	29909.71
619.67	29961.20
619.82	29619.48
619.97	30057.16
620.12	29598.41
620.28	29738.85
620.43	30417.60
620.58	30218.66
620.73	30176.53
620.89	30347.39
621.04	30153.12
621.19	29977.58
621.34	29858.21
621.49	29570.33
621.65	29900.34
621.80	30071.20
621.95	30068.86
622.10	30129.72
622.25	29780.98
622.41	29766.93
622.56	29600.76
622.71	30221.00
622.86	29780.98
623.01	29645.23
623.16	29483.73
623.32	29998.65
623.47	29827.79
623.62	29390.11
623.77	29333.93
623.92	29277.76
624.07	29380.74
624.23	29898.00
624.38	29949.50
624.53	29448.62
624.68	29848.85
624.83	29710.76
624.98	29900.34
625.13	29371.38
625.29	29460.32
625.44	29312.87
625.59	29593.73
625.74	29488.41
625.89	29266.06
626.04	29291.80
626.19	29305.85
626.34	29603.10
626.49	29102.22
626.65	29333.93
626.80	29729.48
626.95	29490.75
627.10	29425.22
627.25	29219.25
627.40	28858.81
627.55	29200.52
627.70	29263.72
627.85	29516.50
628.00	29221.59
628.15	28914.98
628.30	29053.07
628.45	29233.29
628.60	28959.45
628.76	29048.39
628.91	29532.88
629.06	29076.48
629.21	28945.41
629.36	29425.22
629.51	29032.00
629.66	28697.31
629.81	28779.23
629.96	28861.15
630.11	28526.45
630.26	28870.51
630.41	28643.48
630.56	28994.56
630.71	29109.24
630.86	28922.00
631.01	28837.74
631.16	29172.44
631.31	28446.87
631.46	28692.63
631.61	29235.63
631.76	28716.03
631.91	28772.21
632.06	29048.39
632.21	28552.20
632.36	28381.34
632.51	27976.42
632.66	28833.06
632.81	28734.76
632.96	28811.99
633.10	28823.70
633.25	29179.46
633.40	28730.08
633.55	28692.63
633.70	28465.60
633.85	28030.26
634.00	28173.03
634.15	28348.57
634.30	28376.66
634.45	28484.32
634.60	28273.67
634.75	28142.60
634.90	28170.69
635.05	28341.55
635.19	28533.47
635.34	28683.27
635.49	28767.52
635.64	28720.71
635.79	28278.35
635.94	28650.50
636.09	28271.33
636.24	28102.81
636.39	28147.28
636.53	28238.56
636.68	28196.43
636.83	28194.09
636.98	28411.76
637.13	28313.46
637.28	28505.38
637.43	28041.96
637.57	28147.28
637.72	28222.18
637.87	28046.64
638.02	27941.32
638.17	28093.45
638.32	28109.83
638.46	27903.87
638.61	27833.65
638.76	27749.39
638.91	27744.71
639.06	27943.66
639.20	27828.97
639.35	27974.08
639.50	27800.88
639.65	27868.76
639.80	27920.25
639.94	28259.63
640.09	28224.52
640.24	27819.61
640.39	27812.59
640.54	27538.74
640.68	27578.53
640.83	27171.28
640.98	27459.16
641.13	27461.51
641.27	27445.12
641.42	27782.16
641.57	27501.29
641.72	27824.29
641.86	27246.18
642.01	27302.35
642.16	27491.93
642.31	27461.51
642.45	27412.35
642.60	27337.46
642.75	27520.02
642.90	27407.67
643.04	27105.74
643.19	27395.97
643.34	27615.98
643.48	27627.68
643.63	27707.26
643.78	27292.99
643.93	27646.41
644.07	27704.92
644.22	27697.90
644.37	27501.29
644.51	27529.38
644.66	27513.00
644.81	27185.32
644.95	27515.34
645.10	26735.94
645.25	27094.04
645.39	26850.63
645.54	27543.42
645.69	27154.90
645.83	27124.47
645.98	26984.04
646.13	27587.89
646.27	27201.71
646.42	27161.92
646.57	27395.97
646.71	26822.54
646.86	27194.68
647.00	27054.25
647.15	27091.70
647.30	26726.58
647.44	26735.94
647.59	27157.24
647.74	27096.38
647.88	26906.80
648.03	26782.75
648.17	26689.13
648.32	27152.55
648.47	27374.91
648.61	27133.83
648.76	27180.64
648.90	26972.33
649.05	26918.50
649.20	26565.08
649.34	26752.32
649.49	26946.59
649.63	26443.37
649.78	26366.13
649.92	26534.65
650.07	26988.72
650.21	26349.75
650.36	26663.38
650.51	26675.09
650.65	26738.28
650.80	26661.04
650.94	26714.87
651.09	26312.30
651.23	26263.15
651.38	26485.50
651.52	26586.15
651.67	26263.15
651.81	26490.18
651.96	26197.62
652.10	26017.40
652.25	26314.64
652.39	26541.68
652.54	26515.93
652.68	26527.63
652.83	26389.54
652.97	26649.34
653.12	26422.31
653.26	26265.49
653.41	26614.23
653.55	26380.18
653.70	26033.78
653.84	26249.11
653.99	26195.28
654.13	26345.07
654.27	26438.69
654.42	26061.87
654.56	26132.08
654.71	25993.99
654.85	26106.34
655.00	26373.16
655.14	26129.74
655.29	26384.86
655.43	26312.30
655.57	25998.67
655.72	26026.76
655.86	26211.66
656.01	25834.83
656.15	25413.54
656.30	26001.01
656.44	25834.83
656.58	26178.89
656.73	25781.00
656.87	25846.54
657.01	26214.00
657.16	25846.54
657.30	25935.48
657.45	25844.20
657.59	25783.34
657.73	25530.56
657.88	25759.94
658.02	25556.31
658.16	25462.69
658.31	25614.82
658.45	25703.76
658.60	25296.51
658.74	25633.55
658.88	25853.56
659.03	25319.92
659.17	25759.94
659.31	25575.03
659.46	25467.37
659.60	25553.97
659.74	25455.67
659.89	25294.17
660.03	25214.59
660.17	25626.53
660.32	24987.56
660.46	25216.93
660.60	25090.54
660.74	25289.49
660.89	25048.41
661.03	25027.35
661.17	25181.82
661.32	25048.41
661.46	25268.42
661.60	25106.93
661.74	25254.38
661.89	25174.80
662.03	25324.60
662.17	25099.90
662.31	25029.69
662.46	24945.43
662.60	24802.66
662.74	24797.98
662.88	24805.00
663.03	24308.80
663.17	24919.68
663.31	24041.98
663.45	24306.46
663.60	24161.35
663.74	24151.99
663.88	24414.13
664.02	24379.02
664.17	24676.27
664.31	24383.70
664.45	24474.98
664.59	24245.61
664.73	24451.58
664.88	24697.33
665.02	24133.26
665.16	24559.24
665.30	24325.19
665.44	24051.34
665.59	23779.84
665.73	24208.16
665.87	23894.53
666.01	24208.16
666.15	24060.71
666.29	24074.75
666.44	23983.47
666.58	23803.25
666.72	23810.27
666.86	23903.89
667.00	24269.01
667.14	23686.22
667.28	23882.83
667.43	23723.67
667.57	23850.06
667.71	23971.77
667.85	23632.39
667.99	23480.25
668.13	23419.40
668.27	23683.88
668.41	23487.28
668.56	23384.29
668.70	23489.62
668.84	23513.02
668.98	23225.14
669.12	23398.34
669.26	23419.40
669.40	23283.65
669.54	23363.23
669.68	23211.09
669.82	23255.56
669.96	22911.50
670.10	22848.31
670.25	22895.12
670.39	22794.48
670.53	22890.44
670.67	22553.40
670.81	23187.69
670.95	22925.55
671.09	23023.85
671.23	22850.65
671.37	22750.01
671.51	22871.72
671.65	22780.43
671.79	22567.45
671.93	22260.84
672.07	22602.55
672.21	22436.38
672.35	22478.50
672.49	22555.74
672.63	22431.69
672.77	22118.06
672.91	22665.75
673.05	22052.53
673.19	22160.19
673.33	22457.44
673.47	21994.01
673.61	22232.75
673.75	22174.24
673.89	22094.66
674.03	22134.45
674.17	21748.26
674.31	21710.81
674.45	21551.65
674.59	21757.62
674.73	22036.14
674.87	22015.08
675.01	21582.08
675.15	21331.64
675.29	21556.33
675.43	21509.52
675.56	21366.75
675.70	21488.46
675.84	21448.67
675.98	21172.49
676.12	21612.51
676.26	21266.11
676.40	21310.58
676.54	21120.99
676.68	21090.57
676.82	20664.59
676.96	21060.14
677.10	20744.17
677.23	21057.80
677.37	20915.03
677.51	20826.09
677.65	20776.94
677.79	20666.93
677.93	20489.05
678.07	20259.68
678.21	20353.30
678.34	20318.19
678.48	20479.69
678.62	20208.19
678.76	20313.51
678.90	19887.53
679.04	20212.87
679.18	20086.48
679.31	19758.80
679.45	19857.10
679.59	19981.15
679.73	19494.32
679.87	19786.89
680.00	19735.40
680.14	19569.22
680.28	19803.27
680.42	19620.71
680.56	19793.91
680.70	19491.98
680.83	19557.52
680.97	19414.74
681.11	19461.55
681.25	19044.94
681.39	19194.73
681.52	19105.79
681.66	19058.98
681.80	18869.40
681.94	18780.46
682.07	19115.16
682.21	18831.95
682.35	18714.92
682.49	18672.79
682.62	18853.02
682.76	18719.60
682.90	18508.96
683.04	18679.82
683.17	18640.03
683.31	18633.00
683.45	18366.18
683.59	18455.12
683.72	18253.84
683.86	18031.49
684.00	18225.75
684.13	18291.29
684.27	18090.00
684.41	18108.72
684.55	17563.38
684.68	18066.60
684.82	17811.48
684.96	17752.96
685.09	17734.24
685.23	17422.95
685.37	17771.69
685.50	17877.01
685.64	17619.55
685.78	17542.32
685.91	17523.59
686.05	17528.27
686.19	17453.37
686.32	17235.70
686.46	17018.04
686.60	16826.11
686.73	17053.14
686.87	17179.53
687.01	16924.41
687.14	16655.25
687.28	16671.64
687.42	16613.12
687.55	16767.60
687.69	16723.13
687.82	16666.95
687.96	16882.28
688.10	16795.68
688.23	16507.80
688.37	16194.17
688.50	16264.38
688.64	16393.11
688.78	16290.13
688.91	16325.24
689.05	16013.95
689.18	15999.90
689.32	15704.99
689.46	15798.62
689.59	15948.41
689.73	15845.43
689.86	15697.97
690.00	15744.78
690.13	15763.51
690.27	15419.45
690.41	15473.28
690.54	15641.80
690.68	15274.34
690.81	15681.59
690.95	15651.16
691.08	15489.67
691.22	15372.64
691.35	15190.08
691.49	15374.98
691.62	15239.23
691.76	15316.47
691.89	15021.56
692.03	15007.52
692.16	14773.46
692.30	14656.43
692.43	14576.86
692.57	14745.38
692.70	14618.99
692.84	14733.67
692.97	14665.80
693.11	14602.60
693.24	14363.87
693.38	14396.64
693.51	14478.55
693.65	14394.29
693.78	14085.34
693.92	14380.25
694.05	14237.48
694.19	14148.54
694.32	14012.79
694.45	13715.54
694.59	13570.43
694.72	13877.04
694.86	13745.97
694.99	13579.79
695.13	13708.52
695.26	13736.60
695.39	13298.92
695.53	13654.69
695.66	13507.23
695.80	13294.24
695.93	13633.62
696.07	13303.60
696.20	13614.90
696.33	13308.29
696.47	13336.37
696.60	13057.85
696.73	13123.38
696.87	13039.12
697.00	12915.08
697.14	12793.37
697.27	12926.78
697.40	12805.07
697.54	12491.44
697.67	12711.45
697.80	12547.61
697.94	12449.31
698.07	12451.65
698.21	12542.93
698.34	12290.15
698.47	12395.48
698.61	12355.69
698.74	12334.62
698.87	12271.43
699.01	11960.14
699.14	12269.09
699.27	12175.47
699.40	12077.16
699.54	12133.34
699.67	11978.86
699.80	12058.44
699.94	11976.52
700.07	11639.48
700.20	11763.53
700.34	11768.21
700.47	11449.90
700.60	11763.53
700.73	11459.26
700.87	11578.63
701.00	11527.14
701.13	11466.28
701.26	11548.20
701.40	11360.96
701.53	11332.87
701.66	11346.92
701.79	11222.87
701.93	11262.66
702.06	11398.41
702.19	10967.75
702.32	11049.67
702.46	10843.70
702.59	10806.25
702.72	10700.93
702.85	10808.59
702.99	10506.66
703.12	10752.42
703.25	10611.99
703.38	10686.89
703.51	10817.96
703.65	10490.28
703.78	10579.22
703.91	10277.29
704.04	10579.22
704.17	10558.16
704.31	10363.89
704.44	10356.87
704.57	10340.49
704.70	10106.43
704.83	9961.32
704.96	10005.79
705.10	9958.98
705.23	10003.45
>>>>>End Processed Spectral Data<<<<<
