SpectraSuite Data File
++++++++++++++++++++++++++++++++++++
Date: Fri Oct 18 13:57:54 GMT-05:00 2013
User: bianchi
Dark Spectrum Present: No
Reference Spectrum Present: No
Number of Sampled Component Spectra: 1
Spectrometers: USB2+H05261
Integration Time (usec): 50000 (USB2+H05261)
Spectra Averaged: 1 (USB2+H05261)
Boxcar Smoothing: 0 (USB2+H05261)
Correct for Electrical Dark: No (USB2+H05261)
Strobe/Lamp Enabled: No (USB2+H05261)
Correct for Detector Non-linearity: No (USB2+H05261)
Correct for Stray Light: No (USB2+H05261)
Number of Pixels in Processed Spectrum: 2048
>>>>>Begin Processed Spectral Data<<<<<
365.73	0.00
365.92	0.00
366.12	0.00
366.32	0.00
366.52	0.00
366.72	0.00
366.91	0.00
367.11	0.00
367.31	0.00
367.51	0.00
367.70	0.00
367.90	0.00
368.10	0.00
368.30	0.00
368.49	0.00
368.69	0.00
368.89	0.00
369.09	0.00
369.28	0.00
369.48	0.00
369.68	0.00
369.87	0.00
370.07	0.00
370.27	0.00
370.47	0.00
370.66	110.01
370.86	93.62
371.06	152.13
371.25	163.84
371.45	124.05
371.65	182.56
371.84	187.24
372.04	168.52
372.24	170.86
372.44	161.50
372.63	229.37
372.83	248.10
373.03	196.60
373.22	231.71
373.42	227.03
373.62	154.48
373.81	210.65
374.01	168.52
374.21	210.65
374.40	205.97
374.60	301.93
374.79	292.57
374.99	208.31
375.19	311.29
375.38	283.20
375.58	259.80
375.78	220.01
375.97	287.89
376.17	292.57
376.37	269.16
376.56	227.03
376.76	304.27
376.95	262.14
377.15	306.61
377.35	271.50
377.54	285.55
377.74	290.23
377.93	236.39
378.13	243.42
378.33	315.97
378.52	351.08
378.72	285.55
378.91	341.72
379.11	299.59
379.31	301.93
379.50	271.50
379.70	243.42
379.89	280.86
380.09	306.61
380.28	252.78
380.48	344.06
380.68	332.36
380.87	248.10
381.07	327.68
381.26	428.32
381.46	325.33
381.65	393.21
381.85	353.42
382.04	351.08
382.24	287.89
382.43	339.38
382.63	325.33
382.83	353.42
383.02	390.87
383.22	414.27
383.41	262.14
383.61	327.68
383.80	369.80
384.00	362.78
384.19	332.36
384.39	397.89
384.58	374.49
384.78	393.21
384.97	421.30
385.17	353.42
385.36	409.59
385.56	322.99
385.75	416.62
385.95	416.62
386.14	409.59
386.34	383.85
386.53	409.59
386.72	351.08
386.92	484.49
387.11	498.53
387.31	428.32
387.50	498.53
387.70	486.83
387.89	440.02
388.09	468.11
388.28	477.47
388.48	479.81
388.67	486.83
388.86	407.25
389.06	493.85
389.25	482.15
389.45	454.06
389.64	468.11
389.84	458.74
390.03	512.58
390.22	519.60
390.42	510.24
390.61	454.06
390.81	512.58
391.00	528.96
391.19	524.28
391.39	617.90
391.58	601.52
391.78	524.28
391.97	550.03
392.16	496.19
392.36	615.56
392.55	578.11
392.75	535.98
392.94	538.32
393.13	601.52
393.33	503.22
393.52	528.96
393.71	671.73
393.91	547.69
394.10	599.18
394.29	638.97
394.49	582.79
394.68	561.73
394.88	568.75
395.07	547.69
395.26	575.77
395.46	648.33
395.65	580.45
395.84	660.03
396.04	702.16
396.23	627.26
396.42	671.73
396.62	685.78
396.81	645.99
397.00	580.45
397.19	688.12
397.39	758.33
397.58	676.41
397.77	702.16
397.97	788.76
398.16	706.84
398.35	683.44
398.55	723.23
398.74	692.80
398.93	678.76
399.12	791.10
399.32	725.57
399.51	699.82
399.70	774.72
399.90	725.57
400.09	734.93
400.28	781.74
400.47	795.78
400.67	791.10
400.86	875.36
401.05	919.83
401.24	772.38
401.44	779.40
401.63	863.66
401.82	882.38
402.01	873.02
402.21	823.87
402.40	863.66
402.59	868.34
402.78	823.87
402.97	847.27
403.17	889.40
403.36	924.51
403.55	866.00
403.74	905.79
403.93	938.55
404.13	905.79
404.32	940.90
404.51	858.98
404.70	1001.75
404.89	971.32
405.09	912.81
405.28	889.40
405.47	961.96
405.66	1034.52
405.85	994.73
406.05	964.30
406.24	1015.79
406.43	1041.54
406.62	978.34
406.81	1158.57
407.00	1071.97
407.20	950.26
407.39	1025.15
407.58	1170.27
407.77	1060.26
407.96	1104.73
408.15	1097.71
408.34	1114.10
408.54	1151.54
408.73	1177.29
408.92	983.02
409.11	1083.67
409.30	1158.57
409.49	1198.35
409.68	1174.95
409.87	1233.46
410.07	1254.53
410.26	1226.44
410.45	1177.29
410.64	1198.35
410.83	1273.25
411.02	1242.82
411.21	1252.19
411.40	1310.70
411.59	1359.85
411.78	1280.27
411.98	1273.25
412.17	1275.59
412.36	1270.91
412.55	1371.55
412.74	1320.06
412.93	1378.58
413.12	1423.05
413.31	1350.49
413.50	1299.00
413.69	1315.38
413.88	1446.45
414.07	1418.36
414.26	1495.60
414.45	1483.90
414.64	1495.60
414.83	1603.27
415.02	1547.09
415.22	1675.82
415.41	1626.67
415.60	1579.86
415.79	1666.46
415.98	1537.73
416.17	1584.54
416.36	1610.29
416.55	1645.40
416.74	1671.14
416.93	1678.16
417.12	1764.76
417.31	1682.85
417.50	1715.61
417.69	1757.74
417.88	1732.00
418.07	1682.85
418.26	1743.70
418.45	1783.49
418.64	1834.98
418.83	1942.64
419.02	1809.23
419.21	1774.13
419.39	1907.54
419.58	1774.13
419.77	1771.79
419.96	1980.09
420.15	1804.55
420.34	1923.92
420.53	2017.54
420.72	2122.87
420.91	2045.63
421.10	2019.88
421.29	1989.46
421.48	1919.24
421.67	2036.27
421.86	2015.20
422.05	1989.46
422.24	1916.90
422.43	1966.05
422.61	2019.88
422.80	1994.14
422.99	2106.48
423.18	2054.99
423.37	2153.29
423.56	2045.63
423.75	1909.88
423.94	2003.50
424.13	1933.28
424.32	1975.41
424.50	2057.33
424.69	2087.76
424.88	2080.74
425.07	2106.48
425.26	2087.76
425.45	2045.63
425.64	2062.01
425.83	2115.84
426.01	2230.53
426.20	2085.42
426.39	2111.16
426.58	2129.89
426.77	2155.63
426.96	2092.44
427.15	2183.72
427.33	2326.49
427.52	2218.83
427.71	2181.38
427.90	2249.25
428.09	2298.41
428.28	2190.74
428.46	2324.15
428.65	2239.89
428.84	2359.26
429.03	2356.92
429.22	2293.72
429.40	2296.07
429.59	2401.39
429.78	2195.42
429.97	2221.17
430.16	2347.56
430.34	2363.94
430.53	2455.22
430.72	2413.09
430.91	2363.94
431.10	2359.26
431.28	2490.33
431.47	2490.33
431.66	2497.35
431.85	2480.97
432.03	2588.63
432.22	2633.10
432.41	2619.06
432.60	2523.10
432.79	2555.86
432.97	2621.40
433.16	2523.10
433.35	2464.58
433.54	2518.42
433.72	2593.31
433.91	2502.03
434.10	2506.71
434.28	2619.06
434.47	2642.46
434.66	2696.30
434.85	2633.10
435.03	2588.63
435.22	2693.96
435.41	2839.07
435.59	2675.23
435.78	2750.13
435.97	2768.85
436.16	2710.34
436.34	2630.76
436.53	2698.64
436.72	2803.96
436.90	2630.76
437.09	2825.03
437.28	2698.64
437.46	2787.58
437.65	2799.28
437.84	2867.16
438.02	2841.41
438.21	2881.20
438.40	2834.39
438.58	2855.45
438.77	2981.84
438.96	2963.12
439.14	2895.24
439.33	3005.25
439.52	2942.05
439.70	3141.00
439.89	3183.13
440.08	3061.42
440.26	3129.30
440.45	3087.17
440.63	3171.43
440.82	3141.00
441.01	3159.72
441.19	3260.37
441.38	3398.46
441.57	3194.83
441.75	3349.31
441.94	3283.77
442.12	3473.36
442.31	3410.16
442.50	3468.67
442.68	3351.65
442.87	3337.60
443.05	3471.01
443.24	3471.01
443.43	3445.27
443.61	3473.36
443.80	3529.53
443.98	3449.95
444.17	3311.86
444.35	3382.07
444.54	3529.53
444.73	3578.68
444.91	3552.93
445.10	3658.26
445.28	3496.76
445.47	3356.33
445.65	3592.72
445.84	3590.38
446.02	3538.89
446.21	3421.86
446.39	3557.61
446.58	3590.38
446.77	3602.08
446.95	3648.90
447.14	3625.49
447.32	3557.61
447.51	3595.06
447.69	3632.51
447.88	3585.70
448.06	3559.95
448.25	3550.59
448.43	3557.61
448.62	3597.40
448.80	3737.84
448.99	3665.28
449.17	3744.86
449.36	3709.75
449.54	3817.41
449.73	3730.81
449.91	3784.65
450.10	3843.16
450.28	3789.33
450.46	4032.74
450.65	3812.73
450.83	3913.38
451.02	3803.37
451.20	3864.22
451.39	3911.04
451.57	4028.06
451.76	3817.41
451.94	3786.99
452.13	4107.64
452.31	4053.81
452.49	3840.82
452.68	3904.01
452.86	4121.68
453.05	4056.15
453.23	4086.58
453.42	3943.80
453.60	3941.46
453.78	4002.32
453.97	4140.41
454.15	4018.70
454.34	3997.64
454.52	4147.43
454.70	4105.30
454.89	4257.43
455.07	4266.80
455.26	4194.24
455.44	4205.94
455.62	4184.88
455.81	4102.96
455.99	4124.02
456.17	4189.56
456.36	4318.29
456.54	4175.52
456.73	4329.99
456.91	4463.40
457.09	4484.47
457.28	4454.04
457.46	4463.40
457.64	4493.83
457.83	4367.44
458.01	4383.82
458.19	4465.74
458.38	4517.23
458.56	4603.83
458.74	4489.15
458.93	4472.76
459.11	4688.09
459.29	4774.69
459.48	4521.92
459.66	4615.54
459.84	4568.73
460.03	4695.11
460.21	4704.48
460.39	4685.75
460.57	4723.20
460.76	4758.31
460.94	4725.54
461.12	4812.14
461.31	4732.56
461.49	4861.29
461.67	4704.48
461.85	4887.04
462.04	4784.06
462.22	5142.16
462.40	4873.00
462.59	4931.51
462.77	4894.06
462.95	4809.80
463.13	4952.57
463.32	4929.17
463.50	4896.40
463.68	4997.04
463.86	5039.17
464.05	4922.15
464.23	5158.54
464.41	5081.30
464.59	4901.08
464.78	5039.17
464.96	5114.07
465.14	5069.60
465.32	5238.12
465.50	4931.51
465.69	5048.54
465.87	5193.65
466.05	5207.69
466.23	5247.48
466.41	5217.05
466.60	5123.43
466.78	5186.63
466.96	5191.31
467.14	5226.42
467.32	5060.24
467.51	5383.23
467.69	5247.48
467.87	5371.53
468.05	5364.51
468.23	5359.83
468.41	5210.03
468.60	5313.02
468.78	5568.13
468.96	5282.59
469.14	5418.34
469.32	5387.91
469.50	5378.55
469.69	5430.04
469.87	5556.43
470.05	5561.11
470.23	5509.62
470.41	5593.88
470.59	5710.91
470.77	5617.29
470.95	5591.54
471.14	5804.53
471.32	5631.33
471.50	5682.82
471.68	5872.40
471.86	5996.45
472.04	5813.89
472.22	5795.17
472.40	5673.46
472.58	5823.25
472.77	5820.91
472.95	6026.88
473.13	6307.74
473.31	5916.87
473.49	5998.79
473.67	6015.18
473.85	6186.04
474.03	6108.80
474.21	6092.41
474.39	6228.17
474.57	6282.00
474.75	6293.70
474.93	6270.30
475.12	6366.26
475.30	6321.79
475.48	6223.48
475.66	6450.52
475.84	6513.71
476.02	6586.27
476.20	6448.18
476.38	6619.04
476.56	6724.36
476.74	6574.56
476.92	6738.40
477.10	6715.00
477.28	6883.52
477.46	6855.43
477.64	6946.71
477.82	6993.52
478.00	7220.55
478.18	7077.78
478.36	7171.40
478.54	7368.01
478.72	7454.61
478.90	7236.94
479.08	7431.20
479.26	7552.91
479.44	7588.02
479.62	7728.45
479.80	7431.20
479.98	7447.58
480.16	7728.45
480.34	7679.30
480.52	7754.19
480.70	7815.05
480.88	7894.63
481.06	7953.14
481.24	7751.85
481.41	8161.45
481.59	8121.66
481.77	8369.76
481.95	8222.30
482.13	8285.50
482.31	8290.18
482.49	8465.72
482.67	8425.93
482.85	8608.49
483.03	8648.28
483.21	8999.36
483.39	8905.74
483.57	8842.54
483.74	8779.35
483.92	8936.17
484.10	9015.74
484.28	9064.89
484.46	9411.29
484.64	9364.48
484.82	9275.54
485.00	9437.04
485.18	9490.87
485.35	9671.09
485.53	9750.67
485.71	9701.52
485.89	10038.56
486.07	9806.84
486.25	9738.97
486.43	9905.15
486.61	10115.80
486.78	10059.62
486.96	10181.33
487.14	10326.44
487.32	10438.79
487.50	10619.01
487.68	10403.68
487.85	10647.10
488.03	10757.10
488.21	11040.31
488.39	10923.28
488.57	10801.57
488.75	11068.39
488.92	11059.03
489.10	11309.47
489.28	11276.70
489.46	11501.39
489.64	11279.04
489.81	11501.39
489.99	11707.36
490.17	11674.59
490.35	12070.14
490.53	11983.54
490.70	11946.09
490.88	12035.03
491.06	12215.26
491.24	12109.93
491.41	11981.20
491.59	12453.99
491.77	12322.92
491.95	12470.37
492.13	12657.62
492.30	12840.18
492.48	12697.41
492.66	12774.64
492.84	12690.38
493.01	12982.95
493.19	12837.84
493.37	13235.73
493.54	13167.85
493.72	13186.58
493.90	13429.99
494.08	13357.44
494.25	13556.38
494.43	13371.48
494.61	13472.12
494.79	13685.11
494.96	13865.33
495.14	13804.48
495.32	13919.17
495.49	14052.58
495.67	13956.61
495.85	14410.68
496.02	14160.24
496.20	14459.83
496.38	14572.18
496.55	14361.53
496.73	14654.09
496.91	14661.12
497.09	14597.92
497.26	14665.80
497.44	14637.71
497.62	14813.25
497.79	15133.90
497.97	15023.90
498.14	15129.22
498.32	15049.64
498.50	15262.63
498.67	15241.57
498.85	15297.74
499.03	15667.55
499.20	15391.36
499.38	15602.01
499.56	15592.65
499.73	16126.29
499.91	15896.92
500.08	15749.46
500.26	15960.11
500.44	16013.95
500.61	16116.93
500.79	16168.42
500.97	16287.79
501.14	16414.18
501.32	16273.74
501.49	16383.75
501.67	16276.09
501.84	16542.91
502.02	16425.88
502.20	16608.44
502.37	16826.11
502.55	16744.19
502.72	16704.40
502.90	16795.68
503.07	16950.16
503.25	16952.50
503.43	16816.75
503.60	17057.82
503.78	16950.16
503.95	17062.51
504.13	17345.71
504.30	17561.04
504.48	17001.65
504.65	17584.44
504.83	17495.50
505.01	17678.07
505.18	17448.69
505.36	17598.49
505.53	17598.49
505.71	17497.84
505.88	17762.33
506.06	17586.79
506.23	18125.11
506.41	17827.86
506.58	17942.55
506.76	18106.38
506.93	17820.84
507.11	17994.04
507.28	18111.07
507.46	18354.48
507.63	18363.84
507.81	18551.09
507.98	18429.38
508.16	18501.93
508.33	18532.36
508.50	18377.89
508.68	18642.37
508.85	19028.56
509.03	18799.18
509.20	18773.44
509.38	19098.77
509.55	18934.93
509.73	19000.47
509.90	18860.04
510.08	18853.02
510.25	18967.70
510.42	19042.60
510.60	19513.05
510.77	19377.30
510.95	19281.33
511.12	19243.88
511.30	19161.97
511.47	19655.82
511.64	19393.68
511.82	19784.55
511.99	19770.51
512.17	19793.91
512.34	20105.20
512.51	19847.74
512.69	20102.86
512.86	19592.62
513.04	20058.39
513.21	20114.56
513.38	20006.90
513.56	20072.43
513.73	19758.80
513.90	20283.08
514.08	20121.59
514.25	20643.52
514.43	20449.26
514.60	20568.63
514.77	20512.46
514.95	20781.62
515.12	20589.69
515.29	20306.49
515.47	20985.24
515.64	20596.71
515.81	20922.05
515.99	20844.81
516.16	21003.97
516.33	21015.67
516.51	20971.20
516.68	20933.75
516.85	21006.31
517.03	20966.52
517.20	21263.77
517.37	21109.29
517.54	21280.15
517.72	21118.65
517.89	20999.29
518.06	21270.79
518.24	21518.89
518.41	21298.88
518.58	21366.75
518.75	21589.10
518.93	21755.28
519.10	21532.93
519.27	21610.17
519.45	21827.84
519.62	21914.44
519.79	21867.63
519.96	21680.38
520.14	21839.54
520.31	21961.25
520.48	22019.76
520.65	22331.05
520.83	22195.30
521.00	21933.16
521.17	22326.37
521.34	22026.78
521.52	22340.41
521.69	22464.46
521.86	22302.96
522.03	22941.93
522.20	22424.67
522.38	22607.23
522.55	22710.22
522.72	22745.33
522.89	22932.57
523.07	22920.87
523.24	22925.55
523.41	23070.66
523.58	22841.29
523.75	23145.56
523.92	22899.80
524.10	22761.71
524.27	23344.50
524.44	23307.05
524.61	23248.54
524.78	23370.25
524.96	23152.58
525.13	23307.05
525.30	23433.44
525.47	23529.41
525.64	23295.35
525.81	23634.73
525.98	23618.35
526.16	23491.96
526.33	23555.15
526.50	23747.08
526.67	23283.65
526.84	23531.75
527.01	23543.45
527.18	23878.15
527.36	23913.25
527.53	23707.29
527.70	24112.20
527.87	24013.90
528.04	24056.03
528.21	24034.96
528.38	23744.73
528.55	23901.55
528.72	24329.87
528.89	24369.66
529.07	24362.64
529.24	24095.82
529.41	24226.89
529.58	24322.85
529.75	24226.89
529.92	24294.76
530.09	24257.31
530.26	24631.80
530.43	24599.03
530.60	24687.97
530.77	24699.67
530.94	24346.25
531.11	24596.69
531.28	24802.66
531.46	24655.20
531.63	24889.26
531.80	25099.90
531.97	25191.19
532.14	25137.35
532.31	24868.19
532.48	24865.85
532.65	24826.06
532.82	25060.12
532.99	24847.13
533.16	24872.87
533.33	25340.98
533.50	25462.69
533.67	24987.56
533.84	25212.25
534.01	25415.88
534.18	25006.28
534.35	25741.21
534.52	25099.90
534.69	25338.64
534.86	25755.26
535.03	25343.32
535.20	25488.43
535.37	25741.21
535.54	25425.24
535.71	25256.72
535.88	25731.85
536.05	25301.19
536.22	25734.19
536.38	25820.79
536.55	25874.62
536.72	25755.26
536.89	26005.69
537.06	25642.91
537.23	26111.02
537.40	25912.07
537.57	26082.93
537.74	26082.93
537.91	26291.24
538.08	26281.88
538.25	26251.45
538.42	26335.71
538.59	26576.78
538.75	26302.94
538.92	25853.56
539.09	26387.20
539.26	26239.75
539.43	26326.35
539.60	26448.05
539.77	26319.32
539.94	26415.29
540.11	26450.39
540.28	26639.98
540.44	26761.69
540.61	26551.04
540.78	26466.78
540.95	26469.12
541.12	26801.47
541.29	26855.31
541.46	26686.79
541.62	26890.41
541.79	26749.98
541.96	26515.93
542.13	26567.42
542.30	27007.44
542.47	26927.86
542.63	27005.10
542.80	27077.66
542.97	27365.54
543.14	27316.39
543.31	27461.51
543.48	27419.38
543.64	27466.19
543.81	27278.94
543.98	27531.72
544.15	27728.33
544.32	27674.49
544.48	27716.62
544.65	27604.28
544.82	27484.91
544.99	27098.72
545.16	27683.86
545.32	27405.33
545.49	27630.02
545.66	27751.73
545.83	28011.53
546.00	28041.96
546.16	28098.13
546.33	27559.81
546.50	27564.49
546.67	27723.65
546.83	27225.11
547.00	27866.42
547.17	27929.61
547.34	27800.88
547.50	28268.99
547.67	28283.03
547.84	28198.77
548.00	28112.17
548.17	28526.45
548.34	27871.10
548.51	28177.71
548.67	28191.75
548.84	28222.18
549.01	28142.60
549.18	27793.86
549.34	28458.57
549.51	28051.32
549.68	28690.29
549.84	28243.24
550.01	27835.99
550.18	28063.02
550.34	28414.10
550.51	28236.22
550.68	28528.79
550.84	28226.86
551.01	28418.78
551.18	28643.48
551.34	28177.71
551.51	28453.89
551.68	28379.00
551.84	28683.27
552.01	28814.34
552.18	29057.75
552.34	28402.40
552.51	28999.24
552.68	28706.67
552.84	28718.37
553.01	28863.49
553.18	28627.09
553.34	29097.54
553.51	29326.91
553.67	29137.33
553.84	29338.62
554.01	28917.32
554.17	29188.82
554.34	29226.27
554.51	28671.56
554.67	29074.13
554.84	29273.08
555.00	29200.52
555.17	29312.87
555.33	29057.75
555.50	28933.70
555.67	29378.40
555.83	29142.01
556.00	29074.13
556.16	29364.36
556.33	29415.85
556.50	29156.05
556.66	29570.33
556.83	29357.34
556.99	29743.53
557.16	29790.34
557.32	29841.83
557.49	29453.30
557.65	29083.50
557.82	29715.44
557.98	29539.90
558.15	29539.90
558.32	29762.25
558.48	29450.96
558.65	29919.07
558.81	29886.30
558.98	29537.56
559.14	29645.23
559.31	29795.02
559.47	29687.36
559.64	29977.58
559.80	29717.78
559.97	29949.50
560.13	29736.51
560.30	30218.66
560.46	29851.19
560.63	30071.20
560.79	29818.42
560.96	29755.23
561.12	30181.21
561.29	29900.34
561.45	30040.78
561.61	29797.36
561.78	30291.21
561.94	30162.48
562.11	30064.18
562.27	30347.39
562.44	29874.60
562.60	29879.28
562.77	30019.71
562.93	29914.39
563.10	30462.07
563.26	30265.47
563.42	30717.19
563.59	30590.80
563.75	30029.07
563.92	30120.35
564.08	30368.45
564.24	30246.74
564.41	30040.78
564.57	30024.39
564.74	30487.82
564.90	30560.37
565.07	30480.80
565.23	30412.92
565.39	30108.65
565.56	30637.61
565.72	30265.47
565.88	30569.74
566.05	30223.34
566.21	30326.32
566.38	30213.98
566.54	30181.21
566.70	30464.41
566.87	30567.40
567.03	30646.97
567.19	30445.69
567.36	30361.43
567.52	30415.26
567.68	30429.30
567.85	30382.49
568.01	30384.83
568.17	30403.56
568.34	30469.09
568.50	30497.18
568.66	30527.61
568.83	30623.57
568.99	30546.33
569.15	30838.90
569.32	30560.37
569.48	30522.93
569.64	30874.01
569.81	30387.18
569.97	30675.06
570.13	30930.18
570.30	30314.62
570.46	30511.22
570.62	30642.29
570.78	30824.86
570.95	30560.37
571.11	30478.46
571.27	30256.11
571.43	30607.19
571.60	30466.75
571.76	30560.37
571.92	30658.68
572.09	30497.18
572.25	31096.36
572.41	31285.94
572.57	30799.11
572.74	31222.75
572.90	30682.08
573.06	30614.21
573.22	30726.55
573.38	30892.73
573.55	31096.36
573.71	31529.36
573.87	30951.24
574.03	30637.61
574.20	30717.19
574.36	30682.08
574.52	30480.80
574.68	31028.48
574.84	30780.39
575.01	30609.53
575.17	30693.79
575.33	31269.56
575.49	30895.07
575.65	30969.97
575.82	30890.39
575.98	31234.45
576.14	30948.90
576.30	30841.24
576.46	30698.47
576.62	30672.72
576.79	31084.65
576.95	30579.10
577.11	31103.38
577.27	31138.49
577.43	31098.70
577.59	31405.31
577.75	30939.54
577.92	30941.88
578.08	30962.95
578.24	30962.95
578.40	30895.07
578.56	31094.02
578.72	30883.37
578.88	31108.06
579.04	31236.79
579.21	31026.14
579.37	30609.53
579.53	30843.58
579.69	30691.44
579.85	31091.68
580.01	30808.47
580.17	30637.61
580.33	30904.43
580.49	31159.55
580.65	30916.14
580.82	31152.53
580.98	31318.71
581.14	30953.58
581.30	30852.94
581.46	30724.21
581.62	31314.03
581.78	31084.65
581.94	31143.17
582.10	31016.78
582.26	31428.71
582.42	31091.68
582.58	31426.37
582.74	31026.14
582.90	31161.89
583.06	31292.96
583.22	31187.64
583.38	31049.55
583.54	31232.11
583.70	30998.06
583.86	31187.64
584.02	31487.23
584.18	31126.78
584.34	31297.64
584.50	31164.23
584.66	31456.80
584.82	30967.63
584.98	31204.02
585.14	31381.90
585.30	30911.46
585.46	30831.88
585.62	31381.90
585.78	31285.94
585.94	31009.76
586.10	31213.38
586.26	31552.76
586.42	31255.51
586.58	31735.32
586.74	31175.94
586.90	30850.60
587.06	30937.20
587.22	31454.46
587.38	31061.25
587.54	31021.46
587.70	31339.77
587.86	31358.50
588.02	31384.24
588.18	31534.04
588.34	31440.42
588.49	30946.56
588.65	30948.90
588.81	31063.59
588.97	31307.01
589.13	31260.20
589.29	31274.24
589.45	31304.67
589.61	31620.64
589.77	31845.33
589.93	31735.32
590.08	31784.48
590.24	31665.11
590.40	31243.81
590.56	31594.89
590.72	31601.91
590.88	31194.66
591.04	31215.72
591.20	31700.22
591.35	31735.32
591.51	32112.15
591.67	31578.51
591.83	31871.07
591.99	31611.28
592.15	31693.19
592.31	31644.04
592.46	31328.07
592.62	31454.46
592.78	31660.43
592.94	31508.29
593.10	31445.10
593.26	31646.38
593.41	31660.43
593.57	31480.21
593.73	31842.99
593.89	32060.66
594.05	31725.96
594.20	31632.34
594.36	31697.88
594.52	31164.23
594.68	31346.79
594.84	31456.80
594.99	31505.95
595.15	31477.86
595.31	31847.67
595.47	32109.81
595.62	31936.61
595.78	31798.52
595.94	31709.58
596.10	31894.48
596.25	31812.56
596.41	31292.96
596.57	31566.81
596.73	32095.77
596.88	31599.57
597.04	32109.81
597.20	31772.77
597.36	32041.93
597.51	31810.22
597.67	31840.65
597.83	31634.68
597.99	31517.65
598.14	31307.01
598.30	31758.73
598.46	31864.05
598.61	31999.80
598.77	31608.93
598.93	31934.27
599.09	32018.53
599.24	32093.43
599.40	32168.32
599.56	32158.96
599.71	32009.17
599.87	32006.83
600.03	31826.60
600.18	31693.19
600.34	31885.12
600.50	31405.31
600.65	31721.28
600.81	32151.94
600.97	32144.92
601.12	31658.09
601.28	32093.43
601.44	31821.92
601.59	31747.03
601.75	31964.70
601.91	31957.67
602.06	31789.16
602.22	32037.25
602.37	31552.76
602.53	32011.51
602.69	32306.41
602.84	32023.21
603.00	31934.27
603.16	31831.29
603.31	31929.59
603.47	31915.54
603.62	32004.49
603.78	32170.66
603.94	31690.85
604.09	31803.20
604.25	31894.48
604.40	31580.85
604.56	31835.97
604.71	32011.51
604.87	31700.22
605.03	32109.81
605.18	32009.17
605.34	31695.53
605.49	31974.06
605.65	31983.42
605.80	31723.62
605.96	32334.50
606.12	31672.13
606.27	32175.34
606.43	31732.98
606.58	31835.97
606.74	32163.64
606.89	31948.31
607.05	31901.50
607.20	31915.54
607.36	32048.96
607.51	32020.87
607.67	31810.22
607.82	31505.95
607.98	31541.06
608.13	31505.95
608.29	31599.57
608.44	31564.46
608.60	31945.97
608.75	31707.24
608.91	31833.63
609.06	31992.78
609.22	31690.85
609.37	31611.28
609.53	31428.71
609.68	31625.32
609.84	31646.38
609.99	31321.05
610.15	31707.24
610.30	31915.54
610.46	31496.59
610.61	31866.39
610.76	31634.68
610.92	31735.32
611.07	31683.83
611.23	31630.00
611.38	31374.88
611.54	31796.18
611.69	31494.25
611.84	31061.25
612.00	31529.36
612.15	31314.03
612.31	31468.50
612.46	31236.79
612.62	31583.19
612.77	31491.91
612.92	31461.48
613.08	31358.50
613.23	31438.08
613.39	31255.51
613.54	30981.67
613.69	31094.02
613.85	30890.39
614.00	31562.12
614.15	31545.74
614.31	31461.48
614.46	31351.48
614.62	31405.31
614.77	31459.14
614.92	31260.20
615.08	31129.12
615.23	31398.29
615.38	31115.08
615.54	30934.86
615.69	31035.50
615.84	31000.40
616.00	31019.12
616.15	31185.30
616.30	31323.39
616.46	31388.92
616.61	31222.75
616.76	31285.94
616.92	30948.90
617.07	31173.60
617.22	30946.56
617.37	30836.56
617.53	30904.43
617.68	30948.90
617.83	30410.58
617.99	31061.25
618.14	31009.76
618.29	30787.41
618.45	30845.92
618.60	30930.18
618.75	30761.66
618.90	30979.33
619.06	30909.11
619.21	30984.01
619.36	30644.63
619.51	30876.35
619.67	30691.44
619.82	30338.02
619.97	30764.00
620.12	30654.00
620.28	30625.91
620.43	30541.65
620.58	30663.36
620.73	31112.74
620.89	30948.90
621.04	30817.83
621.19	30490.16
621.34	30747.62
621.49	30476.12
621.65	30422.28
621.80	30426.96
621.95	30518.25
622.10	30504.20
622.25	30277.17
622.41	30450.37
622.56	30452.71
622.71	30714.85
622.86	30466.75
623.01	30656.34
623.16	30866.98
623.32	30642.29
623.47	30373.13
623.62	30604.84
623.77	30494.84
623.92	30396.54
624.07	30431.65
624.23	30319.30
624.38	30419.94
624.53	30380.15
624.68	30345.05
624.83	30911.46
624.98	30185.89
625.13	30326.32
625.29	30511.22
625.44	30260.79
625.59	29930.77
625.74	29713.10
625.89	30242.06
626.04	30017.37
626.19	30270.15
626.34	29979.92
626.49	29993.97
626.65	29783.32
626.80	30010.35
626.95	29839.49
627.10	30515.90
627.25	29979.92
627.40	29895.66
627.55	29879.28
627.70	29436.92
627.85	29970.56
628.00	29603.10
628.15	29748.21
628.30	29427.56
628.45	29935.45
628.60	29532.88
628.76	29404.15
628.91	29404.15
629.06	29766.93
629.21	29797.36
629.36	29694.38
629.51	29792.68
629.66	29579.69
629.81	29462.66
629.96	29535.22
630.11	29776.30
630.26	29579.69
630.41	29228.61
630.56	29701.40
630.71	29759.91
630.86	29640.54
631.01	29476.71
631.16	29404.15
631.31	29776.30
631.46	29202.86
631.61	29486.07
631.76	29502.45
631.91	29345.64
632.06	29282.44
632.21	29043.71
632.36	29186.48
632.51	29333.93
632.66	29034.35
632.81	29202.86
632.96	29324.57
633.10	29495.43
633.25	29523.52
633.40	29628.84
633.55	29085.84
633.70	28978.17
633.85	28891.57
634.00	29120.95
634.15	29069.45
634.30	29069.45
634.45	28952.43
634.60	28886.89
634.75	29523.52
634.90	28783.91
635.05	29268.40
635.19	28666.88
635.34	29214.57
635.49	29205.20
635.64	29329.25
635.79	28968.81
635.94	29118.60
636.09	29062.43
636.24	28514.75
636.39	28737.10
636.53	28910.30
636.68	28329.84
636.83	28933.70
636.98	28500.70
637.13	28575.60
637.28	28814.34
637.43	28959.45
637.57	29207.55
637.72	28697.31
637.87	28477.30
638.02	28325.16
638.17	28559.22
638.32	28247.93
638.46	28615.39
638.61	28191.75
638.76	28379.00
638.91	28397.72
639.06	28533.47
639.20	28201.11
639.35	28067.70
639.50	28341.55
639.65	28781.57
639.80	28582.62
639.94	28631.77
640.09	28400.06
640.24	28790.93
640.39	28489.00
640.54	28297.08
640.68	28245.58
640.83	27981.10
640.98	28390.70
641.13	28102.81
641.27	28294.74
641.42	28566.24
641.57	28357.93
641.72	28271.33
641.86	28247.93
642.01	28044.30
642.16	28002.17
642.31	28325.16
642.45	28130.90
642.60	27861.74
642.75	27936.63
642.90	27786.84
643.04	28018.55
643.19	27852.38
643.34	27648.75
643.48	27828.97
643.63	27931.95
643.78	28020.89
643.93	27997.49
644.07	28292.40
644.22	28091.11
644.37	27889.82
644.51	27871.10
644.66	27679.18
644.81	27765.78
644.95	27660.45
645.10	27424.06
645.25	27768.12
645.39	27770.46
645.54	27789.18
645.69	27711.94
645.83	27627.68
645.98	27522.36
646.13	27861.74
646.27	28201.11
646.42	27847.69
646.57	27552.79
646.71	27733.01
646.86	27831.31
647.00	27924.93
647.15	27402.99
647.30	27065.96
647.44	27225.11
647.59	27505.98
647.74	27496.61
647.88	27520.02
648.03	27697.90
648.17	27702.58
648.32	27388.95
648.47	27431.08
648.61	27454.48
648.76	27330.44
648.90	27271.92
649.05	27576.19
649.20	27447.46
649.34	27042.55
649.49	27009.78
649.63	27445.12
649.78	26934.88
649.92	27026.17
650.07	27456.82
650.21	27187.66
650.36	27187.66
650.51	27159.58
650.65	27255.54
650.80	27248.52
650.94	27117.45
651.09	26888.07
651.23	26625.93
651.38	27108.08
651.52	26939.57
651.67	27218.09
651.81	27211.07
651.96	27082.34
652.10	26958.29
652.25	27087.02
652.39	27089.36
652.54	26916.16
652.68	27117.45
652.83	27206.39
652.97	27215.75
653.12	27335.12
653.26	26726.58
653.41	27051.91
653.55	27007.44
653.70	26719.56
653.84	27112.77
653.99	27080.00
654.13	26820.20
654.27	26328.69
654.42	27072.98
654.56	26639.98
654.71	26761.69
654.85	27140.85
655.00	27339.80
655.14	26590.83
655.29	26450.39
655.43	26874.03
655.57	26518.27
655.72	26593.17
655.86	26499.55
656.01	26611.89
656.15	26340.39
656.30	26494.86
656.44	26462.10
656.58	26125.06
656.73	26316.98
656.87	26560.40
657.01	26368.48
657.16	26815.52
657.30	26473.80
657.45	26429.33
657.59	26396.56
657.73	26335.71
657.88	26265.49
658.02	26272.51
658.16	25991.65
658.31	25977.61
658.45	25979.95
658.60	25900.37
658.74	26008.03
658.88	25979.95
659.03	25898.03
659.17	25813.77
659.31	26319.32
659.46	26029.10
659.60	26150.81
659.74	26157.83
659.89	25848.88
660.03	25982.29
660.17	25926.11
660.32	25647.59
660.46	25603.12
660.60	25656.95
660.74	25762.28
660.89	25717.81
661.03	25425.24
661.17	25319.92
661.32	25390.13
661.46	25453.33
661.60	25659.29
661.74	25624.18
661.89	25415.88
662.03	25844.20
662.17	25523.54
662.31	25439.28
662.46	25626.53
662.60	25125.65
662.74	25195.87
662.88	25036.71
663.03	25256.72
663.17	24893.94
663.31	24809.68
663.45	25247.36
663.60	25017.99
663.74	25025.01
663.88	25095.22
664.02	24823.72
664.17	25179.48
664.31	24809.68
664.45	24795.64
664.59	24994.58
664.73	25057.78
664.88	24858.83
665.02	24610.73
665.16	24552.22
665.30	24678.61
665.44	24858.83
665.59	24397.74
665.73	24669.25
665.87	24400.08
666.01	24521.79
666.15	24706.70
666.29	24751.17
666.44	24594.35
666.58	24388.38
666.72	24545.20
666.86	24395.40
667.00	24779.25
667.14	24105.18
667.28	24325.19
667.43	24308.80
667.57	24257.31
667.71	24114.54
667.85	24051.34
667.99	24046.66
668.13	24074.75
668.27	24051.34
668.41	24240.93
668.56	23840.70
668.70	24013.90
668.84	24182.42
668.98	23997.51
669.12	24215.18
669.26	23939.00
669.40	23950.70
669.54	23866.44
669.68	23552.81
669.82	23442.81
669.96	23637.07
670.10	23253.22
670.25	23494.30
670.39	23405.36
670.53	23440.47
670.67	23498.98
670.81	23220.45
670.95	23513.02
671.09	23274.29
671.23	23491.96
671.37	23601.96
671.51	23178.33
671.65	23318.76
671.79	23534.09
671.93	23363.23
672.07	23283.65
672.21	22871.72
672.35	22822.56
672.49	22827.24
672.63	22974.70
672.77	22546.38
672.91	22618.94
673.05	23056.62
673.19	22923.21
673.33	22539.36
673.47	22492.55
673.61	22632.98
673.75	22450.42
673.89	22551.06
674.03	22593.19
674.17	22597.87
674.31	22597.87
674.45	22527.66
674.59	22466.80
674.73	22066.57
674.87	22377.86
675.01	22127.42
675.15	22064.23
675.29	21937.84
675.43	21916.78
675.56	22115.72
675.70	21940.18
675.84	21621.87
675.98	21331.64
676.12	21895.71
676.26	21984.65
676.40	21905.07
676.54	21837.20
676.68	21802.09
676.82	21198.23
676.96	21291.85
677.10	21495.48
677.23	20882.26
677.37	21441.65
677.51	21071.84
677.65	21207.59
677.79	20910.35
677.93	21223.98
678.07	21191.21
678.21	20816.72
678.34	20669.27
678.48	20542.88
678.62	20418.83
678.76	20599.05
678.90	20306.49
679.04	20545.22
679.18	20372.02
679.31	20304.15
679.45	20060.73
679.59	20252.66
679.73	20056.05
679.87	20095.84
680.00	20320.53
680.14	19932.00
680.28	19976.47
680.42	19733.06
680.56	19924.98
680.70	19990.52
680.83	20091.16
680.97	19660.50
681.11	19723.69
681.25	19761.14
681.39	19660.50
681.52	19585.60
681.66	19381.98
681.80	19316.44
681.94	19686.25
682.07	19173.67
682.21	19314.10
682.35	19290.70
682.49	19192.39
682.62	18822.59
682.76	19077.71
682.90	18993.45
683.04	18958.34
683.17	18965.36
683.31	18813.23
683.45	19183.03
683.59	19012.17
683.72	18693.86
683.86	18581.51
684.00	18310.01
684.13	18801.52
684.27	18480.87
684.41	18169.58
684.55	18143.83
684.68	18211.71
684.82	18298.31
684.96	17916.80
685.09	18284.26
685.23	17853.61
685.37	17607.85
685.50	18478.53
685.64	17954.25
685.78	18075.96
685.91	17987.02
686.05	17994.04
686.19	17781.05
686.32	17579.76
686.46	17364.43
686.60	17425.29
686.73	17401.88
686.87	17053.14
687.01	17097.61
687.14	17228.68
687.28	17121.02
687.42	16973.56
687.55	16996.97
687.69	16671.64
687.82	16826.11
687.96	16910.37
688.10	16868.24
688.23	16842.50
688.37	16929.09
688.50	16919.73
688.64	16809.73
688.78	16676.32
688.91	16554.61
689.05	16292.47
689.18	16446.94
689.32	15946.07
689.46	15988.20
689.59	16088.84
689.73	16222.25
689.86	16020.97
690.00	15894.58
690.13	16039.69
690.27	15824.36
690.41	16004.58
690.54	15875.85
690.68	15925.00
690.81	15768.19
690.95	15777.55
691.08	16175.44
691.22	15655.84
691.35	15800.96
691.49	15714.36
691.62	15449.88
691.76	15730.74
691.89	15150.29
692.03	15250.93
692.16	15136.24
692.30	15033.26
692.43	14864.74
692.57	14841.34
692.70	15019.22
692.84	14876.44
692.97	14693.88
693.11	14984.11
693.24	14717.29
693.38	14743.03
693.51	14633.03
693.65	14878.79
693.78	14581.54
693.92	14415.36
694.05	14307.69
694.19	14490.26
694.32	14230.46
694.45	14221.10
694.59	14141.52
694.72	14132.15
694.86	14052.58
694.99	13790.44
695.13	13996.40
695.26	13764.69
695.39	13638.30
695.53	14015.13
695.66	14104.07
695.80	13860.65
695.93	13926.19
696.07	13699.16
696.20	13642.98
696.33	13820.86
696.47	13891.08
696.60	13345.73
696.73	13341.05
696.87	13188.92
697.00	13338.71
697.14	13123.38
697.27	12940.82
697.40	13104.66
697.54	13022.74
697.67	12924.44
697.80	12784.01
697.94	12912.74
698.07	12734.85
698.21	12894.01
698.34	12823.80
698.47	12468.03
698.61	12564.00
698.74	12531.23
698.87	12713.79
699.01	12470.37
699.14	12465.69
699.27	12154.40
699.40	12402.50
699.54	12379.09
699.67	12229.30
699.80	12112.27
699.94	11882.90
700.07	11840.77
700.20	11803.32
700.34	11749.49
700.47	11939.07
700.60	11896.94
700.73	12002.27
700.87	11705.02
701.00	11784.60
701.13	11585.65
701.26	11775.24
701.40	11712.04
701.53	11686.29
701.66	11665.23
701.79	11311.81
701.93	11424.15
702.06	11489.69
702.19	11080.10
702.32	11147.97
702.46	10841.36
702.59	11037.97
702.72	10977.11
702.85	11061.37
702.99	10864.77
703.12	10906.90
703.25	10984.13
703.38	10824.98
703.51	10871.79
703.65	10600.29
703.78	10668.16
703.91	10864.77
704.04	10946.69
704.17	10675.18
704.31	10707.95
704.44	10586.24
704.57	10361.55
704.70	10382.62
704.83	10221.12
704.96	10237.50
705.10	10157.92
705.23	10125.16
>>>>>End Processed Spectral Data<<<<<
